Date 	 Name 	 ID 	 Gender 	 Appearance 	 Trial 	 Block 	 Bin 	 Condition 	 Category 	 Number 	 Valid 	 Keypress 	 Correct 	 RT 	 Realcorrect 	 Deadline 	 Timeout 	 Stimtrigger 	 Resptrigger 	 Fedtrigger 	WithinTime
8-Apr-13	sub2301	2301	1	0	1	1	1	4	1	1	1	0	0	0	0	0.6	1	14	0	51	0
8-Apr-13	sub2301	2301	1	0	2	1	1	2	2	2	1	0	0	0	0	0.9	1	12	0	51	0
8-Apr-13	sub2301	2301	1	0	3	1	1	2	2	2	1	0	0	0	0	0.9	1	12	0	51	0
8-Apr-13	sub2301	2301	1	0	4	1	1	6	3	2	0	0	0	0	0	0.9	1	16	0	51	0
8-Apr-13	sub2301	2301	1	0	5	1	1	6	3	2	1	0	0	0	0	0.9	1	16	0	51	0
8-Apr-13	sub2301	2301	1	0	6	1	1	2	2	2	1	0	0	0	0	0.9	1	12	0	51	0
8-Apr-13	sub2301	2301	1	0	7	1	1	6	3	2	0	0	0	0	0	0.9	1	16	0	51	0
8-Apr-13	sub2301	2301	1	0	8	1	1	6	3	2	1	0	0	0	0	0.9	1	16	0	51	0
8-Apr-13	sub2301	2301	1	0	9	1	1	2	2	2	1	0	0	0	0	0.9	1	12	0	51	0
8-Apr-13	sub2301	2301	1	0	10	1	1	2	2	2	1	0	0	0	0	0.9	1	12	0	51	0
8-Apr-13	sub2301	2301	1	0	11	1	1	6	3	2	0	0	0	0	0	0.9	1	16	0	51	0
8-Apr-13	sub2301	2301	1	0	12	1	1	1	4	2	1	0	0	0	0	0.9	1	11	0	51	0
8-Apr-13	sub2301	2301	1	0	13	1	1	3	6	3	1	0	0	0	0	0.9	1	13	0	51	0
8-Apr-13	sub2301	2301	1	0	14	1	1	3	6	3	1	0	0	0	0	0.9	1	13	0	51	0
8-Apr-13	sub2301	2301	1	0	15	1	1	4	1	1	1	2	1	0.11796	1	0.9	0	14	32	33	0
8-Apr-13	sub2301	2301	1	0	16	1	1	4	1	1	0	1	1	0.36862	0	0.9	0	14	44	39	0
8-Apr-13	sub2301	2301	1	0	17	1	1	3	6	3	1	2	0	0.3702	0	0.9	0	13	42	43	0
8-Apr-13	sub2301	2301	1	0	18	1	1	1	4	2	1	2	0	0.36388	0	0.9	0	11	40	41	0
8-Apr-13	sub2301	2301	1	0	19	1	1	1	4	2	1	1	1	0.29065	1	0.9	0	11	30	31	0
8-Apr-13	sub2301	2301	1	0	20	1	1	1	4	2	1	1	1	0.47344	1	0.9	0	11	30	31	0
8-Apr-13	sub2301	2301	1	0	21	1	1	2	2	2	1	2	1	0.42642	1	0.9	0	12	30	31	0
8-Apr-13	sub2301	2301	1	0	22	1	1	1	4	2	1	2	0	0.17394	0	0.9	0	11	40	41	0
8-Apr-13	sub2301	2301	1	0	23	1	1	4	1	1	1	2	1	0.00965	1	0.9	0	14	32	33	0
8-Apr-13	sub2301	2301	1	0	24	1	1	1	4	2	1	1	1	0.00696	1	0.9	0	11	30	31	0
8-Apr-13	sub2301	2301	1	0	25	1	1	4	1	1	1	2	1	0.15397	1	0.9	0	14	32	33	0
8-Apr-13	sub2301	2301	1	0	26	1	1	2	2	2	1	2	1	0.25871	1	0.9	0	12	30	31	0
8-Apr-13	sub2301	2301	1	0	27	1	1	2	2	2	1	2	1	0.42861	1	0.9	0	12	30	31	0
8-Apr-13	sub2301	2301	1	0	28	1	1	5	5	6	1	1	1	0.02805	1	0.9	0	15	35	36	0
8-Apr-13	sub2301	2301	1	0	29	1	1	4	1	1	1	2	1	0.04149	1	0.9	0	14	32	33	0
8-Apr-13	sub2301	2301	1	0	30	1	1	6	3	2	1	1	0	0.07495	0	0.9	0	16	45	46	0
8-Apr-13	sub2301	2301	1	0	31	1	1	5	5	6	1	1	1	0.39952	1	0.9	0	15	35	36	0
8-Apr-13	sub2301	2301	1	0	32	1	1	2	2	2	1	2	1	0.08288	1	0.9	0	12	30	31	0
8-Apr-13	sub2301	2301	1	0	33	1	1	4	1	1	1	2	1	0.0917	1	0.9	0	14	32	33	0
8-Apr-13	sub2301	2301	1	0	34	1	1	1	4	2	1	2	0	0.46312	0	0.9	0	11	40	41	0
8-Apr-13	sub2301	2301	1	0	35	1	1	5	5	6	1	1	1	0.20123	1	0.9	0	15	35	36	0
8-Apr-13	sub2301	2301	1	0	36	1	1	1	4	2	1	1	1	0.4293	1	0.9	0	11	30	31	0
8-Apr-13	sub2301	2301	1	0	37	1	1	6	3	2	0	1	1	0.15083	0	0.9	0	16	47	38	0
8-Apr-13	sub2301	2301	1	0	38	1	1	3	6	3	0	1	0	0.26909	1	0.9	0	13	34	49	0
8-Apr-13	sub2301	2301	1	0	39	1	1	2	2	2	1	2	1	0.14278	1	0.9	0	12	30	31	0
8-Apr-13	sub2301	2301	1	0	40	1	1	2	2	2	1	2	1	0.4314	1	0.9	0	12	30	31	0
8-Apr-13	sub2301	2301	1	0	41	1	1	4	1	1	1	1	0	0.03434	0	0.9	0	14	42	43	0
8-Apr-13	sub2301	2301	1	0	42	1	1	1	4	2	1	2	0	0.16775	0	0.9	0	11	40	41	0
8-Apr-13	sub2301	2301	1	0	43	1	1	5	5	6	0	1	0	0.19536	1	0.9	0	15	37	48	0
8-Apr-13	sub2301	2301	1	0	44	1	1	5	5	6	1	1	1	0.10052	1	0.9	0	15	35	36	0
8-Apr-13	sub2301	2301	1	0	45	1	1	1	4	2	1	2	0	0.14458	0	0.9	0	11	40	41	0
8-Apr-13	sub2301	2301	1	0	46	1	1	5	5	6	0	1	0	0.16536	1	0.9	0	15	37	48	0
8-Apr-13	sub2301	2301	1	0	47	1	1	6	3	2	1	1	0	0.28083	0	0.9	0	16	45	46	0
8-Apr-13	sub2301	2301	1	0	48	1	1	1	4	2	1	1	1	0.57261	1	0.9	0	11	30	31	0
8-Apr-13	sub2301	2301	1	0	49	1	1	3	6	3	0	1	0	0.28564	1	0.9	0	13	34	49	0
8-Apr-13	sub2301	2301	1	0	50	1	1	6	3	2	1	1	0	0.3744	0	0.9	0	16	45	46	0
8-Apr-13	sub2301	2301	1	0	51	1	1	4	1	1	1	2	1	0.06545	1	0.9	0	14	32	33	0
8-Apr-13	sub2301	2301	1	0	52	1	1	4	1	1	0	2	0	0.49997	1	0.9	0	14	34	49	0
8-Apr-13	sub2301	2301	1	0	53	1	1	2	2	2	1	2	1	0.2945	1	0.9	0	12	30	31	0
8-Apr-13	sub2301	2301	1	0	54	1	1	6	3	2	0	2	0	0.37279	1	0.9	0	16	37	48	0
8-Apr-13	sub2301	2301	1	0	55	1	1	3	6	3	1	2	0	0.61214	0	0.9	0	13	42	43	0
8-Apr-13	sub2301	2301	1	0	56	1	1	5	5	6	1	1	1	0.16242	1	0.9	0	15	35	36	0
8-Apr-13	sub2301	2301	1	0	57	1	1	5	5	6	1	1	1	0.13065	1	0.9	0	15	35	36	0
8-Apr-13	sub2301	2301	1	0	58	1	1	6	3	2	0	2	0	0.27082	1	0.9	0	16	37	48	0
8-Apr-13	sub2301	2301	1	0	59	1	1	2	2	2	1	2	1	0.16707	1	0.9	0	12	30	31	0
8-Apr-13	sub2301	2301	1	0	60	1	1	3	6	3	1	2	0	0.23835	0	0.9	0	13	42	43	0
8-Apr-13	sub2301	2301	1	0	61	1	1	6	3	2	0	1	1	0.28713	0	0.9	0	16	47	38	0
8-Apr-13	sub2301	2301	1	0	62	1	1	5	5	6	0	1	0	0.07477	1	0.9	0	15	37	48	0
8-Apr-13	sub2301	2301	1	0	63	1	1	6	3	2	1	1	0	0.23135	0	0.9	0	16	45	46	0
8-Apr-13	sub2301	2301	1	0	64	1	1	5	5	6	1	1	1	0.14692	1	0.9	0	15	35	36	0
8-Apr-13	sub2301	2301	1	0	65	1	1	4	1	1	1	2	1	0.04897	1	0.9	0	14	32	33	0
8-Apr-13	sub2301	2301	1	0	66	1	1	3	6	3	1	1	1	0.06432	1	0.9	0	13	32	33	0
8-Apr-13	sub2301	2301	1	0	67	1	1	3	6	3	1	1	1	0.47946	1	0.9	0	13	32	33	0
8-Apr-13	sub2301	2301	1	0	68	1	1	3	6	3	1	1	1	0.47564	1	0.9	0	13	32	33	0
8-Apr-13	sub2301	2301	1	0	69	1	1	5	5	6	0	1	0	0.18205	1	0.9	0	15	37	48	0
8-Apr-13	sub2301	2301	1	0	70	1	1	5	5	6	0	1	0	0.45203	1	0.9	0	15	37	48	0
8-Apr-13	sub2301	2301	1	0	71	1	1	3	6	3	1	1	1	0.50954	1	0.9	0	13	32	33	0
8-Apr-13	sub2301	2301	1	0	72	1	1	3	6	3	0	1	0	0.44371	1	0.9	0	13	34	49	0
8-Apr-13	sub2301	2301	1	0	73	1	1	3	6	3	1	1	1	0.42581	1	0.9	0	13	32	33	0
8-Apr-13	sub2301	2301	1	0	74	1	1	1	4	2	1	1	1	0.17649	1	0.9	0	11	30	31	0
8-Apr-13	sub2301	2301	1	0	75	1	1	4	1	1	1	2	1	0.40465	1	0.9	0	14	32	33	0
8-Apr-13	sub2301	2301	1	0	1	2	1	6	4	6	1	1	0	0.194	0	0.6	0	16	45	46	0
8-Apr-13	sub2301	2301	1	0	2	2	1	6	4	6	1	2	1	0.05799	1	0.3	0	16	35	36	0
8-Apr-13	sub2301	2301	1	0	3	2	1	1	3	6	1	1	1	0.1616	1	0.3	0	11	30	31	0
8-Apr-13	sub2301	2301	1	0	4	2	1	3	2	6	1	0	0	0	0	0.3	1	13	0	51	0
8-Apr-13	sub2301	2301	1	0	5	2	1	4	1	3	1	2	1	0.00982	1	0.9	0	14	32	33	0
8-Apr-13	sub2301	2301	1	0	6	2	1	3	2	6	0	2	1	0.23998	0	0.9	0	13	44	39	0
8-Apr-13	sub2301	2301	1	0	7	2	1	1	3	6	1	1	1	0.08597	1	0.9	0	11	30	31	0
8-Apr-13	sub2301	2301	1	0	8	2	1	3	2	6	1	2	0	0.10971	0	0.9	0	13	42	43	0
8-Apr-13	sub2301	2301	1	0	9	2	1	4	1	3	0	2	0	0.44233	1	0.9	0	14	34	49	0
8-Apr-13	sub2301	2301	1	0	10	2	1	5	6	1	1	1	1	0.49788	1	0.9	0	15	35	36	0
8-Apr-13	sub2301	2301	1	0	11	2	1	5	6	1	0	1	0	0.38695	1	0.9	0	15	37	48	0
8-Apr-13	sub2301	2301	1	0	12	2	1	3	2	6	0	2	1	0.21428	0	0.9	0	13	44	39	0
8-Apr-13	sub2301	2301	1	0	13	2	1	6	4	6	0	1	1	0.03538	0	0.9	0	16	47	38	0
8-Apr-13	sub2301	2301	1	0	14	2	1	6	4	6	0	1	1	0.43644	0	0.9	0	16	47	38	0
8-Apr-13	sub2301	2301	1	0	15	2	1	4	1	3	1	2	1	0.1629	1	0.9	0	14	32	33	0
8-Apr-13	sub2301	2301	1	0	16	2	1	6	4	6	0	2	0	0.46537	1	0.8	0	16	37	48	0
8-Apr-13	sub2301	2301	1	0	17	2	1	5	6	1	1	1	1	0.09783	1	0.8	0	15	35	36	0
8-Apr-13	sub2301	2301	1	0	18	2	1	1	3	6	1	1	1	0.00359	1	0.7	0	11	30	31	0
8-Apr-13	sub2301	2301	1	0	19	2	1	2	5	1	1	1	0	0.01252	0	0.7	0	12	40	41	0
8-Apr-13	sub2301	2301	1	0	20	2	1	4	1	3	1	2	1	0.08811	1	0.7	0	14	32	33	0
8-Apr-13	sub2301	2301	1	0	21	2	1	2	5	1	1	2	1	0.39931	1	0.6	0	12	30	31	0
8-Apr-13	sub2301	2301	1	0	22	2	1	2	5	1	1	2	1	0.03929	1	0.6	0	12	30	31	0
8-Apr-13	sub2301	2301	1	0	23	2	1	1	3	6	1	1	1	0.49044	1	0.6	0	11	30	31	0
8-Apr-13	sub2301	2301	1	0	24	2	1	1	3	6	1	1	1	0.35674	1	0.6	0	11	30	31	0
8-Apr-13	sub2301	2301	1	0	25	2	1	5	6	1	0	1	0	0.02137	1	0.6	0	15	37	48	0
8-Apr-13	sub2301	2301	1	0	26	2	1	2	5	1	1	2	1	0.03315	1	0.5	0	12	30	31	0
8-Apr-13	sub2301	2301	1	0	27	2	1	5	6	1	1	2	0	0.46782	0	0.5	0	15	45	46	0
8-Apr-13	sub2301	2301	1	0	28	2	1	2	5	1	1	1	0	0.48376	0	0.5	0	12	40	41	0
8-Apr-13	sub2301	2301	1	0	29	2	1	2	5	1	1	1	0	0.43491	0	0.5	0	12	40	41	0
8-Apr-13	sub2301	2301	1	0	30	2	1	2	5	1	1	2	1	0.47102	1	0.5	0	12	30	31	0
8-Apr-13	sub2301	2301	1	0	31	2	1	6	4	6	0	0	0	0	0	0.5	1	16	0	51	0
8-Apr-13	sub2301	2301	1	0	32	2	1	4	1	3	1	1	0	0.46476	0	0.8	0	14	42	43	0
8-Apr-13	sub2301	2301	1	0	33	2	1	6	4	6	1	2	1	0.48741	1	0.8	0	16	35	36	0
8-Apr-13	sub2301	2301	1	0	34	2	1	2	5	1	1	2	1	0.49908	1	0.8	0	12	30	31	0
8-Apr-13	sub2301	2301	1	0	35	2	1	2	5	1	1	2	1	0.39936	1	0.7	0	12	30	31	0
8-Apr-13	sub2301	2301	1	0	36	2	1	2	5	1	1	2	1	0.37767	1	0.7	0	12	30	31	0
8-Apr-13	sub2301	2301	1	0	37	2	1	5	6	1	1	1	1	0.49765	1	0.7	0	15	35	36	0
8-Apr-13	sub2301	2301	1	0	38	2	1	5	6	1	0	1	0	0.44101	1	0.7	0	15	37	48	0
8-Apr-13	sub2301	2301	1	0	39	2	1	3	2	6	1	2	0	0.48892	0	0.7	0	13	42	43	0
8-Apr-13	sub2301	2301	1	0	40	2	1	4	1	3	1	2	1	0.01422	1	0.7	0	14	32	33	0
8-Apr-13	sub2301	2301	1	0	41	2	1	5	6	1	0	1	0	0.00092	1	0.6	0	15	37	48	0
8-Apr-13	sub2301	2301	1	0	42	2	1	1	3	6	1	1	1	0.02265	1	0.6	0	11	30	31	0
8-Apr-13	sub2301	2301	1	0	43	2	1	5	6	1	1	1	1	0.45084	1	0.6	0	15	35	36	0
8-Apr-13	sub2301	2301	1	0	44	2	1	4	1	3	1	2	1	0.00374	1	0.6	0	14	32	33	0
8-Apr-13	sub2301	2301	1	0	45	2	1	3	2	6	1	2	0	0.04364	0	0.6	0	13	42	43	0
8-Apr-13	sub2301	2301	1	0	46	2	1	3	2	6	1	2	0	0.41267	0	0.6	0	13	42	43	0
8-Apr-13	sub2301	2301	1	0	47	2	1	6	4	6	0	1	1	0.00486	0	0.6	0	16	47	38	0
8-Apr-13	sub2301	2301	1	0	48	2	1	1	3	6	1	1	1	0.48515	1	0.6	0	11	30	31	0
8-Apr-13	sub2301	2301	1	0	49	2	1	4	1	3	0	1	1	0.45299	0	0.6	0	14	44	39	0
8-Apr-13	sub2301	2301	1	0	50	2	1	1	3	6	1	1	1	0.00852	1	0.6	0	11	30	31	0
8-Apr-13	sub2301	2301	1	0	51	2	1	3	2	6	0	2	1	0.11548	0	0.5	0	13	44	39	0
8-Apr-13	sub2301	2301	1	0	52	2	1	1	3	6	1	1	1	0.44364	1	0.5	0	11	30	31	0
8-Apr-13	sub2301	2301	1	0	53	2	1	5	6	1	1	1	1	0.00068	1	0.5	0	15	35	36	0
8-Apr-13	sub2301	2301	1	0	54	2	1	1	3	6	1	1	1	0.43523	1	0.5	0	11	30	31	0
8-Apr-13	sub2301	2301	1	0	55	2	1	6	4	6	0	1	1	0.16683	0	0.5	0	16	47	38	0
8-Apr-13	sub2301	2301	1	0	56	2	1	6	4	6	1	1	0	0.35187	0	0.5	0	16	45	46	0
8-Apr-13	sub2301	2301	1	0	57	2	1	5	6	1	0	0	0	0	0	0.5	1	15	0	51	0
8-Apr-13	sub2301	2301	1	0	58	2	1	4	1	3	1	2	1	0.0181	1	0.7	0	14	32	33	0
8-Apr-13	sub2301	2301	1	0	59	2	1	6	4	6	1	1	0	0.01373	0	0.7	0	16	45	46	0
8-Apr-13	sub2301	2301	1	0	60	2	1	4	1	3	1	2	1	0.04941	1	0.7	0	14	32	33	0
8-Apr-13	sub2301	2301	1	0	61	2	1	5	6	1	1	2	0	0.38609	0	0.6	0	15	45	46	0
8-Apr-13	sub2301	2301	1	0	62	2	1	1	3	6	1	1	1	0.48621	1	0.6	0	11	30	31	0
8-Apr-13	sub2301	2301	1	0	63	2	1	1	3	6	1	1	1	0.33547	1	0.6	0	11	30	31	0
8-Apr-13	sub2301	2301	1	0	64	2	1	6	4	6	0	1	1	0.14126	0	0.6	0	16	47	38	0
8-Apr-13	sub2301	2301	1	0	65	2	1	2	5	1	1	1	0	0.04679	0	0.6	0	12	40	41	0
8-Apr-13	sub2301	2301	1	0	66	2	1	3	2	6	1	1	1	0.43031	1	0.6	0	13	32	33	0
8-Apr-13	sub2301	2301	1	0	67	2	1	4	1	3	1	1	0	0.387	0	0.6	0	14	42	43	0
8-Apr-13	sub2301	2301	1	0	68	2	1	3	2	6	1	2	0	0.17062	0	0.6	0	13	42	43	0
8-Apr-13	sub2301	2301	1	0	69	2	1	2	5	1	1	1	0	0.45505	0	0.6	0	12	40	41	0
8-Apr-13	sub2301	2301	1	0	70	2	1	3	2	6	1	1	1	0.09566	1	0.6	0	13	32	33	0
8-Apr-13	sub2301	2301	1	0	71	2	1	3	2	6	1	1	1	0.35517	1	0.6	0	13	32	33	0
8-Apr-13	sub2301	2301	1	0	72	2	1	6	4	6	1	1	0	0.44813	0	0.6	0	16	45	46	0
8-Apr-13	sub2301	2301	1	0	73	2	1	3	2	6	1	1	1	0.44225	1	0.6	0	13	32	33	0
8-Apr-13	sub2301	2301	1	0	74	2	1	4	1	3	1	2	1	0.41661	1	0.6	0	14	32	33	0
8-Apr-13	sub2301	2301	1	0	75	2	1	2	5	1	1	2	1	0.10052	1	0.6	0	12	30	31	0
8-Apr-13	sub2301	2301	1	0	76	2	2	3	2	6	1	1	1	0.12453	1	0.5	0	23	62	63	0
8-Apr-13	sub2301	2301	1	0	77	2	2	2	5	1	1	1	0	0.43482	0	0.5	0	22	80	81	0
8-Apr-13	sub2301	2301	1	0	78	2	2	6	4	6	1	1	0	0.48339	0	0.5	0	26	85	86	0
8-Apr-13	sub2301	2301	1	0	79	2	2	1	3	6	1	1	1	0.03746	1	0.5	0	21	60	61	0
8-Apr-13	sub2301	2301	1	0	80	2	2	5	6	1	0	1	0	0.1705	1	0.5	0	25	67	88	0
8-Apr-13	sub2301	2301	1	0	81	2	2	1	3	6	1	1	1	0.10725	1	0.5	0	21	60	61	0
8-Apr-13	sub2301	2301	1	0	82	2	2	2	5	1	1	2	1	0.03333	1	0.5	0	22	60	61	0
8-Apr-13	sub2301	2301	1	0	83	2	2	1	3	6	1	1	1	0.06307	1	0.5	0	21	60	61	0
8-Apr-13	sub2301	2301	1	0	84	2	2	4	1	3	0	2	0	0.0048	1	0.5	0	24	64	89	0
8-Apr-13	sub2301	2301	1	0	85	2	2	6	4	6	1	1	0	0.23035	0	0.5	0	26	85	86	0
8-Apr-13	sub2301	2301	1	0	86	2	2	5	6	1	0	1	0	0.04223	1	0.5	0	25	67	88	0
8-Apr-13	sub2301	2301	1	0	87	2	2	3	2	6	1	1	1	0.43552	1	0.5	0	23	62	63	0
8-Apr-13	sub2301	2301	1	0	88	2	2	1	3	6	1	1	1	0.37122	1	0.5	0	21	60	61	0
8-Apr-13	sub2301	2301	1	0	89	2	2	5	6	1	0	1	0	0.09004	1	0.5	0	25	67	88	0
8-Apr-13	sub2301	2301	1	0	90	2	2	6	4	6	1	2	1	0.21747	1	0.5	0	26	65	66	0
8-Apr-13	sub2301	2301	1	0	91	2	2	2	5	1	1	2	1	0.0229	1	0.5	0	22	60	61	0
8-Apr-13	sub2301	2301	1	0	92	2	2	6	4	6	1	2	1	0.00608	1	0.5	0	26	65	66	0
8-Apr-13	sub2301	2301	1	0	93	2	2	3	2	6	1	2	0	0.44063	0	0.5	0	23	82	83	0
8-Apr-13	sub2301	2301	1	0	94	2	2	2	5	1	1	2	1	0.0993	1	0.5	0	22	60	61	0
8-Apr-13	sub2301	2301	1	0	95	2	2	5	6	1	0	1	0	0.07771	1	0.5	0	25	67	88	0
8-Apr-13	sub2301	2301	1	0	96	2	2	4	1	3	1	2	1	0.04592	1	0.5	0	24	62	63	0
8-Apr-13	sub2301	2301	1	0	97	2	2	6	4	6	0	2	0	0.07599	1	0.5	0	26	67	88	0
8-Apr-13	sub2301	2301	1	0	98	2	2	4	1	3	1	2	1	0.47493	1	0.5	0	24	62	63	0
8-Apr-13	sub2301	2301	1	0	99	2	2	2	5	1	1	2	1	0.42075	1	0.5	0	22	60	61	0
8-Apr-13	sub2301	2301	1	0	100	2	2	4	1	3	1	2	1	0.01871	1	0.5	0	24	62	63	0
8-Apr-13	sub2301	2301	1	0	101	2	2	5	6	1	0	2	1	0.03585	0	0.4	0	25	87	68	0
8-Apr-13	sub2301	2301	1	0	102	2	2	3	2	6	1	1	1	0.0081	1	0.4	0	23	62	63	0
8-Apr-13	sub2301	2301	1	0	103	2	2	4	1	3	0	2	0	0.38661	1	0.4	0	24	64	89	0
8-Apr-13	sub2301	2301	1	0	104	2	2	6	4	6	0	2	0	0.15588	1	0.4	0	26	67	88	0
8-Apr-13	sub2301	2301	1	0	105	2	2	4	1	3	1	2	1	0.0855	1	0.4	0	24	62	63	0
8-Apr-13	sub2301	2301	1	0	106	2	2	3	2	6	1	1	1	0.41725	1	0.4	1	23	62	51	0
8-Apr-13	sub2301	2301	1	0	107	2	2	1	3	6	1	1	1	0.01921	1	0.5	0	21	60	61	0
8-Apr-13	sub2301	2301	1	0	108	2	2	5	6	1	0	1	0	0.03179	1	0.5	0	25	67	88	0
8-Apr-13	sub2301	2301	1	0	109	2	2	4	1	3	1	2	1	0.09353	1	0.5	0	24	62	63	0
8-Apr-13	sub2301	2301	1	0	110	2	2	5	6	1	0	2	1	0.47331	0	0.5	0	25	87	68	0
8-Apr-13	sub2301	2301	1	0	111	2	2	2	5	1	1	2	1	0.06406	1	0.5	0	22	60	61	0
8-Apr-13	sub2301	2301	1	0	112	2	2	2	5	1	1	2	1	0.39651	1	0.5	0	22	60	61	0
8-Apr-13	sub2301	2301	1	0	113	2	2	5	6	1	0	2	1	0.11069	0	0.5	0	25	87	68	0
8-Apr-13	sub2301	2301	1	0	114	2	2	3	2	6	0	2	1	0.39463	0	0.5	0	23	84	69	0
8-Apr-13	sub2301	2301	1	0	115	2	2	2	5	1	1	2	1	0.47532	1	0.5	0	22	60	61	0
8-Apr-13	sub2301	2301	1	0	116	2	2	6	4	6	0	2	0	0.37623	1	0.5	0	26	67	88	0
8-Apr-13	sub2301	2301	1	0	117	2	2	3	2	6	1	1	1	0.46019	1	0.5	0	23	62	63	0
8-Apr-13	sub2301	2301	1	0	118	2	2	4	1	3	1	2	1	0.01215	1	0.5	0	24	62	63	0
8-Apr-13	sub2301	2301	1	0	119	2	2	1	3	6	1	1	1	0.45526	1	0.5	0	21	60	61	0
8-Apr-13	sub2301	2301	1	0	120	2	2	6	4	6	1	1	0	0.3868	0	0.5	0	26	85	86	0
8-Apr-13	sub2301	2301	1	0	121	2	2	4	1	3	1	2	1	0.48497	1	0.5	0	24	62	63	0
8-Apr-13	sub2301	2301	1	0	122	2	2	2	5	1	1	2	1	0.05061	1	0.5	0	22	60	61	0
8-Apr-13	sub2301	2301	1	0	123	2	2	1	3	6	1	1	1	0.06347	1	0.5	0	21	60	61	0
8-Apr-13	sub2301	2301	1	0	124	2	2	3	2	6	0	1	0	0.0132	1	0.5	0	23	64	89	0
8-Apr-13	sub2301	2301	1	0	125	2	2	5	6	1	0	2	1	0.40897	0	0.5	0	25	87	68	0
8-Apr-13	sub2301	2301	1	0	126	2	2	1	3	6	1	1	1	0.02517	1	0.5	0	21	60	61	0
8-Apr-13	sub2301	2301	1	0	127	2	2	1	3	6	1	1	1	0.4796	1	0.5	0	21	60	61	0
8-Apr-13	sub2301	2301	1	0	128	2	2	5	6	1	0	2	1	0.45866	0	0.5	0	25	87	68	0
8-Apr-13	sub2301	2301	1	0	129	2	2	1	3	6	1	1	1	0.42069	1	0.5	0	21	60	61	0
8-Apr-13	sub2301	2301	1	0	130	2	2	6	4	6	0	1	1	0.06984	0	0.5	0	26	87	68	0
8-Apr-13	sub2301	2301	1	0	131	2	2	5	6	1	0	2	1	0.05331	0	0.5	0	25	87	68	0
8-Apr-13	sub2301	2301	1	0	132	2	2	6	4	6	1	1	0	0.48064	0	0.5	0	26	85	86	0
8-Apr-13	sub2301	2301	1	0	133	2	2	6	4	6	0	2	0	0.38465	1	0.5	0	26	67	88	0
8-Apr-13	sub2301	2301	1	0	134	2	2	6	4	6	0	1	1	0.37573	0	0.5	0	26	87	68	0
8-Apr-13	sub2301	2301	1	0	135	2	2	5	6	1	0	2	1	0.44302	0	0.4	1	25	87	51	0
8-Apr-13	sub2301	2301	1	0	136	2	2	2	5	1	1	2	1	0.16089	1	0.5	0	22	60	61	0
8-Apr-13	sub2301	2301	1	0	137	2	2	1	3	6	1	2	0	0.38957	0	0.5	0	21	80	81	0
8-Apr-13	sub2301	2301	1	0	138	2	2	3	2	6	1	2	0	0.47437	0	0.5	0	23	82	83	0
8-Apr-13	sub2301	2301	1	0	139	2	2	5	6	1	0	2	1	0.49319	0	0.5	0	25	87	68	0
8-Apr-13	sub2301	2301	1	0	140	2	2	3	2	6	1	2	0	0.13455	0	0.5	0	23	82	83	0
8-Apr-13	sub2301	2301	1	0	141	2	2	3	2	6	1	1	1	0.45252	1	0.5	0	23	62	63	0
8-Apr-13	sub2301	2301	1	0	142	2	2	2	5	1	1	2	1	0.06198	1	0.5	0	22	60	61	0
8-Apr-13	sub2301	2301	1	0	143	2	2	1	3	6	1	1	1	0.49498	1	0.5	0	21	60	61	0
8-Apr-13	sub2301	2301	1	0	144	2	2	4	1	3	1	2	1	0.49205	1	0.5	0	24	62	63	0
8-Apr-13	sub2301	2301	1	0	145	2	2	3	2	6	1	2	0	0.40029	0	0.5	0	23	82	83	0
8-Apr-13	sub2301	2301	1	0	146	2	2	2	5	1	1	2	1	0.48285	1	0.5	0	22	60	61	0
8-Apr-13	sub2301	2301	1	0	147	2	2	1	3	6	1	1	1	0.40826	1	0.5	0	21	60	61	0
8-Apr-13	sub2301	2301	1	0	148	2	2	4	1	3	1	2	1	0.45109	1	0.5	0	24	62	63	0
8-Apr-13	sub2301	2301	1	0	149	2	2	4	1	3	1	2	1	0.42556	1	0.5	0	24	62	63	0
8-Apr-13	sub2301	2301	1	0	150	2	2	4	1	3	0	2	0	0.4039	1	0.5	0	24	64	89	0
8-Apr-13	sub2301	2301	1	0	1	3	1	1	3	5	1	1	1	0.10906	1	0.6	0	11	30	31	0
8-Apr-13	sub2301	2301	1	0	2	3	1	5	1	2	1	2	0	0.42483	0	0.3	1	15	45	51	0
8-Apr-13	sub2301	2301	1	0	3	3	1	6	4	5	1	1	0	0.03455	0	0.9	0	16	45	46	0
8-Apr-13	sub2301	2301	1	0	4	3	1	4	2	1	1	2	1	0.03679	1	0.9	0	14	32	33	0
8-Apr-13	sub2301	2301	1	0	5	3	1	2	5	5	1	2	1	0.00712	1	0.9	0	12	30	31	0
8-Apr-13	sub2301	2301	1	0	6	3	1	5	1	2	0	2	1	0.45504	0	0.9	0	15	47	38	0
8-Apr-13	sub2301	2301	1	0	7	3	1	2	5	5	1	2	1	0.48353	1	0.9	0	12	30	31	0
8-Apr-13	sub2301	2301	1	0	8	3	1	4	2	1	1	1	0	0.04802	0	0.9	0	14	42	43	0
8-Apr-13	sub2301	2301	1	0	9	3	1	5	1	2	0	2	1	0.45003	0	0.9	0	15	47	38	0
8-Apr-13	sub2301	2301	1	0	10	3	1	2	5	5	1	2	1	0.48602	1	0.9	0	12	30	31	0
8-Apr-13	sub2301	2301	1	0	11	3	1	3	6	5	0	2	1	0.36056	0	0.9	0	13	44	39	0
8-Apr-13	sub2301	2301	1	0	12	3	1	5	1	2	1	2	0	0.38913	0	0.9	0	15	45	46	0
8-Apr-13	sub2301	2301	1	0	13	3	1	3	6	5	0	2	1	0.40023	0	0.9	0	13	44	39	0
8-Apr-13	sub2301	2301	1	0	14	3	1	4	2	1	1	2	1	0.3874	1	0.9	0	14	32	33	0
8-Apr-13	sub2301	2301	1	0	15	3	1	5	1	2	0	2	1	0.37395	0	0.9	0	15	47	38	0
8-Apr-13	sub2301	2301	1	0	16	3	1	6	4	5	0	2	0	0.00596	1	0.8	0	16	37	48	0
8-Apr-13	sub2301	2301	1	0	17	3	1	4	2	1	0	2	0	0.06398	1	0.8	0	14	34	49	0
8-Apr-13	sub2301	2301	1	0	18	3	1	6	4	5	1	2	1	0.39607	1	0.7	0	16	35	36	0
8-Apr-13	sub2301	2301	1	0	19	3	1	6	4	5	1	2	1	0.03677	1	0.7	0	16	35	36	0
8-Apr-13	sub2301	2301	1	0	20	3	1	2	5	5	1	2	1	0.06536	1	0.7	0	12	30	31	0
8-Apr-13	sub2301	2301	1	0	21	3	1	1	3	5	1	2	0	0.45373	0	0.6	0	11	40	41	0
8-Apr-13	sub2301	2301	1	0	22	3	1	4	2	1	1	2	1	0.43987	1	0.6	0	14	32	33	0
8-Apr-13	sub2301	2301	1	0	23	3	1	3	6	5	1	2	0	0.38865	0	0.6	0	13	42	43	0
8-Apr-13	sub2301	2301	1	0	24	3	1	1	3	5	1	1	1	0.421	1	0.6	0	11	30	31	0
8-Apr-13	sub2301	2301	1	0	25	3	1	5	1	2	0	2	1	0.49562	0	0.6	0	15	47	38	0
8-Apr-13	sub2301	2301	1	0	26	3	1	1	3	5	1	1	1	0.39593	1	0.5	0	11	30	31	0
8-Apr-13	sub2301	2301	1	0	27	3	1	6	4	5	0	1	1	0.10739	0	0.5	0	16	47	38	0
8-Apr-13	sub2301	2301	1	0	28	3	1	5	1	2	1	2	0	0.04309	0	0.5	0	15	45	46	0
8-Apr-13	sub2301	2301	1	0	29	3	1	3	6	5	1	2	0	0.19306	0	0.5	0	13	42	43	0
8-Apr-13	sub2301	2301	1	0	30	3	1	4	2	1	0	2	0	0.06376	1	0.5	0	14	34	49	0
8-Apr-13	sub2301	2301	1	0	31	3	1	4	2	1	1	2	1	0.48327	1	0.5	0	14	32	33	0
8-Apr-13	sub2301	2301	1	0	32	3	1	4	2	1	1	2	1	0.38606	1	0.5	0	14	32	33	0
8-Apr-13	sub2301	2301	1	0	33	3	1	6	4	5	1	1	0	0.38122	0	0.5	0	16	45	46	0
8-Apr-13	sub2301	2301	1	0	34	3	1	1	3	5	1	1	1	0.49613	1	0.5	0	11	30	31	0
8-Apr-13	sub2301	2301	1	0	35	3	1	4	2	1	1	1	0	0.42988	0	0.4	1	14	42	51	0
8-Apr-13	sub2301	2301	1	0	36	3	1	1	3	5	1	1	1	0.48516	1	0.7	0	11	30	31	0
8-Apr-13	sub2301	2301	1	0	37	3	1	2	5	5	1	2	1	0.49011	1	0.7	0	12	30	31	0
8-Apr-13	sub2301	2301	1	0	38	3	1	1	3	5	1	1	1	0.03033	1	0.7	0	11	30	31	0
8-Apr-13	sub2301	2301	1	0	39	3	1	3	6	5	1	1	1	0.00886	1	0.7	0	13	32	33	0
8-Apr-13	sub2301	2301	1	0	40	3	1	6	4	5	0	2	0	0.46129	1	0.7	0	16	37	48	0
8-Apr-13	sub2301	2301	1	0	41	3	1	6	4	5	0	1	1	0.08807	0	0.6	0	16	47	38	0
8-Apr-13	sub2301	2301	1	0	42	3	1	5	1	2	1	2	0	0.46077	0	0.6	0	15	45	46	0
8-Apr-13	sub2301	2301	1	0	43	3	1	3	6	5	0	1	0	0.14995	1	0.6	0	13	34	49	0
8-Apr-13	sub2301	2301	1	0	44	3	1	6	4	5	1	1	0	0.49572	0	0.6	0	16	45	46	0
8-Apr-13	sub2301	2301	1	0	45	3	1	3	6	5	1	2	0	0.48661	0	0.6	0	13	42	43	0
8-Apr-13	sub2301	2301	1	0	46	3	1	2	5	5	1	2	1	0.14462	1	0.6	0	12	30	31	0
8-Apr-13	sub2301	2301	1	0	47	3	1	1	3	5	1	1	1	0.45274	1	0.6	0	11	30	31	0
8-Apr-13	sub2301	2301	1	0	48	3	1	3	6	5	1	1	1	0.36311	1	0.6	0	13	32	33	0
8-Apr-13	sub2301	2301	1	0	49	3	1	6	4	5	1	1	0	0.47751	0	0.6	0	16	45	46	0
8-Apr-13	sub2301	2301	1	0	50	3	1	3	6	5	1	1	1	0.17154	1	0.6	0	13	32	33	0
8-Apr-13	sub2301	2301	1	0	51	3	1	2	5	5	1	1	0	0.42866	0	0.5	0	12	40	41	0
8-Apr-13	sub2301	2301	1	0	52	3	1	6	4	5	0	2	0	0.01891	1	0.5	0	16	37	48	0
8-Apr-13	sub2301	2301	1	0	53	3	1	5	1	2	1	2	0	0.41719	0	0.5	0	15	45	46	0
8-Apr-13	sub2301	2301	1	0	54	3	1	5	1	2	1	2	0	0.32011	0	0.5	0	15	45	46	0
8-Apr-13	sub2301	2301	1	0	55	3	1	6	4	5	0	1	1	0.47956	0	0.5	0	16	47	38	0
8-Apr-13	sub2301	2301	1	0	56	3	1	1	3	5	1	1	1	0.38375	1	0.5	0	11	30	31	0
8-Apr-13	sub2301	2301	1	0	57	3	1	3	6	5	1	2	0	0.10733	0	0.5	0	13	42	43	0
8-Apr-13	sub2301	2301	1	0	58	3	1	6	4	5	0	1	1	0.49009	0	0.5	0	16	47	38	0
8-Apr-13	sub2301	2301	1	0	59	3	1	1	3	5	1	1	1	0.37073	1	0.5	0	11	30	31	0
8-Apr-13	sub2301	2301	1	0	60	3	1	2	5	5	1	1	0	0.378	0	0.5	0	12	40	41	0
8-Apr-13	sub2301	2301	1	0	61	3	1	2	5	5	1	2	1	0.3438	1	0.5	0	12	30	31	0
8-Apr-13	sub2301	2301	1	0	62	3	1	4	2	1	1	2	1	0.46436	1	0.5	0	14	32	33	0
8-Apr-13	sub2301	2301	1	0	63	3	1	3	6	5	1	2	0	0.00735	0	0.5	0	13	42	43	0
8-Apr-13	sub2301	2301	1	0	64	3	1	1	3	5	1	1	1	0.02556	1	0.5	0	11	30	31	0
8-Apr-13	sub2301	2301	1	0	65	3	1	1	3	5	1	1	1	0.34671	1	0.5	0	11	30	31	0
8-Apr-13	sub2301	2301	1	0	66	3	1	3	6	5	1	2	0	0.45674	0	0.5	0	13	42	43	0
8-Apr-13	sub2301	2301	1	0	67	3	1	5	1	2	0	2	1	0.47304	0	0.5	0	15	47	38	0
8-Apr-13	sub2301	2301	1	0	68	3	1	2	5	5	1	2	1	0.49118	1	0.4	1	12	30	51	0
8-Apr-13	sub2301	2301	1	0	69	3	1	4	2	1	1	2	1	0.43897	1	0.6	0	14	32	33	0
8-Apr-13	sub2301	2301	1	0	70	3	1	2	5	5	1	1	0	0.39859	0	0.6	0	12	40	41	0
8-Apr-13	sub2301	2301	1	0	71	3	1	4	2	1	1	2	1	0.07338	1	0.6	0	14	32	33	0
8-Apr-13	sub2301	2301	1	0	72	3	1	2	5	5	1	1	0	0.45056	0	0.6	0	12	40	41	0
8-Apr-13	sub2301	2301	1	0	73	3	1	2	5	5	1	2	1	0.41059	1	0.6	0	12	30	31	0
8-Apr-13	sub2301	2301	1	0	74	3	1	5	1	2	1	2	0	0.44317	0	0.6	0	15	45	46	0
8-Apr-13	sub2301	2301	1	0	75	3	1	3	6	5	1	2	0	0.0226	0	0.6	0	13	42	43	0
8-Apr-13	sub2301	2301	1	0	76	3	2	3	6	5	0	1	0	0.00737	1	0.5	0	23	64	89	0
8-Apr-13	sub2301	2301	1	0	77	3	2	3	6	5	0	1	0	0.40805	1	0.5	0	23	64	89	0
8-Apr-13	sub2301	2301	1	0	78	3	2	2	5	5	1	2	1	0.17016	1	0.5	0	22	60	61	0
8-Apr-13	sub2301	2301	1	0	79	3	2	2	5	5	1	2	1	0.48976	1	0.5	0	22	60	61	0
8-Apr-13	sub2301	2301	1	0	80	3	2	2	5	5	1	2	1	0.37844	1	0.5	0	22	60	61	0
8-Apr-13	sub2301	2301	1	0	81	3	2	3	6	5	1	2	0	0.38849	0	0.5	0	23	82	83	0
8-Apr-13	sub2301	2301	1	0	82	3	2	2	5	5	1	2	1	0.07157	1	0.5	0	22	60	61	0
8-Apr-13	sub2301	2301	1	0	83	3	2	3	6	5	1	2	0	0.40296	0	0.5	0	23	82	83	0
8-Apr-13	sub2301	2301	1	0	84	3	2	6	4	5	0	2	0	0.48941	1	0.5	0	26	67	88	0
8-Apr-13	sub2301	2301	1	0	85	3	2	1	3	5	1	1	1	0.43553	1	0.5	0	21	60	61	0
8-Apr-13	sub2301	2301	1	0	86	3	2	3	6	5	1	1	1	0.07198	1	0.5	0	23	62	63	0
8-Apr-13	sub2301	2301	1	0	87	3	2	2	5	5	1	2	1	0.45236	1	0.5	0	22	60	61	0
8-Apr-13	sub2301	2301	1	0	88	3	2	1	3	5	1	1	1	0.01031	1	0.5	0	21	60	61	0
8-Apr-13	sub2301	2301	1	0	89	3	2	5	1	2	0	2	1	0.02381	0	0.5	0	25	87	68	0
8-Apr-13	sub2301	2301	1	0	90	3	2	3	6	5	1	1	1	0.03053	1	0.5	0	23	62	63	0
8-Apr-13	sub2301	2301	1	0	91	3	2	4	2	1	0	2	0	0.00915	1	0.5	0	24	64	89	0
8-Apr-13	sub2301	2301	1	0	92	3	2	5	1	2	0	2	1	0.02894	0	0.5	0	25	87	68	0
8-Apr-13	sub2301	2301	1	0	93	3	2	4	2	1	1	2	1	0.0185	1	0.5	0	24	62	63	0
8-Apr-13	sub2301	2301	1	0	94	3	2	6	4	5	1	1	0	0.02797	0	0.5	0	26	85	86	0
8-Apr-13	sub2301	2301	1	0	95	3	2	1	3	5	1	1	1	0.39937	1	0.5	0	21	60	61	0
8-Apr-13	sub2301	2301	1	0	96	3	2	4	2	1	1	2	1	0.04283	1	0.5	0	24	62	63	0
8-Apr-13	sub2301	2301	1	0	97	3	2	6	4	5	0	1	1	0.43263	0	0.5	0	26	87	68	0
8-Apr-13	sub2301	2301	1	0	98	3	2	4	2	1	0	2	0	0.00827	1	0.5	0	24	64	89	0
8-Apr-13	sub2301	2301	1	0	99	3	2	5	1	2	0	2	1	0.01481	0	0.5	0	25	87	68	0
8-Apr-13	sub2301	2301	1	0	100	3	2	4	2	1	1	2	1	0.47102	1	0.5	0	24	62	63	0
8-Apr-13	sub2301	2301	1	0	101	3	2	6	4	5	1	1	0	0.48346	0	0.4	1	26	85	51	0
8-Apr-13	sub2301	2301	1	0	102	3	2	2	5	5	1	1	0	0.45861	0	0.5	0	22	80	81	0
8-Apr-13	sub2301	2301	1	0	103	3	2	5	1	2	0	2	1	0.45299	0	0.5	0	25	87	68	0
8-Apr-13	sub2301	2301	1	0	104	3	2	1	3	5	1	1	1	0.47127	1	0.5	0	21	60	61	0
8-Apr-13	sub2301	2301	1	0	105	3	2	6	4	5	1	2	1	0.47602	1	0.5	0	26	65	66	0
8-Apr-13	sub2301	2301	1	0	106	3	2	6	4	5	1	2	1	0.45205	1	0.5	0	26	65	66	0
8-Apr-13	sub2301	2301	1	0	107	3	2	3	6	5	1	1	1	0.44656	1	0.5	0	23	62	63	0
8-Apr-13	sub2301	2301	1	0	108	3	2	1	3	5	1	1	1	0.35613	1	0.5	0	21	60	61	0
8-Apr-13	sub2301	2301	1	0	109	3	2	1	3	5	1	1	1	0.35406	1	0.5	0	21	60	61	0
8-Apr-13	sub2301	2301	1	0	110	3	2	3	6	5	1	2	0	0.47718	0	0.5	0	23	82	83	0
8-Apr-13	sub2301	2301	1	0	111	3	2	1	3	5	1	1	1	0.41943	1	0.5	0	21	60	61	0
8-Apr-13	sub2301	2301	1	0	112	3	2	4	2	1	1	2	1	0.07522	1	0.5	0	24	62	63	0
8-Apr-13	sub2301	2301	1	0	113	3	2	6	4	5	1	1	0	0.09472	0	0.5	0	26	85	86	0
8-Apr-13	sub2301	2301	1	0	114	3	2	5	1	2	0	2	1	0.48599	0	0.5	0	25	87	68	0
8-Apr-13	sub2301	2301	1	0	115	3	2	5	1	2	0	2	1	0.38648	0	0.5	0	25	87	68	0
8-Apr-13	sub2301	2301	1	0	116	3	2	4	2	1	1	2	1	0.02943	1	0.5	0	24	62	63	0
8-Apr-13	sub2301	2301	1	0	117	3	2	5	1	2	0	2	1	0.47888	0	0.5	0	25	87	68	0
8-Apr-13	sub2301	2301	1	0	118	3	2	4	2	1	1	2	1	0.46809	1	0.5	0	24	62	63	0
8-Apr-13	sub2301	2301	1	0	119	3	2	4	2	1	1	2	1	0.44885	1	0.5	0	24	62	63	0
8-Apr-13	sub2301	2301	1	0	120	3	2	1	3	5	1	1	1	0.35051	1	0.5	0	21	60	61	0
8-Apr-13	sub2301	2301	1	0	121	3	2	1	3	5	1	1	1	0.33744	1	0.5	0	21	60	61	0
8-Apr-13	sub2301	2301	1	0	122	3	2	5	1	2	0	2	1	0.49713	0	0.5	0	25	87	68	0
8-Apr-13	sub2301	2301	1	0	123	3	2	6	4	5	1	1	0	0.06959	0	0.5	0	26	85	86	0
8-Apr-13	sub2301	2301	1	0	124	3	2	2	5	5	1	2	1	0.0013	1	0.5	0	22	60	61	0
8-Apr-13	sub2301	2301	1	0	125	3	2	4	2	1	1	2	1	0.49117	1	0.5	0	24	62	63	0
8-Apr-13	sub2301	2301	1	0	126	3	2	6	4	5	0	2	0	0.03305	1	0.5	0	26	67	88	0
8-Apr-13	sub2301	2301	1	0	127	3	2	2	5	5	1	2	1	0.43755	1	0.5	0	22	60	61	0
8-Apr-13	sub2301	2301	1	0	128	3	2	3	6	5	1	1	1	0.09876	1	0.5	0	23	62	63	0
8-Apr-13	sub2301	2301	1	0	129	3	2	5	1	2	0	1	0	0.38377	1	0.5	0	25	67	88	0
8-Apr-13	sub2301	2301	1	0	130	3	2	4	2	1	1	1	0	0.41613	0	0.5	0	24	82	83	0
8-Apr-13	sub2301	2301	1	0	131	3	2	6	4	5	0	2	0	0.42646	1	0.5	0	26	67	88	0
8-Apr-13	sub2301	2301	1	0	132	3	2	3	6	5	1	1	1	0.04711	1	0.5	0	23	62	63	0
8-Apr-13	sub2301	2301	1	0	133	3	2	2	5	5	1	2	1	0.09495	1	0.5	0	22	60	61	0
8-Apr-13	sub2301	2301	1	0	134	3	2	5	1	2	0	2	1	0.03583	0	0.5	0	25	87	68	0
8-Apr-13	sub2301	2301	1	0	135	3	2	1	3	5	1	1	1	0.41568	1	0.4	1	21	60	51	0
8-Apr-13	sub2301	2301	1	0	136	3	2	5	1	2	0	2	1	0.05223	0	0.5	0	25	87	68	0
8-Apr-13	sub2301	2301	1	0	137	3	2	6	4	5	0	1	1	0.01393	0	0.5	0	26	87	68	0
8-Apr-13	sub2301	2301	1	0	138	3	2	1	3	5	1	1	1	0.44648	1	0.5	0	21	60	61	0
8-Apr-13	sub2301	2301	1	0	139	3	2	2	5	5	1	2	1	0.16343	1	0.5	0	22	60	61	0
8-Apr-13	sub2301	2301	1	0	140	3	2	2	5	5	1	2	1	0.45768	1	0.5	0	22	60	61	0
8-Apr-13	sub2301	2301	1	0	141	3	2	5	1	2	0	2	1	0.37001	0	0.5	0	25	87	68	0
8-Apr-13	sub2301	2301	1	0	142	3	2	2	5	5	1	2	1	0.40392	1	0.5	0	22	60	61	0
8-Apr-13	sub2301	2301	1	0	143	3	2	3	6	5	1	2	0	0.44769	0	0.5	0	23	82	83	0
8-Apr-13	sub2301	2301	1	0	144	3	2	5	1	2	0	2	1	0.47578	0	0.5	0	25	87	68	0
8-Apr-13	sub2301	2301	1	0	145	3	2	4	2	1	0	2	0	0.02826	1	0.5	0	24	64	89	0
8-Apr-13	sub2301	2301	1	0	146	3	2	3	6	5	1	2	0	0.49923	0	0.5	0	23	82	83	0
8-Apr-13	sub2301	2301	1	0	147	3	2	1	3	5	1	1	1	0.12735	1	0.5	0	21	60	61	0
8-Apr-13	sub2301	2301	1	0	148	3	2	4	2	1	1	2	1	0.03982	1	0.5	0	24	62	63	0
8-Apr-13	sub2301	2301	1	0	149	3	2	1	3	5	1	1	1	0.42249	1	0.5	0	21	60	61	0
8-Apr-13	sub2301	2301	1	0	150	3	2	6	4	5	0	1	1	0.40749	0	0.5	0	26	87	68	0
8-Apr-13	sub2301	2301	1	0	1	4	1	2	3	4	1	1	0	0.0052	0	0.6	0	12	40	41	0
8-Apr-13	sub2301	2301	1	0	2	4	1	3	6	6	0	2	1	0.06379	0	0.3	0	13	44	39	0
8-Apr-13	sub2301	2301	1	0	3	4	1	2	3	4	1	2	1	0.4163	1	0.3	1	12	30	51	0
8-Apr-13	sub2301	2301	1	0	4	4	1	3	6	6	1	2	0	0.36942	0	0.9	0	13	42	43	0
8-Apr-13	sub2301	2301	1	0	5	4	1	2	3	4	1	1	0	0.40133	0	0.9	0	12	40	41	0
8-Apr-13	sub2301	2301	1	0	6	4	1	1	2	5	1	2	0	0.06734	0	0.9	0	11	40	41	0
8-Apr-13	sub2301	2301	1	0	7	4	1	5	4	4	1	1	1	0.04953	1	0.9	0	15	35	36	0
8-Apr-13	sub2301	2301	1	0	8	4	1	5	4	4	1	1	1	0.45289	1	0.9	0	15	35	36	0
8-Apr-13	sub2301	2301	1	0	9	4	1	6	5	3	0	2	0	0.05154	1	0.9	0	16	37	48	0
8-Apr-13	sub2301	2301	1	0	10	4	1	6	5	3	1	1	0	0.4097	0	0.9	0	16	45	46	0
8-Apr-13	sub2301	2301	1	0	11	4	1	5	4	4	0	1	0	0.38826	1	0.9	0	15	37	48	0
8-Apr-13	sub2301	2301	1	0	12	4	1	6	5	3	0	1	1	0.3819	0	0.9	0	16	47	38	0
8-Apr-13	sub2301	2301	1	0	13	4	1	2	3	4	1	2	1	0.00265	1	0.9	0	12	30	31	0
8-Apr-13	sub2301	2301	1	0	14	4	1	2	3	4	1	2	1	0.37925	1	0.9	0	12	30	31	0
8-Apr-13	sub2301	2301	1	0	15	4	1	3	6	6	1	1	1	0.4095	1	0.9	0	13	32	33	0
8-Apr-13	sub2301	2301	1	0	16	4	1	1	2	5	1	2	0	0.08387	0	0.8	0	11	40	41	0
8-Apr-13	sub2301	2301	1	0	17	4	1	4	1	6	0	2	0	0.13642	1	0.8	0	14	34	49	0
8-Apr-13	sub2301	2301	1	0	18	4	1	4	1	6	1	1	0	0.45136	0	0.7	0	14	42	43	0
8-Apr-13	sub2301	2301	1	0	19	4	1	4	1	6	1	1	0	0.42411	0	0.7	0	14	42	43	0
8-Apr-13	sub2301	2301	1	0	20	4	1	3	6	6	1	1	1	0.15825	1	0.7	0	13	32	33	0
8-Apr-13	sub2301	2301	1	0	21	4	1	1	2	5	1	1	1	0.47933	1	0.6	0	11	30	31	0
8-Apr-13	sub2301	2301	1	0	22	4	1	4	1	6	1	2	1	0.01172	1	0.6	0	14	32	33	0
8-Apr-13	sub2301	2301	1	0	23	4	1	5	4	4	1	1	1	0.46521	1	0.6	0	15	35	36	0
8-Apr-13	sub2301	2301	1	0	24	4	1	2	3	4	1	2	1	0.06579	1	0.6	0	12	30	31	0
8-Apr-13	sub2301	2301	1	0	25	4	1	3	6	6	1	2	0	0.24291	0	0.6	0	13	42	43	0
8-Apr-13	sub2301	2301	1	0	26	4	1	6	5	3	1	2	1	0.29619	1	0.5	0	16	35	36	0
8-Apr-13	sub2301	2301	1	0	27	4	1	2	3	4	1	2	1	0.40757	1	0.5	0	12	30	31	0
8-Apr-13	sub2301	2301	1	0	28	4	1	2	3	4	1	2	1	0.36983	1	0.5	0	12	30	31	0
8-Apr-13	sub2301	2301	1	0	29	4	1	4	1	6	0	2	0	0.44345	1	0.5	0	14	34	49	0
8-Apr-13	sub2301	2301	1	0	30	4	1	3	6	6	0	1	0	0.10193	1	0.5	0	13	34	49	0
8-Apr-13	sub2301	2301	1	0	31	4	1	5	4	4	0	1	0	0.48344	1	0.5	0	15	37	48	0
8-Apr-13	sub2301	2301	1	0	32	4	1	4	1	6	1	2	1	0.04764	1	0.5	0	14	32	33	0
8-Apr-13	sub2301	2301	1	0	33	4	1	1	2	5	1	1	1	0.46483	1	0.5	0	11	30	31	0
8-Apr-13	sub2301	2301	1	0	34	4	1	3	6	6	1	2	0	0.09707	0	0.5	0	13	42	43	0
8-Apr-13	sub2301	2301	1	0	35	4	1	6	5	3	1	2	1	0.05422	1	0.4	0	16	35	36	0
8-Apr-13	sub2301	2301	1	0	36	4	1	3	6	6	1	1	1	0.03238	1	0.4	0	13	32	33	0
8-Apr-13	sub2301	2301	1	0	37	4	1	4	1	6	1	2	1	0.49458	1	0.4	1	14	32	51	0
8-Apr-13	sub2301	2301	1	0	38	4	1	1	2	5	1	2	0	0.44206	0	0.7	0	11	40	41	0
8-Apr-13	sub2301	2301	1	0	39	4	1	2	3	4	1	2	1	0.45651	1	0.7	0	12	30	31	0
8-Apr-13	sub2301	2301	1	0	40	4	1	2	3	4	1	2	1	0.48163	1	0.7	0	12	30	31	0
8-Apr-13	sub2301	2301	1	0	41	4	1	6	5	3	0	2	0	0.10882	1	0.6	0	16	37	48	0
8-Apr-13	sub2301	2301	1	0	42	4	1	5	4	4	1	1	1	0.04612	1	0.6	0	15	35	36	0
8-Apr-13	sub2301	2301	1	0	43	4	1	2	3	4	1	2	1	0.00214	1	0.6	0	12	30	31	0
8-Apr-13	sub2301	2301	1	0	44	4	1	6	5	3	1	1	0	0.0701	0	0.6	0	16	45	46	0
8-Apr-13	sub2301	2301	1	0	45	4	1	6	5	3	0	2	0	0.25927	1	0.6	0	16	37	48	0
8-Apr-13	sub2301	2301	1	0	46	4	1	4	1	6	1	2	1	0.03742	1	0.6	0	14	32	33	0
8-Apr-13	sub2301	2301	1	0	47	4	1	2	3	4	1	2	1	0.44505	1	0.6	0	12	30	31	0
8-Apr-13	sub2301	2301	1	0	48	4	1	1	2	5	1	1	1	0.0314	1	0.6	0	11	30	31	0
8-Apr-13	sub2301	2301	1	0	49	4	1	4	1	6	1	2	1	0.02899	1	0.6	0	14	32	33	0
8-Apr-13	sub2301	2301	1	0	50	4	1	3	6	6	1	1	1	0.1293	1	0.6	0	13	32	33	0
8-Apr-13	sub2301	2301	1	0	51	4	1	4	1	6	1	2	1	0.45156	1	0.5	0	14	32	33	0
8-Apr-13	sub2301	2301	1	0	52	4	1	1	2	5	1	1	1	0.40056	1	0.5	0	11	30	31	0
8-Apr-13	sub2301	2301	1	0	53	4	1	6	5	3	1	2	1	0.04561	1	0.5	0	16	35	36	0
8-Apr-13	sub2301	2301	1	0	54	4	1	5	4	4	0	2	1	0.45068	0	0.5	0	15	47	38	0
8-Apr-13	sub2301	2301	1	0	55	4	1	4	1	6	1	2	1	0.48121	1	0.5	0	14	32	33	0
8-Apr-13	sub2301	2301	1	0	56	4	1	6	5	3	1	1	0	0.47617	0	0.5	0	16	45	46	0
8-Apr-13	sub2301	2301	1	0	57	4	1	5	4	4	1	1	1	0.02388	1	0.5	0	15	35	36	0
8-Apr-13	sub2301	2301	1	0	58	4	1	4	1	6	1	1	0	0.49139	0	0.5	0	14	42	43	0
8-Apr-13	sub2301	2301	1	0	59	4	1	3	6	6	0	1	0	0.0223	1	0.5	0	13	34	49	0
8-Apr-13	sub2301	2301	1	0	60	4	1	2	3	4	1	2	1	0.44246	1	0.5	0	12	30	31	0
8-Apr-13	sub2301	2301	1	0	61	4	1	1	2	5	1	1	1	0.02616	1	0.5	0	11	30	31	0
8-Apr-13	sub2301	2301	1	0	62	4	1	3	6	6	1	2	0	0.03909	0	0.5	0	13	42	43	0
8-Apr-13	sub2301	2301	1	0	63	4	1	1	2	5	1	1	1	0.47107	1	0.5	0	11	30	31	0
8-Apr-13	sub2301	2301	1	0	64	4	1	5	4	4	1	1	1	0.01839	1	0.5	0	15	35	36	0
8-Apr-13	sub2301	2301	1	0	65	4	1	6	5	3	0	2	0	0.07036	1	0.5	0	16	37	48	0
8-Apr-13	sub2301	2301	1	0	66	4	1	1	2	5	1	1	1	0.48189	1	0.5	0	11	30	31	0
8-Apr-13	sub2301	2301	1	0	67	4	1	3	6	6	1	1	1	0.01626	1	0.5	0	13	32	33	0
8-Apr-13	sub2301	2301	1	0	68	4	1	5	4	4	1	1	1	0.04379	1	0.4	0	15	35	36	0
8-Apr-13	sub2301	2301	1	0	69	4	1	1	2	5	1	1	1	0.41994	1	0.4	1	11	30	51	0
8-Apr-13	sub2301	2301	1	0	70	4	1	5	4	4	0	1	0	0.47095	1	0.6	0	15	37	48	0
8-Apr-13	sub2301	2301	1	0	71	4	1	3	6	6	1	1	1	0.46487	1	0.6	0	13	32	33	0
8-Apr-13	sub2301	2301	1	0	72	4	1	5	4	4	0	1	0	0.404	1	0.6	0	15	37	48	0
8-Apr-13	sub2301	2301	1	0	73	4	1	6	5	3	0	1	1	0.38936	0	0.6	0	16	47	38	0
8-Apr-13	sub2301	2301	1	0	74	4	1	1	2	5	1	1	1	0.44798	1	0.6	0	11	30	31	0
8-Apr-13	sub2301	2301	1	0	75	4	1	6	5	3	0	2	0	0.00636	1	0.6	0	16	37	48	0
8-Apr-13	sub2301	2301	1	0	76	4	2	3	6	6	0	1	0	0.40369	1	0.5	0	23	64	89	0
8-Apr-13	sub2301	2301	1	0	77	4	2	3	6	6	1	1	1	0.38846	1	0.5	0	23	62	63	0
8-Apr-13	sub2301	2301	1	0	78	4	2	5	4	4	0	1	0	0.47084	1	0.5	0	25	67	88	0
8-Apr-13	sub2301	2301	1	0	79	4	2	6	5	3	0	1	1	0.41054	0	0.5	0	26	87	68	0
8-Apr-13	sub2301	2301	1	0	80	4	2	5	4	4	0	1	0	0.48234	1	0.5	0	25	67	88	0
8-Apr-13	sub2301	2301	1	0	81	4	2	2	3	4	1	2	1	0.49277	1	0.5	0	22	60	61	0
8-Apr-13	sub2301	2301	1	0	82	4	2	5	4	4	0	2	1	0.16999	0	0.5	0	25	87	68	0
8-Apr-13	sub2301	2301	1	0	83	4	2	6	5	3	1	2	1	0.11762	1	0.5	0	26	65	66	0
8-Apr-13	sub2301	2301	1	0	84	4	2	5	4	4	0	2	1	0.46669	0	0.5	0	25	87	68	0
8-Apr-13	sub2301	2301	1	0	85	4	2	1	2	5	1	1	1	0.45298	1	0.5	0	21	60	61	0
8-Apr-13	sub2301	2301	1	0	86	4	2	4	1	6	1	2	1	0.04165	1	0.5	0	24	62	63	0
8-Apr-13	sub2301	2301	1	0	87	4	2	1	2	5	1	1	1	0.03563	1	0.5	0	21	60	61	0
8-Apr-13	sub2301	2301	1	0	88	4	2	6	5	3	1	2	1	0.41547	1	0.5	0	26	65	66	0
8-Apr-13	sub2301	2301	1	0	89	4	2	2	3	4	1	2	1	0.35645	1	0.5	0	22	60	61	0
8-Apr-13	sub2301	2301	1	0	90	4	2	6	5	3	1	2	1	0.39203	1	0.5	0	26	65	66	0
8-Apr-13	sub2301	2301	1	0	91	4	2	1	2	5	1	1	1	0.41814	1	0.5	0	21	60	61	0
8-Apr-13	sub2301	2301	1	0	92	4	2	6	5	3	1	2	1	0.39307	1	0.5	0	26	65	66	0
8-Apr-13	sub2301	2301	1	0	93	4	2	2	3	4	1	2	1	0.37655	1	0.5	0	22	60	61	0
8-Apr-13	sub2301	2301	1	0	94	4	2	4	1	6	1	2	1	0.37967	1	0.5	0	24	62	63	0
8-Apr-13	sub2301	2301	1	0	95	4	2	4	1	6	1	2	1	0.37321	1	0.5	0	24	62	63	0
8-Apr-13	sub2301	2301	1	0	96	4	2	5	4	4	0	2	1	0.03577	0	0.5	0	25	87	68	0
8-Apr-13	sub2301	2301	1	0	97	4	2	4	1	6	1	2	1	0.43033	1	0.5	0	24	62	63	0
8-Apr-13	sub2301	2301	1	0	98	4	2	6	5	3	0	2	0	0.38252	1	0.5	0	26	67	88	0
8-Apr-13	sub2301	2301	1	0	99	4	2	3	6	6	1	1	1	0.07968	1	0.5	0	23	62	63	0
8-Apr-13	sub2301	2301	1	0	100	4	2	2	3	4	1	2	1	0.04257	1	0.5	0	22	60	61	0
8-Apr-13	sub2301	2301	1	0	101	4	2	5	4	4	0	2	1	0.39759	0	0.4	0	25	87	68	0
8-Apr-13	sub2301	2301	1	0	102	4	2	3	6	6	1	1	1	0.47496	1	0.4	1	23	62	51	0
8-Apr-13	sub2301	2301	1	0	103	4	2	5	4	4	0	1	0	0.01338	1	0.5	0	25	67	88	0
8-Apr-13	sub2301	2301	1	0	104	4	2	1	2	5	1	1	1	0.48511	1	0.5	0	21	60	61	0
8-Apr-13	sub2301	2301	1	0	105	4	2	2	3	4	1	2	1	0.40718	1	0.5	0	22	60	61	0
8-Apr-13	sub2301	2301	1	0	106	4	2	1	2	5	1	2	0	0.35874	0	0.5	0	21	80	81	0
8-Apr-13	sub2301	2301	1	0	107	4	2	1	2	5	1	1	1	0.44306	1	0.5	0	21	60	61	0
8-Apr-13	sub2301	2301	1	0	108	4	2	4	1	6	1	2	1	0.46445	1	0.5	0	24	62	63	0
8-Apr-13	sub2301	2301	1	0	109	4	2	1	2	5	1	2	0	0.4668	0	0.5	0	21	80	81	0
8-Apr-13	sub2301	2301	1	0	110	4	2	5	4	4	0	2	1	0.45113	0	0.5	0	25	87	68	0
8-Apr-13	sub2301	2301	1	0	111	4	2	3	6	6	1	2	0	0.49853	0	0.5	0	23	82	83	0
8-Apr-13	sub2301	2301	1	0	112	4	2	2	3	4	1	2	1	0.38274	1	0.5	0	22	60	61	0
8-Apr-13	sub2301	2301	1	0	113	4	2	6	5	3	1	2	1	0.44869	1	0.5	0	26	65	66	0
8-Apr-13	sub2301	2301	1	0	114	4	2	1	2	5	1	1	1	0.03131	1	0.5	0	21	60	61	0
8-Apr-13	sub2301	2301	1	0	115	4	2	5	4	4	0	2	1	0.42294	0	0.5	0	25	87	68	0
8-Apr-13	sub2301	2301	1	0	116	4	2	4	1	6	0	2	0	0.49221	1	0.5	0	24	64	89	0
8-Apr-13	sub2301	2301	1	0	117	4	2	3	6	6	1	1	1	0.02773	1	0.5	0	23	62	63	0
8-Apr-13	sub2301	2301	1	0	118	4	2	4	1	6	1	2	1	0.12277	1	0.5	0	24	62	63	0
8-Apr-13	sub2301	2301	1	0	119	4	2	4	1	6	1	2	1	0.43636	1	0.5	0	24	62	63	0
8-Apr-13	sub2301	2301	1	0	120	4	2	3	6	6	1	1	1	0.46462	1	0.5	0	23	62	63	0
8-Apr-13	sub2301	2301	1	0	121	4	2	3	6	6	1	1	1	0.44832	1	0.5	0	23	62	63	0
8-Apr-13	sub2301	2301	1	0	122	4	2	4	1	6	1	2	1	0.44117	1	0.5	0	24	62	63	0
8-Apr-13	sub2301	2301	1	0	123	4	2	3	6	6	1	1	1	0.43223	1	0.5	0	23	62	63	0
8-Apr-13	sub2301	2301	1	0	124	4	2	3	6	6	1	1	1	0.11902	1	0.5	0	23	62	63	0
8-Apr-13	sub2301	2301	1	0	125	4	2	4	1	6	0	2	0	0.21796	1	0.5	0	24	64	89	0
8-Apr-13	sub2301	2301	1	0	126	4	2	6	5	3	0	2	0	0.05902	1	0.5	0	26	67	88	0
8-Apr-13	sub2301	2301	1	0	127	4	2	2	3	4	1	2	1	0.3749	1	0.5	0	22	60	61	0
8-Apr-13	sub2301	2301	1	0	128	4	2	6	5	3	0	2	0	0.48849	1	0.5	0	26	67	88	0
8-Apr-13	sub2301	2301	1	0	129	4	2	5	4	4	0	2	1	0.40582	0	0.5	0	25	87	68	0
8-Apr-13	sub2301	2301	1	0	130	4	2	1	2	5	1	1	1	0.455	1	0.5	0	21	60	61	0
8-Apr-13	sub2301	2301	1	0	131	4	2	3	6	6	1	1	1	0.11226	1	0.5	0	23	62	63	0
8-Apr-13	sub2301	2301	1	0	132	4	2	2	3	4	1	2	1	0.47899	1	0.5	0	22	60	61	0
8-Apr-13	sub2301	2301	1	0	133	4	2	2	3	4	1	2	1	0.36014	1	0.5	0	22	60	61	0
8-Apr-13	sub2301	2301	1	0	134	4	2	6	5	3	0	2	0	0.41903	1	0.5	0	26	67	88	0
8-Apr-13	sub2301	2301	1	0	135	4	2	1	2	5	1	1	1	0.41105	1	0.4	1	21	60	51	0
8-Apr-13	sub2301	2301	1	0	136	4	2	1	2	5	1	1	1	0.28382	1	0.5	0	21	60	61	0
8-Apr-13	sub2301	2301	1	0	137	4	2	6	5	3	0	1	1	0.39879	0	0.5	0	26	87	68	0
8-Apr-13	sub2301	2301	1	0	138	4	2	2	3	4	1	2	1	0.39622	1	0.5	0	22	60	61	0
8-Apr-13	sub2301	2301	1	0	139	4	2	1	2	5	1	1	1	0.48918	1	0.5	0	21	60	61	0
8-Apr-13	sub2301	2301	1	0	140	4	2	4	1	6	0	2	0	0.39407	1	0.5	0	24	64	89	0
8-Apr-13	sub2301	2301	1	0	141	4	2	4	1	6	1	2	1	0.3675	1	0.5	0	24	62	63	0
8-Apr-13	sub2301	2301	1	0	142	4	2	5	4	4	0	1	0	0.04507	1	0.5	0	25	67	88	0
8-Apr-13	sub2301	2301	1	0	143	4	2	3	6	6	0	1	0	0.01126	1	0.5	0	23	64	89	0
8-Apr-13	sub2301	2301	1	0	144	4	2	4	1	6	1	2	1	0.03612	1	0.5	0	24	62	63	0
8-Apr-13	sub2301	2301	1	0	145	4	2	2	3	4	1	2	1	0.39263	1	0.5	0	22	60	61	0
8-Apr-13	sub2301	2301	1	0	146	4	2	6	5	3	1	2	1	0.44641	1	0.5	0	26	65	66	0
8-Apr-13	sub2301	2301	1	0	147	4	2	2	3	4	1	2	1	0.40176	1	0.5	0	22	60	61	0
8-Apr-13	sub2301	2301	1	0	148	4	2	5	4	4	0	2	1	0.35076	0	0.5	0	25	87	68	0
8-Apr-13	sub2301	2301	1	0	149	4	2	5	4	4	0	2	1	0.37148	0	0.5	0	25	87	68	0
8-Apr-13	sub2301	2301	1	0	150	4	2	1	2	5	1	1	1	0.42505	1	0.5	0	21	60	61	0
8-Apr-13	sub2301	2301	1	0	1	5	1	4	6	2	1	2	1	0.35732	1	0.6	0	14	32	33	0
8-Apr-13	sub2301	2301	1	0	2	5	1	3	4	3	0	2	1	0.46091	0	0.3	1	13	44	51	0
8-Apr-13	sub2301	2301	1	0	3	5	1	2	2	4	1	2	1	0.39368	1	0.9	0	12	30	31	0
8-Apr-13	sub2301	2301	1	0	4	5	1	3	4	3	0	2	1	0.00681	0	0.9	0	13	44	39	0
8-Apr-13	sub2301	2301	1	0	5	5	1	2	2	4	1	2	1	0.44781	1	0.9	0	12	30	31	0
8-Apr-13	sub2301	2301	1	0	6	5	1	1	3	3	1	2	0	0.00289	0	0.9	0	11	40	41	0
8-Apr-13	sub2301	2301	1	0	7	5	1	4	6	2	1	2	1	0.02454	1	0.9	0	14	32	33	0
8-Apr-13	sub2301	2301	1	0	8	5	1	5	5	2	1	2	0	0.0886	0	0.9	0	15	45	46	0
8-Apr-13	sub2301	2301	1	0	9	5	1	6	1	4	1	2	1	0.03297	1	0.9	0	16	35	36	0
8-Apr-13	sub2301	2301	1	0	10	5	1	5	5	2	1	1	1	0.06079	1	0.9	0	15	35	36	0
8-Apr-13	sub2301	2301	1	0	11	5	1	1	3	3	1	1	1	0.4527	1	0.9	0	11	30	31	0
8-Apr-13	sub2301	2301	1	0	12	5	1	3	4	3	1	1	1	0.40216	1	0.9	0	13	32	33	0
8-Apr-13	sub2301	2301	1	0	13	5	1	6	1	4	0	2	0	0.0268	1	0.9	0	16	37	48	0
8-Apr-13	sub2301	2301	1	0	14	5	1	3	4	3	1	2	0	0.02391	0	0.9	0	13	42	43	0
8-Apr-13	sub2301	2301	1	0	15	5	1	6	1	4	1	2	1	0.48683	1	0.9	0	16	35	36	0
8-Apr-13	sub2301	2301	1	0	16	5	1	2	2	4	1	1	0	0.48375	0	0.8	0	12	40	41	0
8-Apr-13	sub2301	2301	1	0	17	5	1	4	6	2	1	2	1	0.45286	1	0.8	0	14	32	33	0
8-Apr-13	sub2301	2301	1	0	18	5	1	5	5	2	0	2	1	0.46118	0	0.7	0	15	47	38	0
8-Apr-13	sub2301	2301	1	0	19	5	1	5	5	2	1	2	0	0.40464	0	0.7	0	15	45	46	0
8-Apr-13	sub2301	2301	1	0	20	5	1	1	3	3	1	1	1	0.45025	1	0.7	0	11	30	31	0
8-Apr-13	sub2301	2301	1	0	21	5	1	2	2	4	1	2	1	0.02337	1	0.6	0	12	30	31	0
8-Apr-13	sub2301	2301	1	0	22	5	1	1	3	3	1	1	1	0.01769	1	0.6	0	11	30	31	0
8-Apr-13	sub2301	2301	1	0	23	5	1	6	1	4	1	2	1	0.02276	1	0.6	0	16	35	36	0
8-Apr-13	sub2301	2301	1	0	24	5	1	5	5	2	0	2	1	0.11103	0	0.6	0	15	47	38	0
8-Apr-13	sub2301	2301	1	0	25	5	1	2	2	4	1	2	1	0.43737	1	0.6	0	12	30	31	0
8-Apr-13	sub2301	2301	1	0	26	5	1	6	1	4	1	2	1	0.42618	1	0.5	0	16	35	36	0
8-Apr-13	sub2301	2301	1	0	27	5	1	6	1	4	0	2	0	0.41379	1	0.5	0	16	37	48	0
8-Apr-13	sub2301	2301	1	0	28	5	1	2	2	4	1	2	1	0.40975	1	0.5	0	12	30	31	0
8-Apr-13	sub2301	2301	1	0	29	5	1	2	2	4	1	2	1	0.3941	1	0.5	0	12	30	31	0
8-Apr-13	sub2301	2301	1	0	30	5	1	3	4	3	1	2	0	0.00295	0	0.5	0	13	42	43	0
8-Apr-13	sub2301	2301	1	0	31	5	1	2	2	4	1	2	1	0.4197	1	0.5	0	12	30	31	0
8-Apr-13	sub2301	2301	1	0	32	5	1	1	3	3	1	2	0	0.38059	0	0.5	0	11	40	41	0
8-Apr-13	sub2301	2301	1	0	33	5	1	4	6	2	1	2	1	0.45601	1	0.5	0	14	32	33	0
8-Apr-13	sub2301	2301	1	0	34	5	1	2	2	4	1	2	1	0.46127	1	0.5	0	12	30	31	0
8-Apr-13	sub2301	2301	1	0	35	5	1	4	6	2	1	2	1	0.49298	1	0.4	1	14	32	51	0
8-Apr-13	sub2301	2301	1	0	36	5	1	5	5	2	0	2	1	0.39967	0	0.7	0	15	47	38	0
8-Apr-13	sub2301	2301	1	0	37	5	1	3	4	3	0	2	1	0.09135	0	0.7	0	13	44	39	0
8-Apr-13	sub2301	2301	1	0	38	5	1	2	2	4	1	2	1	0.49537	1	0.7	0	12	30	31	0
8-Apr-13	sub2301	2301	1	0	39	5	1	2	2	4	1	2	1	0.37914	1	0.7	0	12	30	31	0
8-Apr-13	sub2301	2301	1	0	40	5	1	1	3	3	1	1	1	0.06383	1	0.7	0	11	30	31	0
8-Apr-13	sub2301	2301	1	0	41	5	1	3	4	3	1	2	0	0.4811	0	0.6	0	13	42	43	0
8-Apr-13	sub2301	2301	1	0	42	5	1	5	5	2	0	2	1	0.45538	0	0.6	0	15	47	38	0
8-Apr-13	sub2301	2301	1	0	43	5	1	4	6	2	1	2	1	0.47264	1	0.6	0	14	32	33	0
8-Apr-13	sub2301	2301	1	0	44	5	1	3	4	3	1	2	0	0.01185	0	0.6	0	13	42	43	0
8-Apr-13	sub2301	2301	1	0	45	5	1	6	1	4	1	2	1	0.47497	1	0.6	0	16	35	36	0
8-Apr-13	sub2301	2301	1	0	46	5	1	2	2	4	1	2	1	0.46326	1	0.6	0	12	30	31	0
8-Apr-13	sub2301	2301	1	0	47	5	1	1	3	3	1	1	1	0.43809	1	0.6	0	11	30	31	0
8-Apr-13	sub2301	2301	1	0	48	5	1	6	1	4	0	2	0	0.45579	1	0.6	0	16	37	48	0
8-Apr-13	sub2301	2301	1	0	49	5	1	3	4	3	1	1	1	0.41297	1	0.6	0	13	32	33	0
8-Apr-13	sub2301	2301	1	0	50	5	1	4	6	2	1	2	1	0.41507	1	0.6	0	14	32	33	0
8-Apr-13	sub2301	2301	1	0	51	5	1	1	3	3	1	1	1	0.46237	1	0.5	0	11	30	31	0
8-Apr-13	sub2301	2301	1	0	52	5	1	6	1	4	0	2	0	0.0342	1	0.5	0	16	37	48	0
8-Apr-13	sub2301	2301	1	0	53	5	1	1	3	3	1	1	1	0.02208	1	0.5	0	11	30	31	0
8-Apr-13	sub2301	2301	1	0	54	5	1	6	1	4	0	2	0	0.48098	1	0.5	0	16	37	48	0
8-Apr-13	sub2301	2301	1	0	55	5	1	4	6	2	0	2	0	0.03322	1	0.5	0	14	34	49	0
8-Apr-13	sub2301	2301	1	0	56	5	1	2	2	4	1	2	1	0.49951	1	0.5	0	12	30	31	0
8-Apr-13	sub2301	2301	1	0	57	5	1	3	4	3	1	1	1	0.36717	1	0.5	0	13	32	33	0
8-Apr-13	sub2301	2301	1	0	58	5	1	5	5	2	1	1	1	0.42226	1	0.5	0	15	35	36	0
8-Apr-13	sub2301	2301	1	0	59	5	1	5	5	2	1	1	1	0.47208	1	0.5	0	15	35	36	0
8-Apr-13	sub2301	2301	1	0	60	5	1	5	5	2	1	1	1	0.38536	1	0.5	0	15	35	36	0
8-Apr-13	sub2301	2301	1	0	61	5	1	5	5	2	1	1	1	0.35371	1	0.5	0	15	35	36	0
8-Apr-13	sub2301	2301	1	0	62	5	1	4	6	2	1	2	1	0.44744	1	0.5	0	14	32	33	0
8-Apr-13	sub2301	2301	1	0	63	5	1	3	4	3	1	2	0	0.42901	0	0.5	0	13	42	43	0
8-Apr-13	sub2301	2301	1	0	64	5	1	3	4	3	1	1	1	0.10044	1	0.5	0	13	32	33	0
8-Apr-13	sub2301	2301	1	0	65	5	1	6	1	4	0	2	0	0.02637	1	0.5	0	16	37	48	0
8-Apr-13	sub2301	2301	1	0	66	5	1	1	3	3	1	1	1	0.46668	1	0.5	0	11	30	31	0
8-Apr-13	sub2301	2301	1	0	67	5	1	1	3	3	1	1	1	0.48735	1	0.5	0	11	30	31	0
8-Apr-13	sub2301	2301	1	0	68	5	1	4	6	2	1	1	0	0.40182	0	0.4	1	14	42	51	0
8-Apr-13	sub2301	2301	1	0	69	5	1	1	3	3	1	1	1	0.41652	1	0.6	0	11	30	31	0
8-Apr-13	sub2301	2301	1	0	70	5	1	4	6	2	0	1	1	0.38506	0	0.6	0	14	44	39	0
8-Apr-13	sub2301	2301	1	0	71	5	1	5	5	2	0	1	0	0.46753	1	0.6	0	15	37	48	0
8-Apr-13	sub2301	2301	1	0	72	5	1	6	1	4	0	1	1	0.13931	0	0.6	0	16	47	38	0
8-Apr-13	sub2301	2301	1	0	73	5	1	4	6	2	1	2	1	0.14583	1	0.6	0	14	32	33	0
8-Apr-13	sub2301	2301	1	0	74	5	1	6	1	4	0	2	0	0.425	1	0.6	0	16	37	48	0
8-Apr-13	sub2301	2301	1	0	75	5	1	3	4	3	1	1	1	0.45728	1	0.6	0	13	32	33	0
8-Apr-13	sub2301	2301	1	0	76	5	2	5	5	2	0	1	0	0.4635	1	0.5	0	25	67	88	0
8-Apr-13	sub2301	2301	1	0	77	5	2	2	2	4	1	2	1	0.02712	1	0.5	0	22	60	61	0
8-Apr-13	sub2301	2301	1	0	78	5	2	6	1	4	0	2	0	0.05492	1	0.5	0	26	67	88	0
8-Apr-13	sub2301	2301	1	0	79	5	2	1	3	3	1	1	1	0.45453	1	0.5	0	21	60	61	0
8-Apr-13	sub2301	2301	1	0	80	5	2	6	1	4	0	1	1	0.01732	0	0.5	0	26	87	68	0
8-Apr-13	sub2301	2301	1	0	81	5	2	5	5	2	0	1	0	0.09814	1	0.5	0	25	67	88	0
8-Apr-13	sub2301	2301	1	0	82	5	2	1	3	3	1	1	1	0.02444	1	0.5	0	21	60	61	0
8-Apr-13	sub2301	2301	1	0	83	5	2	5	5	2	0	1	0	0.45769	1	0.5	0	25	67	88	0
8-Apr-13	sub2301	2301	1	0	84	5	2	1	3	3	1	1	1	0.02467	1	0.5	0	21	60	61	0
8-Apr-13	sub2301	2301	1	0	85	5	2	1	3	3	1	1	1	0.40751	1	0.5	0	21	60	61	0
8-Apr-13	sub2301	2301	1	0	86	5	2	5	5	2	0	1	0	0.48722	1	0.5	0	25	67	88	0
8-Apr-13	sub2301	2301	1	0	87	5	2	2	2	4	1	2	1	0.42151	1	0.5	0	22	60	61	0
8-Apr-13	sub2301	2301	1	0	88	5	2	2	2	4	1	2	1	0.08774	1	0.5	0	22	60	61	0
8-Apr-13	sub2301	2301	1	0	89	5	2	3	4	3	1	1	1	0.10389	1	0.5	0	23	62	63	0
8-Apr-13	sub2301	2301	1	0	90	5	2	2	2	4	1	2	1	0.47672	1	0.5	0	22	60	61	0
8-Apr-13	sub2301	2301	1	0	91	5	2	3	4	3	1	1	1	0.00524	1	0.5	0	23	62	63	0
8-Apr-13	sub2301	2301	1	0	92	5	2	3	4	3	0	1	0	0.42191	1	0.5	0	23	64	89	0
8-Apr-13	sub2301	2301	1	0	93	5	2	3	4	3	1	1	1	0.3908	1	0.5	0	23	62	63	0
8-Apr-13	sub2301	2301	1	0	94	5	2	5	5	2	0	1	0	0.40822	1	0.5	0	25	67	88	0
8-Apr-13	sub2301	2301	1	0	95	5	2	2	2	4	1	2	1	0.44894	1	0.5	0	22	60	61	0
8-Apr-13	sub2301	2301	1	0	96	5	2	5	5	2	0	2	1	0.46662	0	0.5	0	25	87	68	0
8-Apr-13	sub2301	2301	1	0	97	5	2	3	4	3	1	1	1	0.10279	1	0.5	0	23	62	63	0
8-Apr-13	sub2301	2301	1	0	98	5	2	4	6	2	1	2	1	0.04187	1	0.5	0	24	62	63	0
8-Apr-13	sub2301	2301	1	0	99	5	2	4	6	2	1	2	1	0.43882	1	0.5	0	24	62	63	0
8-Apr-13	sub2301	2301	1	0	100	5	2	6	1	4	0	2	0	0.07717	1	0.5	0	26	67	88	0
8-Apr-13	sub2301	2301	1	0	101	5	2	3	4	3	1	1	1	0.02997	1	0.4	0	23	62	63	0
8-Apr-13	sub2301	2301	1	0	102	5	2	6	1	4	1	0	0	0	0	0.4	1	26	0	51	0
8-Apr-13	sub2301	2301	1	0	103	5	2	5	5	2	0	1	0	0.41441	1	0.5	0	25	67	88	0
8-Apr-13	sub2301	2301	1	0	104	5	2	2	2	4	1	2	1	0.48968	1	0.5	0	22	60	61	0
8-Apr-13	sub2301	2301	1	0	105	5	2	3	4	3	1	1	1	0.00118	1	0.5	0	23	62	63	0
8-Apr-13	sub2301	2301	1	0	106	5	2	4	6	2	0	2	0	0.00927	1	0.5	0	24	64	89	0
8-Apr-13	sub2301	2301	1	0	107	5	2	3	4	3	0	1	0	0.47029	1	0.5	0	23	64	89	0
8-Apr-13	sub2301	2301	1	0	108	5	2	4	6	2	1	2	1	0.04038	1	0.5	0	24	62	63	0
8-Apr-13	sub2301	2301	1	0	109	5	2	5	5	2	0	2	1	0.05753	0	0.5	0	25	87	68	0
8-Apr-13	sub2301	2301	1	0	110	5	2	1	3	3	1	1	1	0.49351	1	0.5	0	21	60	61	0
8-Apr-13	sub2301	2301	1	0	111	5	2	4	6	2	1	2	1	0.20082	1	0.5	0	24	62	63	0
8-Apr-13	sub2301	2301	1	0	112	5	2	4	6	2	1	2	1	0.45143	1	0.5	0	24	62	63	0
8-Apr-13	sub2301	2301	1	0	113	5	2	4	6	2	0	2	0	0.42341	1	0.5	0	24	64	89	0
8-Apr-13	sub2301	2301	1	0	114	5	2	4	6	2	1	2	1	0.45952	1	0.5	0	24	62	63	0
8-Apr-13	sub2301	2301	1	0	115	5	2	3	4	3	1	1	1	0.08253	1	0.5	0	23	62	63	0
8-Apr-13	sub2301	2301	1	0	116	5	2	4	6	2	1	2	1	0.01978	1	0.5	0	24	62	63	0
8-Apr-13	sub2301	2301	1	0	117	5	2	6	1	4	1	2	1	0.4859	1	0.5	0	26	65	66	0
8-Apr-13	sub2301	2301	1	0	118	5	2	4	6	2	1	2	1	0.4537	1	0.5	0	24	62	63	0
8-Apr-13	sub2301	2301	1	0	119	5	2	4	6	2	1	2	1	0.46844	1	0.5	0	24	62	63	0
8-Apr-13	sub2301	2301	1	0	120	5	2	1	3	3	1	1	1	0.03564	1	0.5	0	21	60	61	0
8-Apr-13	sub2301	2301	1	0	121	5	2	5	5	2	0	2	1	0.01634	0	0.5	0	25	87	68	0
8-Apr-13	sub2301	2301	1	0	122	5	2	4	6	2	1	2	1	0.41424	1	0.5	0	24	62	63	0
8-Apr-13	sub2301	2301	1	0	123	5	2	2	2	4	1	2	1	0.00676	1	0.5	0	22	60	61	0
8-Apr-13	sub2301	2301	1	0	124	5	2	2	2	4	1	2	1	0.43383	1	0.5	0	22	60	61	0
8-Apr-13	sub2301	2301	1	0	125	5	2	3	4	3	1	1	1	0.03334	1	0.5	0	23	62	63	0
8-Apr-13	sub2301	2301	1	0	126	5	2	2	2	4	1	2	1	0.03851	1	0.5	0	22	60	61	0
8-Apr-13	sub2301	2301	1	0	127	5	2	3	4	3	1	1	1	0.07083	1	0.5	0	23	62	63	0
8-Apr-13	sub2301	2301	1	0	128	5	2	5	5	2	0	2	1	0.04923	0	0.5	0	25	87	68	0
8-Apr-13	sub2301	2301	1	0	129	5	2	2	2	4	1	2	1	0.4522	1	0.5	0	22	60	61	0
8-Apr-13	sub2301	2301	1	0	130	5	2	2	2	4	1	2	1	0.4482	1	0.5	0	22	60	61	0
8-Apr-13	sub2301	2301	1	0	131	5	2	5	5	2	0	2	1	0.02111	0	0.5	0	25	87	68	0
8-Apr-13	sub2301	2301	1	0	132	5	2	1	3	3	1	1	1	0.02579	1	0.5	0	21	60	61	0
8-Apr-13	sub2301	2301	1	0	133	5	2	5	5	2	0	2	1	0.02648	0	0.5	0	25	87	68	0
8-Apr-13	sub2301	2301	1	0	134	5	2	6	1	4	0	2	0	0.01084	1	0.5	0	26	67	88	0
8-Apr-13	sub2301	2301	1	0	135	5	2	4	6	2	0	2	0	0.49243	1	0.4	1	24	64	51	0
8-Apr-13	sub2301	2301	1	0	136	5	2	6	1	4	1	2	1	0.41141	1	0.5	0	26	65	66	0
8-Apr-13	sub2301	2301	1	0	137	5	2	6	1	4	0	2	0	0.39378	1	0.5	0	26	67	88	0
8-Apr-13	sub2301	2301	1	0	138	5	2	2	2	4	1	2	1	0.47905	1	0.5	0	22	60	61	0
8-Apr-13	sub2301	2301	1	0	139	5	2	6	1	4	1	1	0	0.05518	0	0.5	0	26	85	86	0
8-Apr-13	sub2301	2301	1	0	140	5	2	6	1	4	0	1	1	0.36816	0	0.5	0	26	87	68	0
8-Apr-13	sub2301	2301	1	0	141	5	2	5	5	2	0	2	1	0.10149	0	0.5	0	25	87	68	0
8-Apr-13	sub2301	2301	1	0	142	5	2	1	3	3	1	1	1	0.0105	1	0.5	0	21	60	61	0
8-Apr-13	sub2301	2301	1	0	143	5	2	1	3	3	1	1	1	0.0245	1	0.5	0	21	60	61	0
8-Apr-13	sub2301	2301	1	0	144	5	2	1	3	3	1	1	1	0.41784	1	0.5	0	21	60	61	0
8-Apr-13	sub2301	2301	1	0	145	5	2	3	4	3	1	1	1	0.02979	1	0.5	0	23	62	63	0
8-Apr-13	sub2301	2301	1	0	146	5	2	1	3	3	1	1	1	0.46389	1	0.5	0	21	60	61	0
8-Apr-13	sub2301	2301	1	0	147	5	2	6	1	4	1	2	1	0.05585	1	0.5	0	26	65	66	0
8-Apr-13	sub2301	2301	1	0	148	5	2	1	3	3	1	1	1	0.05559	1	0.5	0	21	60	61	0
8-Apr-13	sub2301	2301	1	0	149	5	2	6	1	4	1	2	1	0.01443	1	0.5	0	26	65	66	0
8-Apr-13	sub2301	2301	1	0	150	5	2	1	3	3	1	1	1	0.01571	1	0.5	0	21	60	61	0
8-Apr-13	sub2301	2301	1	0	1	6	1	2	1	5	1	2	1	0.1648	1	0.6	0	12	30	31	0
8-Apr-13	sub2301	2301	1	0	2	6	1	5	2	3	0	2	1	0.4768	0	0.3	1	15	47	51	0
8-Apr-13	sub2301	2301	1	0	3	6	1	2	1	5	1	2	1	0.44742	1	0.9	0	12	30	31	0
8-Apr-13	sub2301	2301	1	0	4	6	1	3	6	4	1	1	1	0.10649	1	0.9	0	13	32	33	0
8-Apr-13	sub2301	2301	1	0	5	6	1	4	5	4	1	1	0	0.0419	0	0.9	0	14	42	43	0
8-Apr-13	sub2301	2301	1	0	6	6	1	5	2	3	1	2	0	0.46495	0	0.9	0	15	45	46	0
8-Apr-13	sub2301	2301	1	0	7	6	1	4	5	4	1	1	0	0.42282	0	0.9	0	14	42	43	0
8-Apr-13	sub2301	2301	1	0	8	6	1	3	6	4	1	1	1	0.05319	1	0.9	0	13	32	33	0
8-Apr-13	sub2301	2301	1	0	9	6	1	1	4	1	1	1	1	0.17228	1	0.9	0	11	30	31	0
8-Apr-13	sub2301	2301	1	0	10	6	1	1	4	1	1	1	1	0.35795	1	0.9	0	11	30	31	0
8-Apr-13	sub2301	2301	1	0	11	6	1	5	2	3	1	1	1	0.49587	1	0.9	0	15	35	36	0
8-Apr-13	sub2301	2301	1	0	12	6	1	1	4	1	1	1	1	0.41008	1	0.9	0	11	30	31	0
8-Apr-13	sub2301	2301	1	0	13	6	1	3	6	4	1	1	1	0.47576	1	0.9	0	13	32	33	0
8-Apr-13	sub2301	2301	1	0	14	6	1	5	2	3	0	1	0	0.42402	1	0.9	0	15	37	48	0
8-Apr-13	sub2301	2301	1	0	15	6	1	5	2	3	1	1	1	0.43742	1	0.9	0	15	35	36	0
8-Apr-13	sub2301	2301	1	0	16	6	1	3	6	4	1	2	0	0.07769	0	0.8	0	13	42	43	0
8-Apr-13	sub2301	2301	1	0	17	6	1	2	1	5	1	2	1	0.4271	1	0.8	0	12	30	31	0
8-Apr-13	sub2301	2301	1	0	18	6	1	4	5	4	1	2	1	0.12429	1	0.7	0	14	32	33	0
8-Apr-13	sub2301	2301	1	0	19	6	1	4	5	4	0	2	0	0.11705	1	0.7	0	14	34	49	0
8-Apr-13	sub2301	2301	1	0	20	6	1	4	5	4	1	2	1	0.38281	1	0.7	0	14	32	33	0
8-Apr-13	sub2301	2301	1	0	21	6	1	5	2	3	0	1	0	0.4724	1	0.6	0	15	37	48	0
8-Apr-13	sub2301	2301	1	0	22	6	1	6	3	1	0	1	1	0.46252	0	0.6	0	16	47	38	0
8-Apr-13	sub2301	2301	1	0	23	6	1	1	4	1	1	1	1	0.44457	1	0.6	0	11	30	31	0
8-Apr-13	sub2301	2301	1	0	24	6	1	6	3	1	1	1	0	0.43125	0	0.6	0	16	45	46	0
8-Apr-13	sub2301	2301	1	0	25	6	1	5	2	3	1	1	1	0.43488	1	0.6	0	15	35	36	0
8-Apr-13	sub2301	2301	1	0	26	6	1	4	5	4	1	2	1	0.09066	1	0.5	0	14	32	33	0
8-Apr-13	sub2301	2301	1	0	27	6	1	2	1	5	1	2	1	0.49233	1	0.5	0	12	30	31	0
8-Apr-13	sub2301	2301	1	0	28	6	1	3	6	4	1	1	1	0.01173	1	0.5	0	13	32	33	0
8-Apr-13	sub2301	2301	1	0	29	6	1	6	3	1	1	1	0	0.49554	0	0.5	0	16	45	46	0
8-Apr-13	sub2301	2301	1	0	30	6	1	6	3	1	0	1	1	0.39029	0	0.5	0	16	47	38	0
8-Apr-13	sub2301	2301	1	0	31	6	1	1	4	1	1	1	1	0.4243	1	0.5	0	11	30	31	0
8-Apr-13	sub2301	2301	1	0	32	6	1	2	1	5	1	2	1	0.01188	1	0.5	0	12	30	31	0
8-Apr-13	sub2301	2301	1	0	33	6	1	5	2	3	1	1	1	0.48453	1	0.5	0	15	35	36	0
8-Apr-13	sub2301	2301	1	0	34	6	1	4	5	4	1	2	1	0.07938	1	0.5	0	14	32	33	0
8-Apr-13	sub2301	2301	1	0	35	6	1	1	4	1	1	1	1	0.49653	1	0.4	1	11	30	51	0
8-Apr-13	sub2301	2301	1	0	36	6	1	1	4	1	1	1	1	0.38108	1	0.7	0	11	30	31	0
8-Apr-13	sub2301	2301	1	0	37	6	1	2	1	5	1	1	0	0.36295	0	0.7	0	12	40	41	0
8-Apr-13	sub2301	2301	1	0	38	6	1	2	1	5	1	2	1	0.04977	1	0.7	0	12	30	31	0
8-Apr-13	sub2301	2301	1	0	39	6	1	3	6	4	0	1	0	0.00334	1	0.7	0	13	34	49	0
8-Apr-13	sub2301	2301	1	0	40	6	1	6	3	1	1	1	0	0.42132	0	0.7	0	16	45	46	0
8-Apr-13	sub2301	2301	1	0	41	6	1	5	2	3	0	1	0	0.39595	1	0.6	0	15	37	48	0
8-Apr-13	sub2301	2301	1	0	42	6	1	1	4	1	1	1	1	0.41957	1	0.6	0	11	30	31	0
8-Apr-13	sub2301	2301	1	0	43	6	1	2	1	5	1	2	1	0.00958	1	0.6	0	12	30	31	0
8-Apr-13	sub2301	2301	1	0	44	6	1	6	3	1	1	1	0	0.02554	0	0.6	0	16	45	46	0
8-Apr-13	sub2301	2301	1	0	45	6	1	4	5	4	1	2	1	0.08179	1	0.6	0	14	32	33	0
8-Apr-13	sub2301	2301	1	0	46	6	1	2	1	5	1	2	1	0.04348	1	0.6	0	12	30	31	0
8-Apr-13	sub2301	2301	1	0	47	6	1	3	6	4	1	2	0	0.1309	0	0.6	0	13	42	43	0
8-Apr-13	sub2301	2301	1	0	48	6	1	6	3	1	1	2	1	0.11112	1	0.6	0	16	35	36	0
8-Apr-13	sub2301	2301	1	0	49	6	1	3	6	4	1	2	0	0.17031	0	0.6	0	13	42	43	0
8-Apr-13	sub2301	2301	1	0	50	6	1	4	5	4	0	2	0	0.07544	1	0.6	0	14	34	49	0
8-Apr-13	sub2301	2301	1	0	51	6	1	6	3	1	1	2	1	0.4322	1	0.5	0	16	35	36	0
8-Apr-13	sub2301	2301	1	0	52	6	1	6	3	1	0	2	0	0.41049	1	0.5	0	16	37	48	0
8-Apr-13	sub2301	2301	1	0	53	6	1	4	5	4	1	2	1	0.48704	1	0.5	0	14	32	33	0
8-Apr-13	sub2301	2301	1	0	54	6	1	3	6	4	1	2	0	0.10305	0	0.5	0	13	42	43	0
8-Apr-13	sub2301	2301	1	0	55	6	1	6	3	1	0	2	0	0.04085	1	0.5	0	16	37	48	0
8-Apr-13	sub2301	2301	1	0	56	6	1	2	1	5	1	2	1	0.04282	1	0.5	0	12	30	31	0
8-Apr-13	sub2301	2301	1	0	57	6	1	1	4	1	1	2	0	0.0821	0	0.5	0	11	40	41	0
8-Apr-13	sub2301	2301	1	0	58	6	1	1	4	1	1	1	1	0.42053	1	0.5	0	11	30	31	0
8-Apr-13	sub2301	2301	1	0	59	6	1	6	3	1	0	2	0	0.10363	1	0.5	0	16	37	48	0
8-Apr-13	sub2301	2301	1	0	60	6	1	3	6	4	1	1	1	0.48434	1	0.5	0	13	32	33	0
8-Apr-13	sub2301	2301	1	0	61	6	1	6	3	1	0	1	1	0.36413	0	0.5	0	16	47	38	0
8-Apr-13	sub2301	2301	1	0	62	6	1	3	6	4	0	1	0	0.48253	1	0.5	0	13	34	49	0
8-Apr-13	sub2301	2301	1	0	63	6	1	4	5	4	1	1	0	0.49774	0	0.5	0	14	42	43	0
8-Apr-13	sub2301	2301	1	0	64	6	1	6	3	1	1	2	1	0.46918	1	0.5	0	16	35	36	0
8-Apr-13	sub2301	2301	1	0	65	6	1	5	2	3	0	1	0	0.03551	1	0.5	0	15	37	48	0
8-Apr-13	sub2301	2301	1	0	66	6	1	1	4	1	1	1	1	0.41989	1	0.5	0	11	30	31	0
8-Apr-13	sub2301	2301	1	0	67	6	1	5	2	3	1	1	1	0.39152	1	0.5	0	15	35	36	0
8-Apr-13	sub2301	2301	1	0	68	6	1	2	1	5	1	2	1	0.04732	1	0.4	0	12	30	31	0
8-Apr-13	sub2301	2301	1	0	69	6	1	2	1	5	1	2	1	0.06869	1	0.4	0	12	30	31	0
8-Apr-13	sub2301	2301	1	0	70	6	1	1	4	1	1	1	1	0.48687	1	0.4	1	11	30	51	0
8-Apr-13	sub2301	2301	1	0	71	6	1	5	2	3	0	1	0	0.00628	1	0.6	0	15	37	48	0
8-Apr-13	sub2301	2301	1	0	72	6	1	3	6	4	0	1	0	0.4437	1	0.6	0	13	34	49	0
8-Apr-13	sub2301	2301	1	0	73	6	1	2	1	5	1	1	0	0.44956	0	0.6	0	12	40	41	0
8-Apr-13	sub2301	2301	1	0	74	6	1	3	6	4	1	1	1	0.0025	1	0.6	0	13	32	33	0
8-Apr-13	sub2301	2301	1	0	75	6	1	4	5	4	1	2	1	0.07537	1	0.6	0	14	32	33	0
8-Apr-13	sub2301	2301	1	0	76	6	2	3	6	4	0	2	1	0.43702	0	0.5	0	23	84	69	0
8-Apr-13	sub2301	2301	1	0	77	6	2	5	2	3	0	1	0	0.18972	1	0.5	0	25	67	88	0
8-Apr-13	sub2301	2301	1	0	78	6	2	2	1	5	1	2	1	0.03717	1	0.5	0	22	60	61	0
8-Apr-13	sub2301	2301	1	0	79	6	2	5	2	3	0	2	1	0.0511	0	0.5	0	25	87	68	0
8-Apr-13	sub2301	2301	1	0	80	6	2	2	1	5	1	2	1	0.49126	1	0.5	0	22	60	61	0
8-Apr-13	sub2301	2301	1	0	81	6	2	3	6	4	1	2	0	0.07473	0	0.5	0	23	82	83	0
8-Apr-13	sub2301	2301	1	0	82	6	2	6	3	1	0	2	0	0.02657	1	0.5	0	26	67	88	0
8-Apr-13	sub2301	2301	1	0	83	6	2	3	6	4	1	1	1	0.49125	1	0.5	0	23	62	63	0
8-Apr-13	sub2301	2301	1	0	84	6	2	3	6	4	1	1	1	0.41854	1	0.5	0	23	62	63	0
8-Apr-13	sub2301	2301	1	0	85	6	2	5	2	3	0	1	0	0.08011	1	0.5	0	25	67	88	0
8-Apr-13	sub2301	2301	1	0	86	6	2	4	5	4	1	2	1	0.03781	1	0.5	0	24	62	63	0
8-Apr-13	sub2301	2301	1	0	87	6	2	5	2	3	0	2	1	0.08417	0	0.5	0	25	87	68	0
8-Apr-13	sub2301	2301	1	0	88	6	2	4	5	4	1	2	1	0.05157	1	0.5	0	24	62	63	0
8-Apr-13	sub2301	2301	1	0	89	6	2	6	3	1	0	1	1	0.40969	0	0.5	0	26	87	68	0
8-Apr-13	sub2301	2301	1	0	90	6	2	5	2	3	0	1	0	0.04706	1	0.5	0	25	67	88	0
8-Apr-13	sub2301	2301	1	0	91	6	2	3	6	4	1	1	1	0.0024	1	0.5	0	23	62	63	0
8-Apr-13	sub2301	2301	1	0	92	6	2	3	6	4	1	1	1	0.00804	1	0.5	0	23	62	63	0
8-Apr-13	sub2301	2301	1	0	93	6	2	5	2	3	0	2	1	0.09525	0	0.5	0	25	87	68	0
8-Apr-13	sub2301	2301	1	0	94	6	2	6	3	1	0	2	0	0.05212	1	0.5	0	26	67	88	0
8-Apr-13	sub2301	2301	1	0	95	6	2	1	4	1	1	1	1	0.02738	1	0.5	0	21	60	61	0
8-Apr-13	sub2301	2301	1	0	96	6	2	5	2	3	0	2	1	0.09701	0	0.5	0	25	87	68	0
8-Apr-13	sub2301	2301	1	0	97	6	2	5	2	3	0	2	1	0.00909	0	0.5	0	25	87	68	0
8-Apr-13	sub2301	2301	1	0	98	6	2	3	6	4	1	1	1	0.00421	1	0.5	0	23	62	63	0
8-Apr-13	sub2301	2301	1	0	99	6	2	2	1	5	1	2	1	0.49363	1	0.5	0	22	60	61	0
8-Apr-13	sub2301	2301	1	0	100	6	2	2	1	5	1	2	1	0.47633	1	0.5	0	22	60	61	0
8-Apr-13	sub2301	2301	1	0	101	6	2	3	6	4	1	1	1	0.05323	1	0.4	0	23	62	63	0
8-Apr-13	sub2301	2301	1	0	102	6	2	6	3	1	0	1	1	0.38024	0	0.4	0	26	87	68	0
8-Apr-13	sub2301	2301	1	0	103	6	2	2	1	5	1	2	1	0.47682	1	0.4	1	22	60	51	0
8-Apr-13	sub2301	2301	1	0	104	6	2	2	1	5	1	2	1	0.338	1	0.5	0	22	60	61	0
8-Apr-13	sub2301	2301	1	0	105	6	2	1	4	1	1	1	1	0.49083	1	0.5	0	21	60	61	0
8-Apr-13	sub2301	2301	1	0	106	6	2	5	2	3	0	2	1	0.0776	0	0.5	0	25	87	68	0
8-Apr-13	sub2301	2301	1	0	107	6	2	6	3	1	1	1	0	0.49708	0	0.5	0	26	85	86	0
8-Apr-13	sub2301	2301	1	0	108	6	2	4	5	4	1	2	1	0.46969	1	0.5	0	24	62	63	0
8-Apr-13	sub2301	2301	1	0	109	6	2	5	2	3	0	2	1	0.05968	0	0.5	0	25	87	68	0
8-Apr-13	sub2301	2301	1	0	110	6	2	1	4	1	1	1	1	0.49479	1	0.5	0	21	60	61	0
8-Apr-13	sub2301	2301	1	0	111	6	2	1	4	1	1	1	1	0.42854	1	0.5	0	21	60	61	0
8-Apr-13	sub2301	2301	1	0	112	6	2	6	3	1	1	1	0	0.00613	0	0.5	0	26	85	86	0
8-Apr-13	sub2301	2301	1	0	113	6	2	6	3	1	0	1	1	0.40692	0	0.5	0	26	87	68	0
8-Apr-13	sub2301	2301	1	0	114	6	2	5	2	3	0	1	0	0.49879	1	0.5	0	25	67	88	0
8-Apr-13	sub2301	2301	1	0	115	6	2	1	4	1	1	1	1	0.07138	1	0.5	0	21	60	61	0
8-Apr-13	sub2301	2301	1	0	116	6	2	3	6	4	0	1	0	0.06516	1	0.5	0	23	64	89	0
8-Apr-13	sub2301	2301	1	0	117	6	2	1	4	1	1	1	1	0.01598	1	0.5	0	21	60	61	0
8-Apr-13	sub2301	2301	1	0	118	6	2	2	1	5	1	2	1	0.35334	1	0.5	0	22	60	61	0
8-Apr-13	sub2301	2301	1	0	119	6	2	6	3	1	0	1	1	0.4734	0	0.5	0	26	87	68	0
8-Apr-13	sub2301	2301	1	0	120	6	2	2	1	5	1	2	1	0.01473	1	0.5	0	22	60	61	0
8-Apr-13	sub2301	2301	1	0	121	6	2	3	6	4	1	1	1	0.04586	1	0.5	0	23	62	63	0
8-Apr-13	sub2301	2301	1	0	122	6	2	6	3	1	1	1	0	0.18472	0	0.5	0	26	85	86	0
8-Apr-13	sub2301	2301	1	0	123	6	2	4	5	4	0	2	0	0.04038	1	0.5	0	24	64	89	0
8-Apr-13	sub2301	2301	1	0	124	6	2	4	5	4	1	2	1	0.01491	1	0.5	0	24	62	63	0
8-Apr-13	sub2301	2301	1	0	125	6	2	1	4	1	1	1	1	0.11009	1	0.5	0	21	60	61	0
8-Apr-13	sub2301	2301	1	0	126	6	2	1	4	1	1	1	1	0.43135	1	0.5	0	21	60	61	0
8-Apr-13	sub2301	2301	1	0	127	6	2	4	5	4	1	2	1	0.40375	1	0.5	0	24	62	63	0
8-Apr-13	sub2301	2301	1	0	128	6	2	3	6	4	1	1	1	0.05086	1	0.5	0	23	62	63	0
8-Apr-13	sub2301	2301	1	0	129	6	2	1	4	1	1	1	1	0.0499	1	0.5	0	21	60	61	0
8-Apr-13	sub2301	2301	1	0	130	6	2	4	5	4	1	2	1	0.01813	1	0.5	0	24	62	63	0
8-Apr-13	sub2301	2301	1	0	131	6	2	1	4	1	1	1	1	0.05623	1	0.5	0	21	60	61	0
8-Apr-13	sub2301	2301	1	0	132	6	2	4	5	4	1	2	1	0.48896	1	0.5	0	24	62	63	0
8-Apr-13	sub2301	2301	1	0	133	6	2	4	5	4	1	2	1	0.43997	1	0.5	0	24	62	63	0
8-Apr-13	sub2301	2301	1	0	134	6	2	4	5	4	0	2	0	0.40691	1	0.5	0	24	64	89	0
8-Apr-13	sub2301	2301	1	0	135	6	2	4	5	4	1	2	1	0.40703	1	0.4	1	24	62	51	0
8-Apr-13	sub2301	2301	1	0	136	6	2	5	2	3	0	1	0	0.49702	1	0.5	0	25	67	88	0
8-Apr-13	sub2301	2301	1	0	137	6	2	1	4	1	1	2	0	0.36116	0	0.5	0	21	80	81	0
8-Apr-13	sub2301	2301	1	0	138	6	2	3	6	4	1	1	1	0.49816	1	0.5	0	23	62	63	0
8-Apr-13	sub2301	2301	1	0	139	6	2	2	1	5	1	2	1	0.07103	1	0.5	0	22	60	61	0
8-Apr-13	sub2301	2301	1	0	140	6	2	1	4	1	1	1	1	0.08711	1	0.5	0	21	60	61	0
8-Apr-13	sub2301	2301	1	0	141	6	2	2	1	5	1	2	1	0.01659	1	0.5	0	22	60	61	0
8-Apr-13	sub2301	2301	1	0	142	6	2	2	1	5	1	2	1	0.47436	1	0.5	0	22	60	61	0
8-Apr-13	sub2301	2301	1	0	143	6	2	5	2	3	0	1	0	0.48358	1	0.5	0	25	67	88	0
8-Apr-13	sub2301	2301	1	0	144	6	2	4	5	4	1	2	1	0.05784	1	0.5	0	24	62	63	0
8-Apr-13	sub2301	2301	1	0	145	6	2	1	4	1	1	1	1	0.11015	1	0.5	0	21	60	61	0
8-Apr-13	sub2301	2301	1	0	146	6	2	6	3	1	1	1	0	0.12584	0	0.5	0	26	85	86	0
8-Apr-13	sub2301	2301	1	0	147	6	2	6	3	1	1	1	0	0.04561	0	0.5	0	26	85	86	0
8-Apr-13	sub2301	2301	1	0	148	6	2	6	3	1	1	1	0	0.46433	0	0.5	0	26	85	86	0
8-Apr-13	sub2301	2301	1	0	149	6	2	4	5	4	0	2	0	0.04662	1	0.5	0	24	64	89	0
8-Apr-13	sub2301	2301	1	0	150	6	2	2	1	5	1	2	1	0.46261	1	0.5	0	22	60	61	0
