Date 	 Name 	 ID 	 Gender 	 Appearance 	 Trial 	 Block 	 Bin 	 Condition 	 Category 	 Number 	 Valid 	 Keypress 	 Correct 	 RT 	 Realcorrect 	 Deadline 	 Timeout 	 Stimtrigger 	 Resptrigger 	 Fedtrigger 	 WithinTime 	 
14-Apr-13	sub2302	2302	2	1	1	1	1	1	4	4	1	1	1	1.10558	1	0.6	1	11	30	51	0	
14-Apr-13	sub2302	2302	2	1	2	1	1	2	3	3	1	2	1	1.00116	1	0.9	1	12	30	51	0	
14-Apr-13	sub2302	2302	2	1	3	1	1	5	5	4	1	2	0	0.41674	0	0.9	0	15	45	46	1	
14-Apr-13	sub2302	2302	2	1	4	1	1	4	2	5	1	2	1	0.59009	1	0.9	0	14	32	33	0	
14-Apr-13	sub2302	2302	2	1	5	1	1	4	2	5	1	2	1	0.49914	1	0.9	0	14	32	33	1	
14-Apr-13	sub2302	2302	2	1	6	1	1	3	6	4	1	1	1	0.64111	1	0.9	0	13	32	33	0	
14-Apr-13	sub2302	2302	2	1	7	1	1	2	3	3	1	1	0	0.73224	0	0.9	0	12	40	41	0	
14-Apr-13	sub2302	2302	2	1	8	1	1	3	6	4	1	1	1	0.77495	1	0.9	0	13	32	33	0	
14-Apr-13	sub2302	2302	2	1	9	1	1	3	6	4	1	1	1	0.69797	1	0.9	0	13	32	33	0	
14-Apr-13	sub2302	2302	2	1	10	1	1	6	1	3	0	2	0	0.6235	1	0.9	0	16	37	48	0	
14-Apr-13	sub2302	2302	2	1	11	1	1	3	6	4	0	1	0	0.87485	1	0.9	0	13	34	49	0	
14-Apr-13	sub2302	2302	2	1	12	1	1	3	6	4	1	1	1	0.57536	1	0.9	0	13	32	33	0	
14-Apr-13	sub2302	2302	2	1	13	1	1	1	4	4	1	2	0	0.63764	0	0.9	0	11	40	41	0	
14-Apr-13	sub2302	2302	2	1	14	1	1	2	3	3	1	2	1	0.6755	1	0.9	0	12	30	31	0	
14-Apr-13	sub2302	2302	2	1	15	1	1	4	2	5	1	2	1	0.72945	1	0.9	0	14	32	33	0	
14-Apr-13	sub2302	2302	2	1	16	1	1	5	5	4	1	2	0	0.58193	0	0.9	0	15	45	46	0	
14-Apr-13	sub2302	2302	2	1	17	1	1	2	3	3	1	2	1	0.70036	1	0.9	0	12	30	31	0	
14-Apr-13	sub2302	2302	2	1	18	1	1	5	5	4	0	1	0	0.53191	1	0.9	0	15	37	48	0	
14-Apr-13	sub2302	2302	2	1	19	1	1	6	1	3	1	2	1	0.69072	1	0.9	0	16	35	36	0	
14-Apr-13	sub2302	2302	2	1	20	1	1	6	1	3	1	1	0	0.70172	0	0.9	0	16	45	46	0	
14-Apr-13	sub2302	2302	2	1	21	1	1	2	3	3	1	2	1	0.74697	1	0.9	0	12	30	31	0	
14-Apr-13	sub2302	2302	2	1	22	1	1	5	5	4	1	2	0	0.70715	0	0.9	0	15	45	46	0	
14-Apr-13	sub2302	2302	2	1	23	1	1	1	4	4	1	2	0	0.99974	0	0.9	1	11	40	51	0	
14-Apr-13	sub2302	2302	2	1	24	1	1	3	6	4	1	2	0	0.51587	0	0.9	0	13	42	43	0	
14-Apr-13	sub2302	2302	2	1	25	1	1	4	2	5	1	2	1	0.64739	1	0.9	0	14	32	33	0	
14-Apr-13	sub2302	2302	2	1	26	1	1	1	4	4	1	1	1	0.702	1	0.9	0	11	30	31	0	
14-Apr-13	sub2302	2302	2	1	27	1	1	4	2	5	1	2	1	0.68237	1	0.9	0	14	32	33	0	
14-Apr-13	sub2302	2302	2	1	28	1	1	1	4	4	1	1	1	0.4617	1	0.9	0	11	30	31	1	
14-Apr-13	sub2302	2302	2	1	29	1	1	4	2	5	1	2	1	0.62806	1	0.9	0	14	32	33	0	
14-Apr-13	sub2302	2302	2	1	30	1	1	5	5	4	1	1	1	0.50004	1	0.9	0	15	35	36	1	
14-Apr-13	sub2302	2302	2	1	31	1	1	2	3	3	1	2	1	0.59113	1	0.9	0	12	30	31	0	
14-Apr-13	sub2302	2302	2	1	32	1	1	4	2	5	0	2	0	0.5596	1	0.9	0	14	34	49	0	
14-Apr-13	sub2302	2302	2	1	33	1	1	1	4	4	1	1	1	0.6624	1	0.9	0	11	30	31	0	
14-Apr-13	sub2302	2302	2	1	34	1	1	3	6	4	1	1	1	0.81942	1	0.9	0	13	32	33	0	
14-Apr-13	sub2302	2302	2	1	35	1	1	6	1	3	0	1	1	0.603	0	0.9	0	16	47	38	0	
14-Apr-13	sub2302	2302	2	1	36	1	1	2	3	3	1	2	1	0.62145	1	0.9	0	12	30	31	0	
14-Apr-13	sub2302	2302	2	1	37	1	1	6	1	3	0	1	1	0.61684	0	0.9	0	16	47	38	0	
14-Apr-13	sub2302	2302	2	1	38	1	1	3	6	4	0	1	0	0.6925	1	0.9	0	13	34	49	0	
14-Apr-13	sub2302	2302	2	1	39	1	1	4	2	5	1	2	1	0.64081	1	0.9	0	14	32	33	0	
14-Apr-13	sub2302	2302	2	1	40	1	1	5	5	4	0	1	0	0.66401	1	0.9	0	15	37	48	0	
14-Apr-13	sub2302	2302	2	1	41	1	1	1	4	4	1	1	1	0.77261	1	0.9	0	11	30	31	0	
14-Apr-13	sub2302	2302	2	1	42	1	1	6	1	3	0	1	1	0.63037	0	0.9	0	16	47	38	0	
14-Apr-13	sub2302	2302	2	1	43	1	1	3	6	4	1	2	0	0.62908	0	0.9	0	13	42	43	0	
14-Apr-13	sub2302	2302	2	1	44	1	1	5	5	4	0	1	0	0.78592	1	0.8	0	15	37	48	0	
14-Apr-13	sub2302	2302	2	1	45	1	1	2	3	3	1	2	1	0.645	1	0.8	0	12	30	31	0	
14-Apr-13	sub2302	2302	2	1	46	1	1	5	5	4	0	1	0	0.70023	1	0.8	0	15	37	48	0	
14-Apr-13	sub2302	2302	2	1	47	1	1	2	3	3	1	2	1	0.71396	1	0.8	0	12	30	31	0	
14-Apr-13	sub2302	2302	2	1	48	1	1	5	5	4	0	2	1	0.71129	0	0.8	0	15	47	38	0	
14-Apr-13	sub2302	2302	2	1	49	1	1	3	6	4	1	1	1	0.76447	1	0.8	0	13	32	33	0	
14-Apr-13	sub2302	2302	2	1	50	1	1	5	5	4	1	1	1	0.74724	1	0.8	0	15	35	36	0	
14-Apr-13	sub2302	2302	2	1	51	1	1	4	2	5	0	2	0	0.55623	1	0.7	0	14	34	49	0	
14-Apr-13	sub2302	2302	2	1	52	1	1	6	1	3	1	2	1	0.59107	1	0.7	0	16	35	36	0	
14-Apr-13	sub2302	2302	2	1	53	1	1	4	2	5	1	2	1	0.59442	1	0.7	0	14	32	33	0	
14-Apr-13	sub2302	2302	2	1	54	1	1	6	1	3	1	2	1	0.54304	1	0.7	0	16	35	36	0	
14-Apr-13	sub2302	2302	2	1	55	1	1	3	6	4	0	1	0	0.4806	1	0.7	0	13	34	49	1	
14-Apr-13	sub2302	2302	2	1	56	1	1	1	4	4	1	1	1	0.92638	1	0.7	1	11	30	51	0	
14-Apr-13	sub2302	2302	2	1	57	1	1	6	1	3	0	1	1	0.42765	0	0.9	0	16	47	38	1	
14-Apr-13	sub2302	2302	2	1	58	1	1	3	6	4	1	2	0	0.39935	0	0.9	0	13	42	43	1	
14-Apr-13	sub2302	2302	2	1	59	1	1	6	1	3	1	2	1	0.52306	1	0.8	0	16	35	36	0	
14-Apr-13	sub2302	2302	2	1	60	1	1	3	6	4	1	1	1	0.45592	1	0.8	0	13	32	33	1	
14-Apr-13	sub2302	2302	2	1	61	1	1	6	1	3	1	1	0	0.48426	0	0.8	0	16	45	46	1	
14-Apr-13	sub2302	2302	2	1	62	1	1	5	5	4	1	1	1	0.62682	1	0.8	0	15	35	36	0	
14-Apr-13	sub2302	2302	2	1	63	1	1	2	3	3	1	2	1	0.4929	1	0.8	0	12	30	31	1	
14-Apr-13	sub2302	2302	2	1	64	1	1	2	3	3	1	2	1	0.60441	1	0.8	0	12	30	31	0	
14-Apr-13	sub2302	2302	2	1	65	1	1	1	4	4	1	1	1	0.60412	1	0.8	0	11	30	31	0	
14-Apr-13	sub2302	2302	2	1	66	1	1	4	2	5	1	2	1	0.53524	1	0.8	0	14	32	33	0	
14-Apr-13	sub2302	2302	2	1	67	1	1	6	1	3	0	1	1	0.50557	0	0.8	0	16	47	38	0	
14-Apr-13	sub2302	2302	2	1	68	1	1	1	4	4	1	1	1	0.63233	1	0.7	0	11	30	31	0	
14-Apr-13	sub2302	2302	2	1	69	1	1	5	5	4	0	2	1	0.48875	0	0.7	0	15	47	38	1	
14-Apr-13	sub2302	2302	2	1	70	1	1	4	2	5	1	2	1	0.34895	1	0.7	0	14	32	33	1	
14-Apr-13	sub2302	2302	2	1	71	1	1	1	4	4	1	1	1	0.55231	1	0.7	0	11	30	31	0	
14-Apr-13	sub2302	2302	2	1	72	1	1	2	3	3	1	2	1	0.5777	1	0.7	0	12	30	31	0	
14-Apr-13	sub2302	2302	2	1	73	1	1	2	3	3	1	2	1	0.43177	1	0.7	0	12	30	31	1	
14-Apr-13	sub2302	2302	2	1	74	1	1	1	4	4	1	1	1	0.61099	1	0.7	0	11	30	31	0	
14-Apr-13	sub2302	2302	2	1	75	1	1	6	1	3	1	1	0	0.6049	0	0.7	0	16	45	46	0	
14-Apr-13	sub2302	2302	2	1	1	2	1	3	2	4	1	1	1	6.18854	1	0.6	1	13	32	51	0	
14-Apr-13	sub2302	2302	2	1	2	2	1	2	6	5	1	1	0	0.71018	0	0.9	0	12	40	41	0	
14-Apr-13	sub2302	2302	2	1	3	2	1	1	1	5	1	2	0	0.68109	0	0.9	0	11	40	41	0	
14-Apr-13	sub2302	2302	2	1	4	2	1	2	6	5	1	1	0	0.80822	0	0.9	0	12	40	41	0	
14-Apr-13	sub2302	2302	2	1	5	2	1	3	2	4	0	1	0	0.59201	1	0.9	0	13	34	49	0	
14-Apr-13	sub2302	2302	2	1	6	2	1	5	3	2	1	1	1	0.61643	1	0.9	0	15	35	36	0	
14-Apr-13	sub2302	2302	2	1	7	2	1	3	2	4	1	2	0	0.7021	0	0.9	0	13	42	43	0	
14-Apr-13	sub2302	2302	2	1	8	2	1	6	5	6	0	2	0	0.72009	1	0.9	0	16	37	48	0	
14-Apr-13	sub2302	2302	2	1	9	2	1	4	4	6	1	2	1	0.55882	1	0.9	0	14	32	33	0	
14-Apr-13	sub2302	2302	2	1	10	2	1	1	1	5	1	1	1	0.65818	1	0.9	0	11	30	31	0	
14-Apr-13	sub2302	2302	2	1	11	2	1	2	6	5	1	2	1	0.48812	1	0.9	0	12	30	31	1	
14-Apr-13	sub2302	2302	2	1	12	2	1	2	6	5	1	2	1	0.50149	1	0.9	0	12	30	31	0	
14-Apr-13	sub2302	2302	2	1	13	2	1	4	4	6	1	1	0	0.58967	0	0.9	0	14	42	43	0	
14-Apr-13	sub2302	2302	2	1	14	2	1	5	3	2	0	2	1	0.70116	0	0.9	0	15	47	38	0	
14-Apr-13	sub2302	2302	2	1	15	2	1	2	6	5	1	2	1	0.74318	1	0.9	0	12	30	31	0	
14-Apr-13	sub2302	2302	2	1	16	2	1	5	3	2	0	2	1	0.61531	0	0.8	0	15	47	38	0	
14-Apr-13	sub2302	2302	2	1	17	2	1	2	6	5	1	2	1	0.58895	1	0.8	0	12	30	31	0	
14-Apr-13	sub2302	2302	2	1	18	2	1	3	2	4	1	1	1	0.53943	1	0.7	0	13	32	33	0	
14-Apr-13	sub2302	2302	2	1	19	2	1	6	5	6	1	1	0	0.61976	0	0.7	0	16	45	46	0	
14-Apr-13	sub2302	2302	2	1	20	2	1	4	4	6	1	1	0	0.57714	0	0.7	0	14	42	43	0	
14-Apr-13	sub2302	2302	2	1	21	2	1	1	1	5	1	2	0	0.58269	0	0.6	0	11	40	41	0	
14-Apr-13	sub2302	2302	2	1	22	2	1	6	5	6	0	1	1	0.85202	0	0.6	1	16	47	51	0	
14-Apr-13	sub2302	2302	2	1	23	2	1	4	4	6	1	2	1	0.77171	1	0.9	0	14	32	33	0	
14-Apr-13	sub2302	2302	2	1	24	2	1	4	4	6	0	2	0	0.48274	1	0.9	0	14	34	49	1	
14-Apr-13	sub2302	2302	2	1	25	2	1	6	5	6	0	2	0	0.34995	1	0.9	0	16	37	48	1	
14-Apr-13	sub2302	2302	2	1	26	2	1	2	6	5	1	2	1	0.51663	1	0.9	0	12	30	31	0	
14-Apr-13	sub2302	2302	2	1	27	2	1	5	3	2	1	1	1	0.59024	1	0.9	0	15	35	36	0	
14-Apr-13	sub2302	2302	2	1	28	2	1	5	3	2	1	1	1	0.37326	1	0.9	0	15	35	36	1	
14-Apr-13	sub2302	2302	2	1	29	2	1	1	1	5	1	2	0	0.69854	0	0.9	0	11	40	41	0	
14-Apr-13	sub2302	2302	2	1	30	2	1	1	1	5	1	2	0	0.48912	0	0.8	0	11	40	41	1	
14-Apr-13	sub2302	2302	2	1	31	2	1	6	5	6	0	2	0	0.63052	1	0.8	0	16	37	48	0	
14-Apr-13	sub2302	2302	2	1	32	2	1	4	4	6	1	2	1	0.74399	1	0.8	0	14	32	33	0	
14-Apr-13	sub2302	2302	2	1	33	2	1	6	5	6	1	1	0	0.7757	0	0.8	0	16	45	46	0	
14-Apr-13	sub2302	2302	2	1	34	2	1	1	1	5	1	1	1	0.72884	1	0.8	0	11	30	31	0	
14-Apr-13	sub2302	2302	2	1	35	2	1	2	6	5	1	2	1	0.53814	1	0.7	0	12	30	31	0	
14-Apr-13	sub2302	2302	2	1	36	2	1	3	2	4	1	2	0	0.64114	0	0.7	0	13	42	43	0	
14-Apr-13	sub2302	2302	2	1	37	2	1	4	4	6	1	2	1	0.41436	1	0.7	0	14	32	33	1	
14-Apr-13	sub2302	2302	2	1	38	2	1	1	1	5	1	1	1	0.52224	1	0.7	0	11	30	31	0	
14-Apr-13	sub2302	2302	2	1	39	2	1	4	4	6	0	1	1	0.61901	0	0.7	0	14	44	39	0	
14-Apr-13	sub2302	2302	2	1	40	2	1	1	1	5	1	1	1	0.53647	1	0.7	0	11	30	31	0	
14-Apr-13	sub2302	2302	2	1	41	2	1	3	2	4	1	1	1	1.68603	1	0.6	1	13	32	51	0	
14-Apr-13	sub2302	2302	2	1	42	2	1	3	2	4	0	1	0	0.60024	1	0.9	0	13	34	49	0	
14-Apr-13	sub2302	2302	2	1	43	2	1	5	3	2	1	1	1	0.63884	1	0.9	0	15	35	36	0	
14-Apr-13	sub2302	2302	2	1	44	2	1	3	2	4	1	2	0	0.49392	0	0.8	0	13	42	43	1	
14-Apr-13	sub2302	2302	2	1	45	2	1	1	1	5	1	1	1	0.46512	1	0.8	0	11	30	31	1	
14-Apr-13	sub2302	2302	2	1	46	2	1	4	4	6	1	1	0	0.58118	0	0.8	0	14	42	43	0	
14-Apr-13	sub2302	2302	2	1	47	2	1	6	5	6	1	1	0	0.7444	0	0.8	0	16	45	46	0	
14-Apr-13	sub2302	2302	2	1	48	2	1	3	2	4	1	2	0	0.48081	0	0.8	0	13	42	43	1	
14-Apr-13	sub2302	2302	2	1	49	2	1	2	6	5	1	2	1	0.43882	1	0.8	0	12	30	31	1	
14-Apr-13	sub2302	2302	2	1	50	2	1	1	1	5	1	2	0	0.56325	0	0.8	0	11	40	41	0	
14-Apr-13	sub2302	2302	2	1	51	2	1	6	5	6	0	2	0	0.61408	1	0.7	0	16	37	48	0	
14-Apr-13	sub2302	2302	2	1	52	2	1	6	5	6	0	2	0	0.63276	1	0.7	0	16	37	48	0	
14-Apr-13	sub2302	2302	2	1	53	2	1	2	6	5	1	2	1	0.62235	1	0.7	0	12	30	31	0	
14-Apr-13	sub2302	2302	2	1	54	2	1	4	4	6	1	2	1	0.61218	1	0.7	0	14	32	33	0	
14-Apr-13	sub2302	2302	2	1	55	2	1	3	2	4	1	1	1	0.70668	1	0.7	1	13	32	51	0	
14-Apr-13	sub2302	2302	2	1	56	2	1	1	1	5	1	1	1	0.57504	1	0.9	0	11	30	31	0	
14-Apr-13	sub2302	2302	2	1	57	2	1	2	6	5	1	1	0	0.42961	0	0.9	0	12	40	41	1	
14-Apr-13	sub2302	2302	2	1	58	2	1	6	5	6	1	1	0	0.54969	0	0.9	0	16	45	46	0	
14-Apr-13	sub2302	2302	2	1	59	2	1	5	3	2	0	2	1	0.63538	0	0.8	0	15	47	38	0	
14-Apr-13	sub2302	2302	2	1	60	2	1	1	1	5	1	1	1	0.58619	1	0.8	0	11	30	31	0	
14-Apr-13	sub2302	2302	2	1	61	2	1	6	5	6	1	1	0	0.63372	0	0.8	0	16	45	46	0	
14-Apr-13	sub2302	2302	2	1	62	2	1	4	4	6	1	1	0	0.64439	0	0.8	0	14	42	43	0	
14-Apr-13	sub2302	2302	2	1	63	2	1	6	5	6	0	1	1	0.64551	0	0.8	0	16	47	38	0	
14-Apr-13	sub2302	2302	2	1	64	2	1	5	3	2	1	2	0	0.40384	0	0.8	0	15	45	46	1	
14-Apr-13	sub2302	2302	2	1	65	2	1	5	3	2	0	1	0	0.43829	1	0.8	0	15	37	48	1	
14-Apr-13	sub2302	2302	2	1	66	2	1	4	4	6	1	2	1	0.7122	1	0.8	0	14	32	33	0	
14-Apr-13	sub2302	2302	2	1	67	2	1	5	3	2	1	2	0	0.41685	0	0.8	0	15	45	46	1	
14-Apr-13	sub2302	2302	2	1	68	2	1	5	3	2	0	2	1	0.5031	0	0.7	0	15	47	38	0	
14-Apr-13	sub2302	2302	2	1	69	2	1	2	6	5	1	2	1	0.56186	1	0.7	0	12	30	31	0	
14-Apr-13	sub2302	2302	2	1	70	2	1	3	2	4	0	2	1	0.48077	0	0.7	0	13	44	39	1	
14-Apr-13	sub2302	2302	2	1	71	2	1	3	2	4	1	2	0	0.48903	0	0.7	0	13	42	43	1	
14-Apr-13	sub2302	2302	2	1	72	2	1	5	3	2	1	2	0	0.50665	0	0.7	0	15	45	46	0	
14-Apr-13	sub2302	2302	2	1	73	2	1	3	2	4	1	2	0	0.58963	0	0.7	0	13	42	43	0	
14-Apr-13	sub2302	2302	2	1	74	2	1	6	5	6	0	1	1	0.56375	0	0.7	0	16	47	38	0	
14-Apr-13	sub2302	2302	2	1	75	2	1	2	6	5	1	2	1	0.71317	1	0.7	1	12	30	51	0	
14-Apr-13	sub2302	2302	2	1	76	2	2	3	2	4	1	2	0	0.58124	0	0.8	0	23	82	83	0	
14-Apr-13	sub2302	2302	2	1	77	2	2	2	6	5	1	2	1	0.96837	1	0.8	1	22	60	51	0	
14-Apr-13	sub2302	2302	2	1	78	2	2	1	1	5	1	2	0	0.49202	0	0.9	0	21	80	81	1	
14-Apr-13	sub2302	2302	2	1	79	2	2	5	3	2	0	2	1	0.49887	0	0.9	0	25	87	68	1	
14-Apr-13	sub2302	2302	2	1	80	2	2	5	3	2	0	2	1	0.46181	0	0.9	0	25	87	68	1	
14-Apr-13	sub2302	2302	2	1	81	2	2	3	2	4	1	1	1	0.63511	1	0.9	0	23	62	63	0	
14-Apr-13	sub2302	2302	2	1	82	2	2	4	4	6	1	2	1	0.71143	1	0.9	0	24	62	63	0	
14-Apr-13	sub2302	2302	2	1	83	2	2	5	3	2	0	2	1	0.76719	0	0.9	0	25	87	68	0	
14-Apr-13	sub2302	2302	2	1	84	2	2	2	6	5	1	2	1	0.75804	1	0.9	0	22	60	61	0	
14-Apr-13	sub2302	2302	2	1	85	2	2	4	4	6	0	2	0	0.49724	1	0.9	0	24	64	89	1	
14-Apr-13	sub2302	2302	2	1	86	2	2	3	2	4	1	2	0	0.47231	0	0.9	0	23	82	83	1	
14-Apr-13	sub2302	2302	2	1	87	2	2	4	4	6	1	2	1	0.60868	1	0.8	0	24	62	63	0	
14-Apr-13	sub2302	2302	2	1	88	2	2	5	3	2	0	2	1	0.52643	0	0.8	0	25	87	68	0	
14-Apr-13	sub2302	2302	2	1	89	2	2	6	5	6	1	1	0	0.56807	0	0.8	0	26	85	86	0	
14-Apr-13	sub2302	2302	2	1	90	2	2	6	5	6	0	2	0	0.54341	1	0.8	0	26	67	88	0	
14-Apr-13	sub2302	2302	2	1	91	2	2	1	1	5	1	1	1	0.69847	1	0.8	0	21	60	61	0	
14-Apr-13	sub2302	2302	2	1	92	2	2	4	4	6	0	2	0	0.67149	1	0.8	0	24	64	89	0	
14-Apr-13	sub2302	2302	2	1	93	2	2	3	2	4	1	2	0	0.55091	0	0.8	0	23	82	83	0	
14-Apr-13	sub2302	2302	2	1	94	2	2	6	5	6	1	2	1	0.62734	1	0.8	0	26	65	66	0	
14-Apr-13	sub2302	2302	2	1	95	2	2	5	3	2	0	2	1	0.63925	0	0.8	0	25	87	68	0	
14-Apr-13	sub2302	2302	2	1	96	2	2	1	1	5	1	1	1	0.65632	1	0.8	0	21	60	61	0	
14-Apr-13	sub2302	2302	2	1	97	2	2	4	4	6	1	1	0	0.53292	0	0.8	0	24	82	83	0	
14-Apr-13	sub2302	2302	2	1	98	2	2	5	3	2	0	2	1	0.54425	0	0.8	0	25	87	68	0	
14-Apr-13	sub2302	2302	2	1	99	2	2	2	6	5	1	2	1	0.55975	1	0.8	0	22	60	61	0	
14-Apr-13	sub2302	2302	2	1	100	2	2	2	6	5	1	2	1	0.51954	1	0.8	0	22	60	61	0	
14-Apr-13	sub2302	2302	2	1	101	2	2	6	5	6	0	2	0	0.69934	1	0.7	0	26	67	88	0	
14-Apr-13	sub2302	2302	2	1	102	2	2	3	2	4	1	2	0	0.48558	0	0.7	0	23	82	83	1	
14-Apr-13	sub2302	2302	2	1	103	2	2	1	1	5	1	2	0	0.73029	0	0.7	1	21	80	51	0	
14-Apr-13	sub2302	2302	2	1	104	2	2	5	3	2	0	2	1	0.37016	0	0.8	0	25	87	68	1	
14-Apr-13	sub2302	2302	2	1	105	2	2	1	1	5	1	2	0	0.54474	0	0.8	0	21	80	81	0	
14-Apr-13	sub2302	2302	2	1	106	2	2	3	2	4	0	2	1	0.6583	0	0.8	0	23	84	69	0	
14-Apr-13	sub2302	2302	2	1	107	2	2	6	5	6	1	1	0	0.51758	0	0.8	0	26	85	86	0	
14-Apr-13	sub2302	2302	2	1	108	2	2	2	6	5	1	2	1	0.64657	1	0.8	0	22	60	61	0	
14-Apr-13	sub2302	2302	2	1	109	2	2	3	2	4	1	2	0	0.3999	0	0.8	0	23	82	83	1	
14-Apr-13	sub2302	2302	2	1	110	2	2	4	4	6	1	1	0	0.58038	0	0.8	0	24	82	83	0	
14-Apr-13	sub2302	2302	2	1	111	2	2	1	1	5	1	1	1	0.71505	1	0.8	0	21	60	61	0	
14-Apr-13	sub2302	2302	2	1	112	2	2	6	5	6	0	2	0	0.58335	1	0.8	0	26	67	88	0	
14-Apr-13	sub2302	2302	2	1	113	2	2	3	2	4	0	2	1	0.54337	0	0.8	0	23	84	69	0	
14-Apr-13	sub2302	2302	2	1	114	2	2	3	2	4	1	2	0	0.6409	0	0.8	0	23	82	83	0	
14-Apr-13	sub2302	2302	2	1	115	2	2	1	1	5	1	1	1	0.65598	1	0.8	0	21	60	61	0	
14-Apr-13	sub2302	2302	2	1	116	2	2	6	5	6	1	1	0	0.56078	0	0.8	0	26	85	86	0	
14-Apr-13	sub2302	2302	2	1	117	2	2	5	3	2	0	2	1	0.62677	0	0.8	0	25	87	68	0	
14-Apr-13	sub2302	2302	2	1	118	2	2	2	6	5	1	2	1	0.591	1	0.7	0	22	60	61	0	
14-Apr-13	sub2302	2302	2	1	119	2	2	2	6	5	1	2	1	0.49157	1	0.7	0	22	60	61	1	
14-Apr-13	sub2302	2302	2	1	120	2	2	5	3	2	0	2	1	0.52294	0	0.7	0	25	87	68	0	
14-Apr-13	sub2302	2302	2	1	121	2	2	1	1	5	1	1	1	0.69119	1	0.7	0	21	60	61	0	
14-Apr-13	sub2302	2302	2	1	122	2	2	6	5	6	1	1	0	0.69875	0	0.7	0	26	85	86	0	
14-Apr-13	sub2302	2302	2	1	123	2	2	6	5	6	0	2	0	0.64085	1	0.7	0	26	67	88	0	
14-Apr-13	sub2302	2302	2	1	124	2	2	4	4	6	1	1	0	0.79397	0	0.7	1	24	82	51	0	
14-Apr-13	sub2302	2302	2	1	125	2	2	4	4	6	1	1	0	0.40202	0	0.8	0	24	82	83	1	
14-Apr-13	sub2302	2302	2	1	126	2	2	5	3	2	0	2	1	0.67284	0	0.8	0	25	87	68	0	
14-Apr-13	sub2302	2302	2	1	127	2	2	2	6	5	1	2	1	0.53814	1	0.8	0	22	60	61	0	
14-Apr-13	sub2302	2302	2	1	128	2	2	4	4	6	0	2	0	0.58903	1	0.8	0	24	64	89	0	
14-Apr-13	sub2302	2302	2	1	129	2	2	5	3	2	0	2	1	0.62155	0	0.8	0	25	87	68	0	
14-Apr-13	sub2302	2302	2	1	130	2	2	2	6	5	1	2	1	0.49698	1	0.8	0	22	60	61	1	
14-Apr-13	sub2302	2302	2	1	131	2	2	1	1	5	1	1	1	0.6072	1	0.8	0	21	60	61	0	
14-Apr-13	sub2302	2302	2	1	132	2	2	2	6	5	1	2	1	0.57534	1	0.8	0	22	60	61	0	
14-Apr-13	sub2302	2302	2	1	133	2	2	3	2	4	1	1	1	0.57667	1	0.8	0	23	62	63	0	
14-Apr-13	sub2302	2302	2	1	134	2	2	4	4	6	1	1	0	0.53906	0	0.8	0	24	82	83	0	
14-Apr-13	sub2302	2302	2	1	135	2	2	6	5	6	1	2	1	0.72262	1	0.7	1	26	65	51	0	
14-Apr-13	sub2302	2302	2	1	136	2	2	2	6	5	1	2	1	0.61511	1	0.8	0	22	60	61	0	
14-Apr-13	sub2302	2302	2	1	137	2	2	4	4	6	1	2	1	0.37377	1	0.8	0	24	62	63	1	
14-Apr-13	sub2302	2302	2	1	138	2	2	5	3	2	0	2	1	0.48428	0	0.8	0	25	87	68	1	
14-Apr-13	sub2302	2302	2	1	139	2	2	1	1	5	1	2	0	0.53153	0	0.8	0	21	80	81	0	
14-Apr-13	sub2302	2302	2	1	140	2	2	2	6	5	1	2	1	0.5402	1	0.8	0	22	60	61	0	
14-Apr-13	sub2302	2302	2	1	141	2	2	6	5	6	0	2	0	0.76125	1	0.8	0	26	67	88	0	
14-Apr-13	sub2302	2302	2	1	142	2	2	5	3	2	0	2	1	0.47183	0	0.8	0	25	87	68	1	
14-Apr-13	sub2302	2302	2	1	143	2	2	1	1	5	1	1	1	0.55238	1	0.8	0	21	60	61	0	
14-Apr-13	sub2302	2302	2	1	144	2	2	6	5	6	0	1	1	0.48968	0	0.8	0	26	87	68	1	
14-Apr-13	sub2302	2302	2	1	145	2	2	1	1	5	1	1	1	0.44611	1	0.8	0	21	60	61	1	
14-Apr-13	sub2302	2302	2	1	146	2	2	1	1	5	1	1	1	0.36452	1	0.8	0	21	60	61	1	
14-Apr-13	sub2302	2302	2	1	147	2	2	3	2	4	1	1	1	0.66673	1	0.8	0	23	62	63	0	
14-Apr-13	sub2302	2302	2	1	148	2	2	3	2	4	1	1	1	0.4332	1	0.8	0	23	62	63	1	
14-Apr-13	sub2302	2302	2	1	149	2	2	4	4	6	1	1	0	0.68766	0	0.8	0	24	82	83	0	
14-Apr-13	sub2302	2302	2	1	150	2	2	4	4	6	1	2	1	0.39187	1	0.8	0	24	62	63	1	
14-Apr-13	sub2302	2302	2	1	1	3	1	6	2	1	0	2	0	0.69926	1	0.6	1	16	37	51	0	
14-Apr-13	sub2302	2302	2	1	2	3	1	3	6	2	1	2	0	0.50833	0	0.9	0	13	42	43	0	
14-Apr-13	sub2302	2302	2	1	3	3	1	6	2	1	0	2	0	0.30131	1	0.9	0	16	37	48	1	
14-Apr-13	sub2302	2302	2	1	4	3	1	5	3	1	1	2	0	0.4944	0	0.9	0	15	45	46	1	
14-Apr-13	sub2302	2302	2	1	5	3	1	2	5	5	1	2	1	0.46432	1	0.9	0	12	30	31	1	
14-Apr-13	sub2302	2302	2	1	6	3	1	6	2	1	0	2	0	0.50187	1	0.9	0	16	37	48	0	
14-Apr-13	sub2302	2302	2	1	7	3	1	6	2	1	1	1	0	0.5819	0	0.9	0	16	45	46	0	
14-Apr-13	sub2302	2302	2	1	8	3	1	2	5	5	1	1	0	0.48451	0	0.9	0	12	40	41	1	
14-Apr-13	sub2302	2302	2	1	9	3	1	4	4	5	1	1	0	0.45403	0	0.9	0	14	42	43	1	
14-Apr-13	sub2302	2302	2	1	10	3	1	4	4	5	1	2	1	0.5317	1	0.9	0	14	32	33	0	
14-Apr-13	sub2302	2302	2	1	11	3	1	5	3	1	1	1	1	0.79806	1	0.9	0	15	35	36	0	
14-Apr-13	sub2302	2302	2	1	12	3	1	5	3	1	0	1	0	0.47202	1	0.9	0	15	37	48	1	
14-Apr-13	sub2302	2302	2	1	13	3	1	4	4	5	1	1	0	0.68743	0	0.9	0	14	42	43	0	
14-Apr-13	sub2302	2302	2	1	14	3	1	3	6	2	0	1	0	0.77664	1	0.9	0	13	34	49	0	
14-Apr-13	sub2302	2302	2	1	15	3	1	2	5	5	1	1	0	0.7926	0	0.9	0	12	40	41	0	
14-Apr-13	sub2302	2302	2	1	16	3	1	3	6	2	1	2	0	0.67396	0	0.8	0	13	42	43	0	
14-Apr-13	sub2302	2302	2	1	17	3	1	4	4	5	1	1	0	0.68471	0	0.8	0	14	42	43	0	
14-Apr-13	sub2302	2302	2	1	18	3	1	4	4	5	1	2	1	0.70489	1	0.7	1	14	32	51	0	
14-Apr-13	sub2302	2302	2	1	19	3	1	1	1	6	1	2	0	0.55695	0	0.9	0	11	40	41	0	
14-Apr-13	sub2302	2302	2	1	20	3	1	6	2	1	0	2	0	0.84822	1	0.9	0	16	37	48	0	
14-Apr-13	sub2302	2302	2	1	21	3	1	4	4	5	1	1	0	0.751	0	0.9	0	14	42	43	0	
14-Apr-13	sub2302	2302	2	1	22	3	1	5	3	1	0	2	1	0.67698	0	0.9	0	15	47	38	0	
14-Apr-13	sub2302	2302	2	1	23	3	1	2	5	5	1	1	0	0.74662	0	0.9	0	12	40	41	0	
14-Apr-13	sub2302	2302	2	1	24	3	1	5	3	1	1	2	0	0.79075	0	0.9	0	15	45	46	0	
14-Apr-13	sub2302	2302	2	1	25	3	1	1	1	6	1	1	1	0.35268	1	0.9	0	11	30	31	1	
14-Apr-13	sub2302	2302	2	1	26	3	1	4	4	5	1	1	0	0.66819	0	0.9	0	14	42	43	0	
14-Apr-13	sub2302	2302	2	1	27	3	1	3	6	2	1	2	0	0.72454	0	0.9	0	13	42	43	0	
14-Apr-13	sub2302	2302	2	1	28	3	1	4	4	5	1	2	1	0.95721	1	0.9	1	14	32	51	0	
14-Apr-13	sub2302	2302	2	1	29	3	1	2	5	5	1	2	1	0.59222	1	0.9	0	12	30	31	0	
14-Apr-13	sub2302	2302	2	1	30	3	1	3	6	2	1	2	0	0.63257	0	0.9	0	13	42	43	0	
14-Apr-13	sub2302	2302	2	1	31	3	1	6	2	1	1	2	1	0.63938	1	0.9	0	16	35	36	0	
14-Apr-13	sub2302	2302	2	1	32	3	1	3	6	2	1	2	0	0.74138	0	0.9	0	13	42	43	0	
14-Apr-13	sub2302	2302	2	1	33	3	1	1	1	6	1	1	1	0.48743	1	0.9	0	11	30	31	1	
14-Apr-13	sub2302	2302	2	1	34	3	1	2	5	5	1	1	0	0.38855	0	0.9	0	12	40	41	1	
14-Apr-13	sub2302	2302	2	1	35	3	1	3	6	2	1	2	0	0.51282	0	0.9	0	13	42	43	0	
14-Apr-13	sub2302	2302	2	1	36	3	1	5	3	1	0	2	1	0.4394	0	0.9	0	15	47	38	1	
14-Apr-13	sub2302	2302	2	1	37	3	1	3	6	2	1	2	0	0.3999	0	0.9	0	13	42	43	1	
14-Apr-13	sub2302	2302	2	1	38	3	1	6	2	1	0	2	0	0.54834	1	0.9	0	16	37	48	0	
14-Apr-13	sub2302	2302	2	1	39	3	1	1	1	6	1	1	1	0.63042	1	0.9	0	11	30	31	0	
14-Apr-13	sub2302	2302	2	1	40	3	1	4	4	5	1	1	0	0.67494	0	0.9	0	14	42	43	0	
14-Apr-13	sub2302	2302	2	1	41	3	1	3	6	2	0	2	1	0.5152	0	0.9	0	13	44	39	0	
14-Apr-13	sub2302	2302	2	1	42	3	1	1	1	6	1	1	1	0.67164	1	0.9	0	11	30	31	0	
14-Apr-13	sub2302	2302	2	1	43	3	1	5	3	1	0	2	1	0.71515	0	0.9	0	15	47	38	0	
14-Apr-13	sub2302	2302	2	1	44	3	1	6	2	1	1	2	1	0.52788	1	0.8	0	16	35	36	0	
14-Apr-13	sub2302	2302	2	1	45	3	1	1	1	6	1	1	1	0.63143	1	0.8	0	11	30	31	0	
14-Apr-13	sub2302	2302	2	1	46	3	1	1	1	6	1	1	1	0.46946	1	0.8	0	11	30	31	1	
14-Apr-13	sub2302	2302	2	1	47	3	1	6	2	1	0	2	0	0.65542	1	0.8	0	16	37	48	0	
14-Apr-13	sub2302	2302	2	1	48	3	1	5	3	1	1	2	0	0.56041	0	0.8	0	15	45	46	0	
14-Apr-13	sub2302	2302	2	1	49	3	1	4	4	5	0	2	0	0.69477	1	0.8	0	14	34	49	0	
14-Apr-13	sub2302	2302	2	1	50	3	1	6	2	1	0	2	0	0.53546	1	0.8	0	16	37	48	0	
14-Apr-13	sub2302	2302	2	1	51	3	1	1	1	6	1	2	0	0.39532	0	0.7	0	11	40	41	1	
14-Apr-13	sub2302	2302	2	1	52	3	1	6	2	1	0	2	0	0.58685	1	0.7	0	16	37	48	0	
14-Apr-13	sub2302	2302	2	1	53	3	1	4	4	5	0	2	0	0.80119	1	0.7	1	14	34	51	0	
14-Apr-13	sub2302	2302	2	1	54	3	1	3	6	2	1	2	0	0.81055	0	0.9	0	13	42	43	0	
14-Apr-13	sub2302	2302	2	1	55	3	1	6	2	1	1	2	1	0.57779	1	0.9	0	16	35	36	0	
14-Apr-13	sub2302	2302	2	1	56	3	1	5	3	1	1	2	0	0.83533	0	0.9	0	15	45	46	0	
14-Apr-13	sub2302	2302	2	1	57	3	1	1	1	6	1	1	1	0.47674	1	0.9	0	11	30	31	1	
14-Apr-13	sub2302	2302	2	1	58	3	1	2	5	5	1	1	0	0.48848	0	0.9	0	12	40	41	1	
14-Apr-13	sub2302	2302	2	1	59	3	1	3	6	2	0	2	1	0.42803	0	0.8	0	13	44	39	1	
14-Apr-13	sub2302	2302	2	1	60	3	1	2	5	5	1	1	0	0.68126	0	0.8	0	12	40	41	0	
14-Apr-13	sub2302	2302	2	1	61	3	1	3	6	2	1	1	1	0.51156	1	0.8	0	13	32	33	0	
14-Apr-13	sub2302	2302	2	1	62	3	1	2	5	5	1	2	1	0.56507	1	0.8	0	12	30	31	0	
14-Apr-13	sub2302	2302	2	1	63	3	1	6	2	1	1	2	1	0.52739	1	0.8	0	16	35	36	0	
14-Apr-13	sub2302	2302	2	1	64	3	1	4	4	5	1	1	0	0.74671	0	0.8	0	14	42	43	0	
14-Apr-13	sub2302	2302	2	1	65	3	1	2	5	5	1	2	1	0.57601	1	0.8	0	12	30	31	0	
14-Apr-13	sub2302	2302	2	1	66	3	1	2	5	5	1	2	1	0.45625	1	0.8	0	12	30	31	1	
14-Apr-13	sub2302	2302	2	1	67	3	1	1	1	6	1	1	1	0.41892	1	0.8	0	11	30	31	1	
14-Apr-13	sub2302	2302	2	1	68	3	1	2	5	5	1	2	1	0.61608	1	0.7	0	12	30	31	0	
14-Apr-13	sub2302	2302	2	1	69	3	1	1	1	6	1	1	1	0.4244	1	0.7	0	11	30	31	1	
14-Apr-13	sub2302	2302	2	1	70	3	1	5	3	1	1	2	0	0.5822	0	0.7	0	15	45	46	0	
14-Apr-13	sub2302	2302	2	1	71	3	1	1	1	6	1	1	1	0.52443	1	0.7	0	11	30	31	0	
14-Apr-13	sub2302	2302	2	1	72	3	1	5	3	1	1	1	1	0.43232	1	0.7	0	15	35	36	1	
14-Apr-13	sub2302	2302	2	1	73	3	1	2	5	5	1	2	1	0.44819	1	0.7	0	12	30	31	1	
14-Apr-13	sub2302	2302	2	1	74	3	1	3	6	2	1	2	0	0.60026	0	0.7	0	13	42	43	0	
14-Apr-13	sub2302	2302	2	1	75	3	1	5	3	1	0	1	0	0.67932	1	0.7	0	15	37	48	0	
14-Apr-13	sub2302	2302	2	1	76	3	2	1	1	6	1	1	1	0.62221	1	0.7	0	21	60	61	0	
14-Apr-13	sub2302	2302	2	1	77	3	2	5	3	1	0	1	0	0.52906	1	0.7	0	25	67	88	0	
14-Apr-13	sub2302	2302	2	1	78	3	2	5	3	1	0	1	0	0.52118	1	0.7	0	25	67	88	0	
14-Apr-13	sub2302	2302	2	1	79	3	2	6	2	1	0	1	1	0.64477	0	0.7	0	26	87	68	0	
14-Apr-13	sub2302	2302	2	1	80	3	2	3	6	2	1	2	0	0.71206	0	0.7	1	23	82	51	0	
14-Apr-13	sub2302	2302	2	1	81	3	2	2	5	5	1	1	0	0.74269	0	0.8	0	22	80	81	0	
14-Apr-13	sub2302	2302	2	1	82	3	2	1	1	6	1	1	1	0.60217	1	0.8	0	21	60	61	0	
14-Apr-13	sub2302	2302	2	1	83	3	2	4	4	5	1	2	1	0.58334	1	0.8	0	24	62	63	0	
14-Apr-13	sub2302	2302	2	1	84	3	2	1	1	6	1	1	1	0.60252	1	0.8	0	21	60	61	0	
14-Apr-13	sub2302	2302	2	1	85	3	2	6	2	1	1	2	1	0.63065	1	0.7	0	26	65	66	0	
14-Apr-13	sub2302	2302	2	1	86	3	2	1	1	6	1	1	1	0.57279	1	0.7	0	21	60	61	0	
14-Apr-13	sub2302	2302	2	1	87	3	2	2	5	5	1	2	1	0.66586	1	0.7	0	22	60	61	0	
14-Apr-13	sub2302	2302	2	1	88	3	2	3	6	2	1	2	0	0.66787	0	0.7	0	23	82	83	0	
14-Apr-13	sub2302	2302	2	1	89	3	2	5	3	1	0	1	0	0.55919	1	0.7	0	25	67	88	0	
14-Apr-13	sub2302	2302	2	1	90	3	2	5	3	1	0	1	0	0.65363	1	0.7	0	25	67	88	0	
14-Apr-13	sub2302	2302	2	1	91	3	2	4	4	5	1	2	1	0.55897	1	0.7	0	24	62	63	0	
14-Apr-13	sub2302	2302	2	1	92	3	2	4	4	5	1	2	1	0.49789	1	0.7	0	24	62	63	1	
14-Apr-13	sub2302	2302	2	1	93	3	2	6	2	1	1	2	1	0.70655	1	0.7	1	26	65	51	0	
14-Apr-13	sub2302	2302	2	1	94	3	2	1	1	6	1	1	1	0.65919	1	0.8	0	21	60	61	0	
14-Apr-13	sub2302	2302	2	1	95	3	2	1	1	6	1	1	1	0.54481	1	0.8	0	21	60	61	0	
14-Apr-13	sub2302	2302	2	1	96	3	2	6	2	1	0	1	1	0.49968	0	0.8	0	26	87	68	1	
14-Apr-13	sub2302	2302	2	1	97	3	2	4	4	5	1	2	1	0.58812	1	0.8	0	24	62	63	0	
14-Apr-13	sub2302	2302	2	1	98	3	2	1	1	6	1	1	1	0.51003	1	0.8	0	21	60	61	0	
14-Apr-13	sub2302	2302	2	1	99	3	2	2	5	5	1	2	1	0.62813	1	0.8	0	22	60	61	0	
14-Apr-13	sub2302	2302	2	1	100	3	2	6	2	1	0	2	0	0.55028	1	0.8	0	26	67	88	0	
14-Apr-13	sub2302	2302	2	1	101	3	2	6	2	1	1	1	0	0.59371	0	0.7	0	26	85	86	0	
14-Apr-13	sub2302	2302	2	1	102	3	2	3	6	2	1	2	0	0.64087	0	0.7	0	23	82	83	0	
14-Apr-13	sub2302	2302	2	1	103	3	2	4	4	5	1	2	1	0.56251	1	0.7	0	24	62	63	0	
14-Apr-13	sub2302	2302	2	1	104	3	2	5	3	1	0	1	0	0.58011	1	0.7	0	25	67	88	0	
14-Apr-13	sub2302	2302	2	1	105	3	2	2	5	5	1	2	1	0.74176	1	0.7	1	22	60	51	0	
14-Apr-13	sub2302	2302	2	1	106	3	2	3	6	2	0	2	1	0.41512	0	0.8	0	23	84	69	1	
14-Apr-13	sub2302	2302	2	1	107	3	2	4	4	5	0	2	0	0.55167	1	0.8	0	24	64	89	0	
14-Apr-13	sub2302	2302	2	1	108	3	2	2	5	5	1	1	0	0.62485	0	0.8	0	22	80	81	0	
14-Apr-13	sub2302	2302	2	1	109	3	2	5	3	1	0	1	0	0.44066	1	0.8	0	25	67	88	1	
14-Apr-13	sub2302	2302	2	1	110	3	2	6	2	1	0	1	1	0.60095	0	0.8	0	26	87	68	0	
14-Apr-13	sub2302	2302	2	1	111	3	2	5	3	1	0	1	0	0.5827	1	0.8	0	25	67	88	0	
14-Apr-13	sub2302	2302	2	1	112	3	2	6	2	1	0	1	1	0.71125	0	0.8	0	26	87	68	0	
14-Apr-13	sub2302	2302	2	1	113	3	2	2	5	5	1	2	1	0.72565	1	0.8	0	22	60	61	0	
14-Apr-13	sub2302	2302	2	1	114	3	2	3	6	2	1	2	0	0.69598	0	0.8	0	23	82	83	0	
14-Apr-13	sub2302	2302	2	1	115	3	2	4	4	5	1	2	1	0.69755	1	0.8	0	24	62	63	0	
14-Apr-13	sub2302	2302	2	1	116	3	2	4	4	5	1	2	1	0.56883	1	0.8	0	24	62	63	0	
14-Apr-13	sub2302	2302	2	1	117	3	2	1	1	6	1	1	1	0.53871	1	0.8	0	21	60	61	0	
14-Apr-13	sub2302	2302	2	1	118	3	2	3	6	2	0	1	0	0.62439	1	0.7	0	23	64	89	0	
14-Apr-13	sub2302	2302	2	1	119	3	2	6	2	1	1	1	0	0.39189	0	0.7	0	26	85	86	1	
14-Apr-13	sub2302	2302	2	1	120	3	2	6	2	1	1	1	0	0.55933	0	0.7	0	26	85	86	0	
14-Apr-13	sub2302	2302	2	1	121	3	2	5	3	1	0	1	0	0.58361	1	0.7	0	25	67	88	0	
14-Apr-13	sub2302	2302	2	1	122	3	2	4	4	5	1	2	1	0.56507	1	0.7	0	24	62	63	0	
14-Apr-13	sub2302	2302	2	1	123	3	2	5	3	1	0	1	0	0.58858	1	0.7	0	25	67	88	0	
14-Apr-13	sub2302	2302	2	1	124	3	2	5	3	1	0	2	1	0.41102	0	0.7	0	25	87	68	1	
14-Apr-13	sub2302	2302	2	1	125	3	2	1	1	6	1	1	1	0.59296	1	0.7	0	21	60	61	0	
14-Apr-13	sub2302	2302	2	1	126	3	2	2	5	5	1	2	1	0.55497	1	0.7	0	22	60	61	0	
14-Apr-13	sub2302	2302	2	1	127	3	2	3	6	2	1	2	0	0.53846	0	0.7	0	23	82	83	0	
14-Apr-13	sub2302	2302	2	1	128	3	2	1	1	6	1	1	1	0.52281	1	0.7	0	21	60	61	0	
14-Apr-13	sub2302	2302	2	1	129	3	2	4	4	5	1	2	1	0.76197	1	0.7	1	24	62	51	0	
14-Apr-13	sub2302	2302	2	1	130	3	2	1	1	6	1	2	0	0.38215	0	0.8	0	21	80	81	1	
14-Apr-13	sub2302	2302	2	1	131	3	2	2	5	5	1	2	1	0.75108	1	0.8	0	22	60	61	0	
14-Apr-13	sub2302	2302	2	1	132	3	2	4	4	5	0	2	0	0.605	1	0.8	0	24	64	89	0	
14-Apr-13	sub2302	2302	2	1	133	3	2	5	3	1	0	1	0	0.53556	1	0.8	0	25	67	88	0	
14-Apr-13	sub2302	2302	2	1	134	3	2	3	6	2	1	2	0	0.65837	0	0.8	0	23	82	83	0	
14-Apr-13	sub2302	2302	2	1	135	3	2	3	6	2	1	1	1	0.48017	1	0.7	0	23	62	63	1	
14-Apr-13	sub2302	2302	2	1	136	3	2	2	5	5	1	1	0	0.73237	0	0.7	1	22	80	51	0	
14-Apr-13	sub2302	2302	2	1	137	3	2	5	3	1	0	1	0	0.69948	1	0.8	0	25	67	88	0	
14-Apr-13	sub2302	2302	2	1	138	3	2	6	2	1	0	2	0	0.39881	1	0.8	0	26	67	88	1	
14-Apr-13	sub2302	2302	2	1	139	3	2	3	6	2	1	2	0	0.46596	0	0.8	0	23	82	83	1	
14-Apr-13	sub2302	2302	2	1	140	3	2	1	1	6	1	1	1	0.55238	1	0.8	0	21	60	61	0	
14-Apr-13	sub2302	2302	2	1	141	3	2	3	6	2	1	1	1	0.38817	1	0.8	0	23	62	63	1	
14-Apr-13	sub2302	2302	2	1	142	3	2	1	1	6	1	1	1	0.5273	1	0.8	0	21	60	61	0	
14-Apr-13	sub2302	2302	2	1	143	3	2	6	2	1	1	2	1	0.61481	1	0.8	0	26	65	66	0	
14-Apr-13	sub2302	2302	2	1	144	3	2	4	4	5	0	2	0	0.67168	1	0.8	0	24	64	89	0	
14-Apr-13	sub2302	2302	2	1	145	3	2	2	5	5	1	2	1	0.77789	1	0.8	0	22	60	61	0	
14-Apr-13	sub2302	2302	2	1	146	3	2	5	3	1	0	1	0	0.45688	1	0.8	0	25	67	88	1	
14-Apr-13	sub2302	2302	2	1	147	3	2	2	5	5	1	2	1	0.77364	1	0.8	0	22	60	61	0	
14-Apr-13	sub2302	2302	2	1	148	3	2	4	4	5	1	2	1	0.63222	1	0.8	0	24	62	63	0	
14-Apr-13	sub2302	2302	2	1	149	3	2	2	5	5	1	2	1	0.51695	1	0.8	0	22	60	61	0	
14-Apr-13	sub2302	2302	2	1	150	3	2	3	6	2	1	1	1	0.67256	1	0.8	0	23	62	63	0	
14-Apr-13	sub2302	2302	2	1	1	4	1	6	4	3	1	2	1	0.65917	1	0.6	1	16	35	51	0	
14-Apr-13	sub2302	2302	2	1	2	4	1	6	4	3	0	2	0	0.42184	1	0.9	0	16	37	48	1	
14-Apr-13	sub2302	2302	2	1	3	4	1	5	5	3	1	2	0	0.45715	0	0.9	0	15	45	46	1	
14-Apr-13	sub2302	2302	2	1	4	4	1	4	6	6	1	2	1	0.43417	1	0.9	0	14	32	33	1	
14-Apr-13	sub2302	2302	2	1	5	4	1	6	4	3	0	2	0	0.40553	1	0.9	0	16	37	48	1	
14-Apr-13	sub2302	2302	2	1	6	4	1	6	4	3	0	1	1	0.63577	0	0.9	0	16	47	38	0	
14-Apr-13	sub2302	2302	2	1	7	4	1	2	3	5	1	2	1	0.54188	1	0.9	0	12	30	31	0	
14-Apr-13	sub2302	2302	2	1	8	4	1	1	1	2	1	1	1	0.59385	1	0.9	0	11	30	31	0	
14-Apr-13	sub2302	2302	2	1	9	4	1	4	6	6	1	1	0	0.66923	0	0.9	0	14	42	43	0	
14-Apr-13	sub2302	2302	2	1	10	4	1	1	1	2	1	1	1	0.56948	1	0.9	0	11	30	31	0	
14-Apr-13	sub2302	2302	2	1	11	4	1	6	4	3	1	2	1	0.60908	1	0.9	0	16	35	36	0	
14-Apr-13	sub2302	2302	2	1	12	4	1	4	6	6	1	1	0	0.69213	0	0.9	0	14	42	43	0	
14-Apr-13	sub2302	2302	2	1	13	4	1	2	3	5	1	2	1	0.70652	1	0.9	0	12	30	31	0	
14-Apr-13	sub2302	2302	2	1	14	4	1	3	2	6	1	1	1	0.55905	1	0.9	0	13	32	33	0	
14-Apr-13	sub2302	2302	2	1	15	4	1	3	2	6	0	1	0	0.524	1	0.9	0	13	34	49	0	
14-Apr-13	sub2302	2302	2	1	16	4	1	1	1	2	1	1	1	0.67019	1	0.8	0	11	30	31	0	
14-Apr-13	sub2302	2302	2	1	17	4	1	6	4	3	0	2	0	0.51766	1	0.8	0	16	37	48	0	
14-Apr-13	sub2302	2302	2	1	18	4	1	2	3	5	1	1	0	0.69692	0	0.7	0	12	40	41	0	
14-Apr-13	sub2302	2302	2	1	19	4	1	3	2	6	0	1	0	0.65087	1	0.7	0	13	34	49	0	
14-Apr-13	sub2302	2302	2	1	20	4	1	3	2	6	1	1	1	0.48457	1	0.7	0	13	32	33	1	
14-Apr-13	sub2302	2302	2	1	21	4	1	5	5	3	0	2	1	0.56394	0	0.6	0	15	47	38	0	
14-Apr-13	sub2302	2302	2	1	22	4	1	5	5	3	1	1	1	0.53334	1	0.6	0	15	35	36	0	
14-Apr-13	sub2302	2302	2	1	23	4	1	2	3	5	1	2	1	0.71207	1	0.6	1	12	30	51	0	
14-Apr-13	sub2302	2302	2	1	24	4	1	2	3	5	1	2	1	0.51613	1	0.9	0	12	30	31	0	
14-Apr-13	sub2302	2302	2	1	25	4	1	4	6	6	0	1	1	0.63854	0	0.9	0	14	44	39	0	
14-Apr-13	sub2302	2302	2	1	26	4	1	2	3	5	1	1	0	0.4054	0	0.9	0	12	40	41	1	
14-Apr-13	sub2302	2302	2	1	27	4	1	6	4	3	1	1	0	0.65945	0	0.9	0	16	45	46	0	
14-Apr-13	sub2302	2302	2	1	28	4	1	4	6	6	1	1	0	0.65974	0	0.9	0	14	42	43	0	
14-Apr-13	sub2302	2302	2	1	29	4	1	1	1	2	1	1	1	0.51268	1	0.9	0	11	30	31	0	
14-Apr-13	sub2302	2302	2	1	30	4	1	5	5	3	1	2	0	0.55184	0	0.8	0	15	45	46	0	
14-Apr-13	sub2302	2302	2	1	31	4	1	1	1	2	1	2	0	0.42713	0	0.8	0	11	40	41	1	
14-Apr-13	sub2302	2302	2	1	32	4	1	5	5	3	1	1	1	0.33902	1	0.8	0	15	35	36	1	
14-Apr-13	sub2302	2302	2	1	33	4	1	5	5	3	1	1	1	0.41528	1	0.8	0	15	35	36	1	
14-Apr-13	sub2302	2302	2	1	34	4	1	1	1	2	1	1	1	0.46481	1	0.8	0	11	30	31	1	
14-Apr-13	sub2302	2302	2	1	35	4	1	6	4	3	0	2	0	0.58453	1	0.7	0	16	37	48	0	
14-Apr-13	sub2302	2302	2	1	36	4	1	1	1	2	1	2	0	0.51508	0	0.7	0	11	40	41	0	
14-Apr-13	sub2302	2302	2	1	37	4	1	5	5	3	1	2	0	0.43783	0	0.7	0	15	45	46	1	
14-Apr-13	sub2302	2302	2	1	38	4	1	2	3	5	1	1	0	0.44162	0	0.7	0	12	40	41	1	
14-Apr-13	sub2302	2302	2	1	39	4	1	4	6	6	1	1	0	0.62178	0	0.7	0	14	42	43	0	
14-Apr-13	sub2302	2302	2	1	40	4	1	2	3	5	1	1	0	0.42804	0	0.7	0	12	40	41	1	
14-Apr-13	sub2302	2302	2	1	41	4	1	6	4	3	1	2	1	0.56958	1	0.6	0	16	35	36	0	
14-Apr-13	sub2302	2302	2	1	42	4	1	2	3	5	1	2	1	0.5997	1	0.6	0	12	30	31	0	
14-Apr-13	sub2302	2302	2	1	43	4	1	3	2	6	1	2	0	0.53946	0	0.6	0	13	42	43	0	
14-Apr-13	sub2302	2302	2	1	44	4	1	6	4	3	0	2	0	0.61721	1	0.6	1	16	37	51	0	
14-Apr-13	sub2302	2302	2	1	45	4	1	2	3	5	1	2	1	0.55056	1	0.8	0	12	30	31	0	
14-Apr-13	sub2302	2302	2	1	46	4	1	4	6	6	0	1	1	0.52349	0	0.8	0	14	44	39	0	
14-Apr-13	sub2302	2302	2	1	47	4	1	4	6	6	1	1	0	0.40651	0	0.8	0	14	42	43	1	
14-Apr-13	sub2302	2302	2	1	48	4	1	2	3	5	1	2	1	0.61051	1	0.8	0	12	30	31	0	
14-Apr-13	sub2302	2302	2	1	49	4	1	2	3	5	1	2	1	0.51426	1	0.8	0	12	30	31	0	
14-Apr-13	sub2302	2302	2	1	50	4	1	4	6	6	1	2	1	0.48389	1	0.8	0	14	32	33	1	
14-Apr-13	sub2302	2302	2	1	51	4	1	5	5	3	0	1	0	0.45461	1	0.7	0	15	37	48	1	
14-Apr-13	sub2302	2302	2	1	52	4	1	1	1	2	1	1	1	0.6247	1	0.7	0	11	30	31	0	
14-Apr-13	sub2302	2302	2	1	53	4	1	6	4	3	1	2	1	0.43794	1	0.7	0	16	35	36	1	
14-Apr-13	sub2302	2302	2	1	54	4	1	3	2	6	0	1	0	0.61855	1	0.7	0	13	34	49	0	
14-Apr-13	sub2302	2302	2	1	55	4	1	4	6	6	1	1	0	0.36473	0	0.7	0	14	42	43	1	
14-Apr-13	sub2302	2302	2	1	56	4	1	3	2	6	1	1	1	0.45252	1	0.7	0	13	32	33	1	
14-Apr-13	sub2302	2302	2	1	57	4	1	6	4	3	1	2	1	0.47392	1	0.7	0	16	35	36	1	
14-Apr-13	sub2302	2302	2	1	58	4	1	6	4	3	0	2	0	0.48149	1	0.7	0	16	37	48	1	
14-Apr-13	sub2302	2302	2	1	59	4	1	4	6	6	1	1	0	0.66145	0	0.7	0	14	42	43	0	
14-Apr-13	sub2302	2302	2	1	60	4	1	3	2	6	1	1	1	0.63855	1	0.7	0	13	32	33	0	
14-Apr-13	sub2302	2302	2	1	61	4	1	3	2	6	1	1	1	0.64351	1	0.6	1	13	32	51	0	
14-Apr-13	sub2302	2302	2	1	62	4	1	5	5	3	0	2	1	0.57723	0	0.8	0	15	47	38	0	
14-Apr-13	sub2302	2302	2	1	63	4	1	1	1	2	1	1	1	0.68064	1	0.8	0	11	30	31	0	
14-Apr-13	sub2302	2302	2	1	64	4	1	1	1	2	1	2	0	0.40809	0	0.8	0	11	40	41	1	
14-Apr-13	sub2302	2302	2	1	65	4	1	5	5	3	0	1	0	0.59995	1	0.8	0	15	37	48	0	
14-Apr-13	sub2302	2302	2	1	66	4	1	3	2	6	1	1	1	0.57493	1	0.8	0	13	32	33	0	
14-Apr-13	sub2302	2302	2	1	67	4	1	1	1	2	1	1	1	0.61318	1	0.8	0	11	30	31	0	
14-Apr-13	sub2302	2302	2	1	68	4	1	5	5	3	0	2	1	0.37104	0	0.7	0	15	47	38	1	
14-Apr-13	sub2302	2302	2	1	69	4	1	3	2	6	1	1	1	0.57977	1	0.7	0	13	32	33	0	
14-Apr-13	sub2302	2302	2	1	70	4	1	4	6	6	1	2	1	0.34487	1	0.7	0	14	32	33	1	
14-Apr-13	sub2302	2302	2	1	71	4	1	3	2	6	1	1	1	0.31399	1	0.7	0	13	32	33	1	
14-Apr-13	sub2302	2302	2	1	72	4	1	3	2	6	1	2	0	0.37116	0	0.7	0	13	42	43	1	
14-Apr-13	sub2302	2302	2	1	73	4	1	1	1	2	1	1	1	0.46146	1	0.7	0	11	30	31	1	
14-Apr-13	sub2302	2302	2	1	74	4	1	5	5	3	1	2	0	0.46912	0	0.7	0	15	45	46	1	
14-Apr-13	sub2302	2302	2	1	75	4	1	2	3	5	1	1	0	0.67934	0	0.7	0	12	40	41	0	
14-Apr-13	sub2302	2302	2	1	76	4	2	2	3	5	1	1	0	0.71616	0	0.7	1	22	80	51	0	
14-Apr-13	sub2302	2302	2	1	77	4	2	4	6	6	0	2	0	0.58308	1	0.8	0	24	64	89	0	
14-Apr-13	sub2302	2302	2	1	78	4	2	4	6	6	1	1	0	0.52478	0	0.8	0	24	82	83	0	
14-Apr-13	sub2302	2302	2	1	79	4	2	6	4	3	0	2	0	0.63391	1	0.8	0	26	67	88	0	
14-Apr-13	sub2302	2302	2	1	80	4	2	4	6	6	1	1	0	0.54338	0	0.8	0	24	82	83	0	
14-Apr-13	sub2302	2302	2	1	81	4	2	1	1	2	1	2	0	0.57902	0	0.8	0	21	80	81	0	
14-Apr-13	sub2302	2302	2	1	82	4	2	3	2	6	1	2	0	0.63853	0	0.8	0	23	82	83	0	
14-Apr-13	sub2302	2302	2	1	83	4	2	3	2	6	1	2	0	0.41455	0	0.8	0	23	82	83	1	
14-Apr-13	sub2302	2302	2	1	84	4	2	2	3	5	1	2	1	0.45344	1	0.8	0	22	60	61	1	
14-Apr-13	sub2302	2302	2	1	85	4	2	3	2	6	0	2	1	0.4802	0	0.7	0	23	84	69	1	
14-Apr-13	sub2302	2302	2	1	86	4	2	6	4	3	1	1	0	0.5267	0	0.7	0	26	85	86	0	
14-Apr-13	sub2302	2302	2	1	87	4	2	5	5	3	0	2	1	0.79526	0	0.7	1	25	87	51	0	
14-Apr-13	sub2302	2302	2	1	88	4	2	2	3	5	1	2	1	0.37103	1	0.8	0	22	60	61	1	
14-Apr-13	sub2302	2302	2	1	89	4	2	5	5	3	0	1	0	0.42018	1	0.8	0	25	67	88	1	
14-Apr-13	sub2302	2302	2	1	90	4	2	5	5	3	0	2	1	0.61399	0	0.8	0	25	87	68	0	
14-Apr-13	sub2302	2302	2	1	91	4	2	4	6	6	1	1	0	0.58498	0	0.8	0	24	82	83	0	
14-Apr-13	sub2302	2302	2	1	92	4	2	1	1	2	1	2	0	0.60162	0	0.8	0	21	80	81	0	
14-Apr-13	sub2302	2302	2	1	93	4	2	2	3	5	1	2	1	0.69219	1	0.8	0	22	60	61	0	
14-Apr-13	sub2302	2302	2	1	94	4	2	2	3	5	1	2	1	0.47804	1	0.8	0	22	60	61	1	
14-Apr-13	sub2302	2302	2	1	95	4	2	1	1	2	1	1	1	0.55228	1	0.8	0	21	60	61	0	
14-Apr-13	sub2302	2302	2	1	96	4	2	6	4	3	0	1	1	0.7075	0	0.8	0	26	87	68	0	
14-Apr-13	sub2302	2302	2	1	97	4	2	3	2	6	0	2	1	0.47141	0	0.8	0	23	84	69	1	
14-Apr-13	sub2302	2302	2	1	98	4	2	6	4	3	0	1	1	0.463	0	0.8	0	26	87	68	1	
14-Apr-13	sub2302	2302	2	1	99	4	2	2	3	5	1	2	1	0.43033	1	0.8	0	22	60	61	1	
14-Apr-13	sub2302	2302	2	1	100	4	2	6	4	3	1	1	0	0.39415	0	0.8	0	26	85	86	1	
14-Apr-13	sub2302	2302	2	1	101	4	2	5	5	3	0	2	1	0.63198	0	0.7	0	25	87	68	0	
14-Apr-13	sub2302	2302	2	1	102	4	2	2	3	5	1	1	0	0.49162	0	0.7	0	22	80	81	1	
14-Apr-13	sub2302	2302	2	1	103	4	2	6	4	3	0	2	0	1.15372	1	0.7	1	26	67	51	0	
14-Apr-13	sub2302	2302	2	1	104	4	2	4	6	6	1	1	0	0.36054	0	0.8	0	24	82	83	1	
14-Apr-13	sub2302	2302	2	1	105	4	2	3	2	6	1	2	0	0.61598	0	0.8	0	23	82	83	0	
14-Apr-13	sub2302	2302	2	1	106	4	2	1	1	2	1	2	0	0.4509	0	0.8	0	21	80	81	1	
14-Apr-13	sub2302	2302	2	1	107	4	2	2	3	5	1	1	0	0.74077	0	0.8	0	22	80	81	0	
14-Apr-13	sub2302	2302	2	1	108	4	2	3	2	6	1	1	1	0.49245	1	0.8	0	23	62	63	1	
14-Apr-13	sub2302	2302	2	1	109	4	2	3	2	6	1	1	1	0.47317	1	0.8	0	23	62	63	1	
14-Apr-13	sub2302	2302	2	1	110	4	2	6	4	3	1	2	1	0.62052	1	0.8	0	26	65	66	0	
14-Apr-13	sub2302	2302	2	1	111	4	2	2	3	5	1	1	0	0.67545	0	0.8	0	22	80	81	0	
14-Apr-13	sub2302	2302	2	1	112	4	2	1	1	2	1	1	1	0.55135	1	0.8	0	21	60	61	0	
14-Apr-13	sub2302	2302	2	1	113	4	2	4	6	6	1	1	0	0.60571	0	0.8	0	24	82	83	0	
14-Apr-13	sub2302	2302	2	1	114	4	2	4	6	6	1	1	0	0.60347	0	0.8	0	24	82	83	0	
14-Apr-13	sub2302	2302	2	1	115	4	2	2	3	5	1	2	1	0.54823	1	0.8	0	22	60	61	0	
14-Apr-13	sub2302	2302	2	1	116	4	2	1	1	2	1	2	0	0.4935	0	0.8	0	21	80	81	1	
14-Apr-13	sub2302	2302	2	1	117	4	2	5	5	3	0	2	1	0.57258	0	0.8	0	25	87	68	0	
14-Apr-13	sub2302	2302	2	1	118	4	2	5	5	3	0	2	1	0.53865	0	0.7	0	25	87	68	0	
14-Apr-13	sub2302	2302	2	1	119	4	2	6	4	3	1	1	0	0.4875	0	0.7	0	26	85	86	1	
14-Apr-13	sub2302	2302	2	1	120	4	2	5	5	3	0	2	1	0.73335	0	0.7	1	25	87	51	0	
14-Apr-13	sub2302	2302	2	1	121	4	2	2	3	5	1	2	1	0.51838	1	0.8	0	22	60	61	0	
14-Apr-13	sub2302	2302	2	1	122	4	2	5	5	3	0	2	1	0.39224	0	0.8	0	25	87	68	1	
14-Apr-13	sub2302	2302	2	1	123	4	2	4	6	6	1	2	1	0.65869	1	0.8	0	24	62	63	0	
14-Apr-13	sub2302	2302	2	1	124	4	2	1	1	2	1	2	0	0.45722	0	0.8	0	21	80	81	1	
14-Apr-13	sub2302	2302	2	1	125	4	2	6	4	3	0	2	0	0.63581	1	0.8	0	26	67	88	0	
14-Apr-13	sub2302	2302	2	1	126	4	2	5	5	3	0	1	0	0.63687	1	0.8	0	25	67	88	0	
14-Apr-13	sub2302	2302	2	1	127	4	2	3	2	6	1	1	1	0.69245	1	0.8	0	23	62	63	0	
14-Apr-13	sub2302	2302	2	1	128	4	2	1	1	2	1	1	1	0.87189	1	0.8	1	21	60	51	0	
14-Apr-13	sub2302	2302	2	1	129	4	2	5	5	3	0	1	0	0.46075	1	0.9	0	25	67	88	1	
14-Apr-13	sub2302	2302	2	1	130	4	2	6	4	3	0	2	0	0.573	1	0.8	0	26	67	88	0	
14-Apr-13	sub2302	2302	2	1	131	4	2	6	4	3	1	1	0	0.58967	0	0.8	0	26	85	86	0	
14-Apr-13	sub2302	2302	2	1	132	4	2	5	5	3	0	2	1	0.51039	0	0.8	0	25	87	68	0	
14-Apr-13	sub2302	2302	2	1	133	4	2	2	3	5	1	2	1	0.62135	1	0.8	0	22	60	61	0	
14-Apr-13	sub2302	2302	2	1	134	4	2	3	2	6	1	2	0	0.52167	0	0.8	0	23	82	83	0	
14-Apr-13	sub2302	2302	2	1	135	4	2	3	2	6	1	2	0	0.47282	0	0.8	0	23	82	83	1	
14-Apr-13	sub2302	2302	2	1	136	4	2	4	6	6	0	2	0	0.51942	1	0.8	0	24	64	89	0	
14-Apr-13	sub2302	2302	2	1	137	4	2	4	6	6	1	2	1	0.42502	1	0.8	0	24	62	63	1	
14-Apr-13	sub2302	2302	2	1	138	4	2	1	1	2	1	2	0	0.57725	0	0.8	0	21	80	81	0	
14-Apr-13	sub2302	2302	2	1	139	4	2	4	6	6	1	1	0	0.42505	0	0.8	0	24	82	83	1	
14-Apr-13	sub2302	2302	2	1	140	4	2	4	6	6	0	1	1	0.30945	0	0.8	0	24	84	69	1	
14-Apr-13	sub2302	2302	2	1	141	4	2	3	2	6	1	2	0	0.35826	0	0.8	0	23	82	83	1	
14-Apr-13	sub2302	2302	2	1	142	4	2	4	6	6	1	1	0	0.52023	0	0.8	0	24	82	83	0	
14-Apr-13	sub2302	2302	2	1	143	4	2	5	5	3	0	2	1	0.53711	0	0.8	0	25	87	68	0	
14-Apr-13	sub2302	2302	2	1	144	4	2	6	4	3	1	2	1	0.46982	1	0.8	0	26	65	66	1	
14-Apr-13	sub2302	2302	2	1	145	4	2	1	1	2	1	1	1	0.35973	1	0.8	0	21	60	61	1	
14-Apr-13	sub2302	2302	2	1	146	4	2	1	1	2	1	1	1	0.41644	1	0.8	0	21	60	61	1	
14-Apr-13	sub2302	2302	2	1	147	4	2	5	5	3	0	2	1	0.52877	0	0.8	0	25	87	68	0	
14-Apr-13	sub2302	2302	2	1	148	4	2	1	1	2	1	2	0	0.32946	0	0.8	0	21	80	81	1	
14-Apr-13	sub2302	2302	2	1	149	4	2	3	2	6	1	2	0	0.57535	0	0.8	0	23	82	83	0	
14-Apr-13	sub2302	2302	2	1	150	4	2	1	1	2	1	1	1	0.64515	1	0.8	0	21	60	61	0	
14-Apr-13	sub2302	2302	2	1	1	5	1	2	2	3	1	2	1	0.61858	1	0.6	1	12	30	51	0	
14-Apr-13	sub2302	2302	2	1	2	5	1	6	6	1	0	2	0	0.47888	1	0.9	0	16	37	48	1	
14-Apr-13	sub2302	2302	2	1	3	5	1	1	4	2	1	2	0	0.39957	0	0.9	0	11	40	41	1	
14-Apr-13	sub2302	2302	2	1	4	5	1	2	2	3	1	2	1	0.38267	1	0.9	0	12	30	31	1	
14-Apr-13	sub2302	2302	2	1	5	5	1	1	4	2	1	1	1	0.47838	1	0.9	0	11	30	31	1	
14-Apr-13	sub2302	2302	2	1	6	5	1	2	2	3	1	1	0	0.48354	0	0.9	0	12	40	41	1	
14-Apr-13	sub2302	2302	2	1	7	5	1	3	3	4	1	2	0	0.63042	0	0.9	0	13	42	43	0	
14-Apr-13	sub2302	2302	2	1	8	5	1	6	6	1	1	2	1	0.48765	1	0.9	0	16	35	36	1	
14-Apr-13	sub2302	2302	2	1	9	5	1	3	3	4	0	1	0	0.53153	1	0.9	0	13	34	49	0	
14-Apr-13	sub2302	2302	2	1	10	5	1	2	2	3	1	2	1	0.57247	1	0.9	0	12	30	31	0	
14-Apr-13	sub2302	2302	2	1	11	5	1	1	4	2	1	1	1	0.36188	1	0.9	0	11	30	31	1	
14-Apr-13	sub2302	2302	2	1	12	5	1	6	6	1	1	2	1	0.5501	1	0.9	0	16	35	36	0	
14-Apr-13	sub2302	2302	2	1	13	5	1	2	2	3	1	1	0	0.59915	0	0.9	0	12	40	41	0	
14-Apr-13	sub2302	2302	2	1	14	5	1	6	6	1	1	2	1	0.5602	1	0.9	0	16	35	36	0	
14-Apr-13	sub2302	2302	2	1	15	5	1	6	6	1	1	1	0	0.3594	0	0.9	0	16	45	46	1	
14-Apr-13	sub2302	2302	2	1	16	5	1	3	3	4	1	1	1	0.62154	1	0.8	0	13	32	33	0	
14-Apr-13	sub2302	2302	2	1	17	5	1	4	5	2	1	2	1	0.60259	1	0.8	0	14	32	33	0	
14-Apr-13	sub2302	2302	2	1	18	5	1	1	4	2	1	2	0	0.5133	0	0.7	0	11	40	41	0	
14-Apr-13	sub2302	2302	2	1	19	5	1	2	2	3	1	1	0	0.53277	0	0.7	0	12	40	41	0	
14-Apr-13	sub2302	2302	2	1	20	5	1	6	6	1	0	2	0	0.72747	1	0.7	1	16	37	51	0	
14-Apr-13	sub2302	2302	2	1	21	5	1	5	1	1	0	2	1	0.48894	0	0.9	0	15	47	38	1	
14-Apr-13	sub2302	2302	2	1	22	5	1	4	5	2	1	1	0	0.68857	0	0.9	0	14	42	43	0	
14-Apr-13	sub2302	2302	2	1	23	5	1	2	2	3	1	2	1	0.55293	1	0.9	0	12	30	31	0	
14-Apr-13	sub2302	2302	2	1	24	5	1	5	1	1	0	2	1	0.42437	0	0.9	0	15	47	38	1	
14-Apr-13	sub2302	2302	2	1	25	5	1	1	4	2	1	1	1	0.44257	1	0.9	0	11	30	31	1	
14-Apr-13	sub2302	2302	2	1	26	5	1	3	3	4	1	2	0	0.53453	0	0.9	0	13	42	43	0	
14-Apr-13	sub2302	2302	2	1	27	5	1	5	1	1	1	2	0	0.53699	0	0.9	0	15	45	46	0	
14-Apr-13	sub2302	2302	2	1	28	5	1	1	4	2	1	2	0	0.47511	0	0.9	0	11	40	41	1	
14-Apr-13	sub2302	2302	2	1	29	5	1	4	5	2	0	2	0	0.47911	1	0.9	0	14	34	49	1	
14-Apr-13	sub2302	2302	2	1	30	5	1	1	4	2	1	2	0	0.59629	0	0.8	0	11	40	41	0	
14-Apr-13	sub2302	2302	2	1	31	5	1	5	1	1	1	1	1	0.70077	1	0.8	0	15	35	36	0	
14-Apr-13	sub2302	2302	2	1	32	5	1	4	5	2	1	1	0	0.39771	0	0.8	0	14	42	43	1	
14-Apr-13	sub2302	2302	2	1	33	5	1	6	6	1	0	1	1	0.36231	0	0.8	0	16	47	38	1	
14-Apr-13	sub2302	2302	2	1	34	5	1	5	1	1	1	1	1	0.5397	1	0.8	0	15	35	36	0	
14-Apr-13	sub2302	2302	2	1	35	5	1	6	6	1	0	2	0	0.36527	1	0.7	0	16	37	48	1	
14-Apr-13	sub2302	2302	2	1	36	5	1	3	3	4	1	1	1	0.37968	1	0.7	0	13	32	33	1	
14-Apr-13	sub2302	2302	2	1	37	5	1	5	1	1	1	1	1	0.37711	1	0.7	0	15	35	36	1	
14-Apr-13	sub2302	2302	2	1	38	5	1	1	4	2	1	1	1	0.33359	1	0.7	0	11	30	31	1	
14-Apr-13	sub2302	2302	2	1	39	5	1	4	5	2	1	1	0	0.33257	0	0.7	0	14	42	43	1	
14-Apr-13	sub2302	2302	2	1	40	5	1	6	6	1	0	1	1	0.41827	0	0.7	0	16	47	38	1	
14-Apr-13	sub2302	2302	2	1	41	5	1	1	4	2	1	1	1	0.54932	1	0.6	0	11	30	31	0	
14-Apr-13	sub2302	2302	2	1	42	5	1	3	3	4	0	1	0	0.34547	1	0.6	0	13	34	49	1	
14-Apr-13	sub2302	2302	2	1	43	5	1	4	5	2	1	2	1	0.47791	1	0.6	0	14	32	33	1	
14-Apr-13	sub2302	2302	2	1	44	5	1	6	6	1	1	2	1	0.68338	1	0.6	1	16	35	51	0	
14-Apr-13	sub2302	2302	2	1	45	5	1	2	2	3	1	2	1	0.39993	1	0.8	0	12	30	31	1	
14-Apr-13	sub2302	2302	2	1	46	5	1	5	1	1	0	2	1	0.58142	0	0.8	0	15	47	38	0	
14-Apr-13	sub2302	2302	2	1	47	5	1	3	3	4	1	2	0	0.63239	0	0.8	0	13	42	43	0	
14-Apr-13	sub2302	2302	2	1	48	5	1	4	5	2	1	1	0	0.42445	0	0.8	0	14	42	43	1	
14-Apr-13	sub2302	2302	2	1	49	5	1	3	3	4	1	2	0	0.43128	0	0.8	0	13	42	43	1	
14-Apr-13	sub2302	2302	2	1	50	5	1	4	5	2	1	1	0	0.38309	0	0.8	0	14	42	43	1	
14-Apr-13	sub2302	2302	2	1	51	5	1	3	3	4	1	1	1	0.41153	1	0.7	0	13	32	33	1	
14-Apr-13	sub2302	2302	2	1	52	5	1	5	1	1	1	2	0	0.65942	0	0.7	0	15	45	46	0	
14-Apr-13	sub2302	2302	2	1	53	5	1	6	6	1	1	2	1	0.42191	1	0.7	0	16	35	36	1	
14-Apr-13	sub2302	2302	2	1	54	5	1	4	5	2	1	2	1	0.33395	1	0.7	0	14	32	33	1	
14-Apr-13	sub2302	2302	2	1	55	5	1	3	3	4	1	2	0	0.42533	0	0.7	0	13	42	43	1	
14-Apr-13	sub2302	2302	2	1	56	5	1	2	2	3	1	1	0	0.3345	0	0.7	0	12	40	41	1	
14-Apr-13	sub2302	2302	2	1	57	5	1	3	3	4	1	1	1	0.45497	1	0.7	0	13	32	33	1	
14-Apr-13	sub2302	2302	2	1	58	5	1	2	2	3	1	1	0	0.5996	0	0.7	0	12	40	41	0	
14-Apr-13	sub2302	2302	2	1	59	5	1	5	1	1	0	1	0	0.71116	1	0.7	1	15	37	51	0	
14-Apr-13	sub2302	2302	2	1	60	5	1	1	4	2	1	1	1	0.40549	1	0.8	0	11	30	31	1	
14-Apr-13	sub2302	2302	2	1	61	5	1	5	1	1	0	1	0	0.52411	1	0.8	0	15	37	48	0	
14-Apr-13	sub2302	2302	2	1	62	5	1	1	4	2	1	1	1	0.59439	1	0.8	0	11	30	31	0	
14-Apr-13	sub2302	2302	2	1	63	5	1	2	2	3	1	2	1	0.52866	1	0.8	0	12	30	31	0	
14-Apr-13	sub2302	2302	2	1	64	5	1	2	2	3	1	2	1	0.43876	1	0.8	0	12	30	31	1	
14-Apr-13	sub2302	2302	2	1	65	5	1	3	3	4	1	2	0	0.4569	0	0.8	0	13	42	43	1	
14-Apr-13	sub2302	2302	2	1	66	5	1	1	4	2	1	2	0	0.46332	0	0.8	0	11	40	41	1	
14-Apr-13	sub2302	2302	2	1	67	5	1	5	1	1	0	2	1	0.5222	0	0.8	0	15	47	38	0	
14-Apr-13	sub2302	2302	2	1	68	5	1	2	2	3	1	2	1	0.50917	1	0.7	0	12	30	31	0	
14-Apr-13	sub2302	2302	2	1	69	5	1	4	5	2	1	2	1	0.37657	1	0.7	0	14	32	33	1	
14-Apr-13	sub2302	2302	2	1	70	5	1	4	5	2	0	2	0	0.38942	1	0.7	0	14	34	49	1	
14-Apr-13	sub2302	2302	2	1	71	5	1	6	6	1	0	1	1	0.37614	0	0.7	0	16	47	38	1	
14-Apr-13	sub2302	2302	2	1	72	5	1	3	3	4	0	1	0	0.36555	1	0.7	0	13	34	49	1	
14-Apr-13	sub2302	2302	2	1	73	5	1	4	5	2	1	2	1	0.43223	1	0.7	0	14	32	33	1	
14-Apr-13	sub2302	2302	2	1	74	5	1	5	1	1	1	2	0	0.52896	0	0.7	0	15	45	46	0	
14-Apr-13	sub2302	2302	2	1	75	5	1	6	6	1	0	2	0	0.37867	1	0.7	0	16	37	48	1	
14-Apr-13	sub2302	2302	2	1	76	5	2	2	2	3	1	1	0	0.3972	0	0.7	0	22	80	81	1	
14-Apr-13	sub2302	2302	2	1	77	5	2	3	3	4	1	2	0	0.71224	0	0.7	1	23	82	51	0	
14-Apr-13	sub2302	2302	2	1	78	5	2	1	4	2	1	2	0	0.34644	0	0.8	0	21	80	81	1	
14-Apr-13	sub2302	2302	2	1	79	5	2	6	6	1	1	2	1	0.53728	1	0.8	0	26	65	66	0	
14-Apr-13	sub2302	2302	2	1	80	5	2	5	1	1	0	2	1	0.6265	0	0.8	0	25	87	68	0	
14-Apr-13	sub2302	2302	2	1	81	5	2	4	5	2	1	2	1	0.52481	1	0.8	0	24	62	63	0	
14-Apr-13	sub2302	2302	2	1	82	5	2	1	4	2	1	1	1	1.32034	1	0.8	1	21	60	51	0	
14-Apr-13	sub2302	2302	2	1	83	5	2	4	5	2	1	1	0	0.59219	0	0.9	0	24	82	83	0	
14-Apr-13	sub2302	2302	2	1	84	5	2	5	1	1	0	1	0	0.4963	1	0.9	0	25	67	88	1	
14-Apr-13	sub2302	2302	2	1	85	5	2	5	1	1	0	2	1	0.8544	0	0.9	0	25	87	68	0	
14-Apr-13	sub2302	2302	2	1	86	5	2	4	5	2	1	2	1	0.43247	1	0.9	0	24	62	63	1	
14-Apr-13	sub2302	2302	2	1	87	5	2	4	5	2	1	2	1	0.47608	1	0.8	0	24	62	63	1	
14-Apr-13	sub2302	2302	2	1	88	5	2	3	3	4	0	2	1	0.6581	0	0.8	0	23	84	69	0	
14-Apr-13	sub2302	2302	2	1	89	5	2	2	2	3	1	2	1	0.55624	1	0.8	0	22	60	61	0	
14-Apr-13	sub2302	2302	2	1	90	5	2	3	3	4	1	2	0	0.64888	0	0.8	0	23	82	83	0	
14-Apr-13	sub2302	2302	2	1	91	5	2	2	2	3	1	2	1	0.58874	1	0.8	0	22	60	61	0	
14-Apr-13	sub2302	2302	2	1	92	5	2	2	2	3	1	1	0	0.62365	0	0.8	0	22	80	81	0	
14-Apr-13	sub2302	2302	2	1	93	5	2	1	4	2	1	1	1	0.38211	1	0.8	0	21	60	61	1	
14-Apr-13	sub2302	2302	2	1	94	5	2	4	5	2	1	1	0	0.72533	0	0.8	0	24	82	83	0	
14-Apr-13	sub2302	2302	2	1	95	5	2	2	2	3	1	2	1	0.93457	1	0.8	1	22	60	51	0	
14-Apr-13	sub2302	2302	2	1	96	5	2	6	6	1	1	2	1	0.4489	1	0.9	0	26	65	66	1	
14-Apr-13	sub2302	2302	2	1	97	5	2	1	4	2	1	2	0	0.43036	0	0.9	0	21	80	81	1	
14-Apr-13	sub2302	2302	2	1	98	5	2	6	6	1	0	2	0	0.46864	1	0.9	0	26	67	88	1	
14-Apr-13	sub2302	2302	2	1	99	5	2	3	3	4	1	2	0	0.61728	0	0.9	0	23	82	83	0	
14-Apr-13	sub2302	2302	2	1	100	5	2	6	6	1	1	1	0	0.64456	0	0.9	0	26	85	86	0	
14-Apr-13	sub2302	2302	2	1	101	5	2	5	1	1	0	2	1	0.69518	0	0.8	0	25	87	68	0	
14-Apr-13	sub2302	2302	2	1	102	5	2	6	6	1	1	1	0	0.35356	0	0.8	0	26	85	86	1	
14-Apr-13	sub2302	2302	2	1	103	5	2	1	4	2	1	2	0	0.51263	0	0.8	0	21	80	81	0	
14-Apr-13	sub2302	2302	2	1	104	5	2	4	5	2	1	2	1	0.50578	1	0.8	0	24	62	63	0	
14-Apr-13	sub2302	2302	2	1	105	5	2	3	3	4	1	2	0	0.46845	0	0.8	0	23	82	83	1	
14-Apr-13	sub2302	2302	2	1	106	5	2	6	6	1	1	2	1	0.47871	1	0.8	0	26	65	66	1	
14-Apr-13	sub2302	2302	2	1	107	5	2	1	4	2	1	1	1	0.4212	1	0.8	0	21	60	61	1	
14-Apr-13	sub2302	2302	2	1	108	5	2	6	6	1	0	1	1	0.52987	0	0.8	0	26	87	68	0	
14-Apr-13	sub2302	2302	2	1	109	5	2	6	6	1	0	2	0	0.55143	1	0.8	0	26	67	88	0	
14-Apr-13	sub2302	2302	2	1	110	5	2	5	1	1	0	2	1	0.67598	0	0.8	0	25	87	68	0	
14-Apr-13	sub2302	2302	2	1	111	5	2	4	5	2	1	2	1	0.48596	1	0.8	0	24	62	63	1	
14-Apr-13	sub2302	2302	2	1	112	5	2	6	6	1	0	1	1	0.35829	0	0.8	0	26	87	68	1	
14-Apr-13	sub2302	2302	2	1	113	5	2	5	1	1	0	1	0	0.38724	1	0.8	0	25	67	88	1	
14-Apr-13	sub2302	2302	2	1	114	5	2	3	3	4	1	2	0	0.42376	0	0.8	0	23	82	83	1	
14-Apr-13	sub2302	2302	2	1	115	5	2	3	3	4	1	2	0	0.55229	0	0.8	0	23	82	83	0	
14-Apr-13	sub2302	2302	2	1	116	5	2	4	5	2	1	1	0	0.49748	0	0.8	0	24	82	83	1	
14-Apr-13	sub2302	2302	2	1	117	5	2	3	3	4	1	1	1	0.38561	1	0.8	0	23	62	63	1	
14-Apr-13	sub2302	2302	2	1	118	5	2	3	3	4	1	2	0	0.52271	0	0.7	0	23	82	83	0	
14-Apr-13	sub2302	2302	2	1	119	5	2	6	6	1	1	2	1	0.98088	1	0.7	1	26	65	51	0	
14-Apr-13	sub2302	2302	2	1	120	5	2	1	4	2	1	2	0	0.34225	0	0.8	0	21	80	81	1	
14-Apr-13	sub2302	2302	2	1	121	5	2	5	1	1	0	2	1	0.42949	0	0.8	0	25	87	68	1	
14-Apr-13	sub2302	2302	2	1	122	5	2	2	2	3	1	1	0	0.42544	0	0.8	0	22	80	81	1	
14-Apr-13	sub2302	2302	2	1	123	5	2	3	3	4	0	1	0	0.44742	1	0.8	0	23	64	89	1	
14-Apr-13	sub2302	2302	2	1	124	5	2	2	2	3	1	1	0	0.47244	0	0.8	0	22	80	81	1	
14-Apr-13	sub2302	2302	2	1	125	5	2	6	6	1	0	2	0	0.70155	1	0.8	0	26	67	88	0	
14-Apr-13	sub2302	2302	2	1	126	5	2	1	4	2	1	2	0	0.58231	0	0.8	0	21	80	81	0	
14-Apr-13	sub2302	2302	2	1	127	5	2	2	2	3	1	2	1	0.49496	1	0.8	0	22	60	61	1	
14-Apr-13	sub2302	2302	2	1	128	5	2	5	1	1	0	2	1	0.63855	0	0.8	0	25	87	68	0	
14-Apr-13	sub2302	2302	2	1	129	5	2	6	6	1	0	1	1	0.46212	0	0.8	0	26	87	68	1	
14-Apr-13	sub2302	2302	2	1	130	5	2	4	5	2	0	2	0	0.59261	1	0.8	0	24	64	89	0	
14-Apr-13	sub2302	2302	2	1	131	5	2	2	2	3	1	2	1	0.69675	1	0.8	0	22	60	61	0	
14-Apr-13	sub2302	2302	2	1	132	5	2	1	4	2	1	1	1	0.50873	1	0.8	0	21	60	61	0	
14-Apr-13	sub2302	2302	2	1	133	5	2	1	4	2	1	1	1	0.47397	1	0.8	0	21	60	61	1	
14-Apr-13	sub2302	2302	2	1	134	5	2	5	1	1	0	2	1	0.61163	0	0.8	0	25	87	68	0	
14-Apr-13	sub2302	2302	2	1	135	5	2	1	4	2	1	1	1	0.48014	1	0.7	0	21	60	61	1	
14-Apr-13	sub2302	2302	2	1	136	5	2	3	3	4	1	2	0	0.57167	0	0.7	0	23	82	83	0	
14-Apr-13	sub2302	2302	2	1	137	5	2	4	5	2	0	2	0	0.84834	1	0.7	1	24	64	51	0	
14-Apr-13	sub2302	2302	2	1	138	5	2	1	4	2	1	2	0	0.47642	0	0.8	0	21	80	81	1	
14-Apr-13	sub2302	2302	2	1	139	5	2	4	5	2	0	2	0	0.62105	1	0.8	0	24	64	89	0	
14-Apr-13	sub2302	2302	2	1	140	5	2	4	5	2	1	1	0	0.52612	0	0.8	0	24	82	83	0	
14-Apr-13	sub2302	2302	2	1	141	5	2	5	1	1	0	2	1	0.58735	0	0.8	0	25	87	68	0	
14-Apr-13	sub2302	2302	2	1	142	5	2	5	1	1	0	2	1	0.51576	0	0.8	0	25	87	68	0	
14-Apr-13	sub2302	2302	2	1	143	5	2	1	4	2	1	1	1	0.49154	1	0.8	0	21	60	61	1	
14-Apr-13	sub2302	2302	2	1	144	5	2	4	5	2	1	1	0	0.55203	0	0.8	0	24	82	83	0	
14-Apr-13	sub2302	2302	2	1	145	5	2	2	2	3	1	1	0	0.46961	0	0.8	0	22	80	81	1	
14-Apr-13	sub2302	2302	2	1	146	5	2	5	1	1	0	2	1	0.59592	0	0.8	0	25	87	68	0	
14-Apr-13	sub2302	2302	2	1	147	5	2	2	2	3	1	1	0	0.71321	0	0.8	0	22	80	81	0	
14-Apr-13	sub2302	2302	2	1	148	5	2	3	3	4	1	2	0	0.64386	0	0.8	0	23	82	83	0	
14-Apr-13	sub2302	2302	2	1	149	5	2	5	1	1	0	2	1	0.7916	0	0.8	0	25	87	68	0	
14-Apr-13	sub2302	2302	2	1	150	5	2	2	2	3	1	1	0	0.51844	0	0.8	0	22	80	81	0	
14-Apr-13	sub2302	2302	2	1	1	6	1	5	6	3	0	1	0	0.44886	1	0.6	0	15	37	48	1	
14-Apr-13	sub2302	2302	2	1	2	6	1	2	4	1	1	1	0	0.47724	0	0.3	1	12	40	51	1	
14-Apr-13	sub2302	2302	2	1	3	6	1	3	1	4	1	1	1	0.44442	1	0.9	0	13	32	33	1	
14-Apr-13	sub2302	2302	2	1	4	6	1	3	1	4	1	2	0	0.61952	0	0.9	0	13	42	43	0	
14-Apr-13	sub2302	2302	2	1	5	6	1	5	6	3	1	2	0	0.77062	0	0.9	0	15	45	46	0	
14-Apr-13	sub2302	2302	2	1	6	6	1	1	2	2	1	1	1	0.52498	1	0.9	0	11	30	31	0	
14-Apr-13	sub2302	2302	2	1	7	6	1	6	5	1	0	1	1	0.4511	0	0.9	0	16	47	38	1	
14-Apr-13	sub2302	2302	2	1	8	6	1	6	5	1	0	1	1	0.49603	0	0.9	0	16	47	38	1	
14-Apr-13	sub2302	2302	2	1	9	6	1	1	2	2	1	1	1	0.42473	1	0.9	0	11	30	31	1	
14-Apr-13	sub2302	2302	2	1	10	6	1	3	1	4	1	2	0	0.7216	0	0.9	0	13	42	43	0	
14-Apr-13	sub2302	2302	2	1	11	6	1	2	4	1	1	1	0	0.58663	0	0.9	0	12	40	41	0	
14-Apr-13	sub2302	2302	2	1	12	6	1	3	1	4	0	1	0	0.61526	1	0.9	0	13	34	49	0	
14-Apr-13	sub2302	2302	2	1	13	6	1	1	2	2	1	1	1	0.44734	1	0.9	0	11	30	31	1	
14-Apr-13	sub2302	2302	2	1	14	6	1	2	4	1	1	2	1	0.4522	1	0.9	0	12	30	31	1	
14-Apr-13	sub2302	2302	2	1	15	6	1	2	4	1	1	2	1	0.55549	1	0.9	0	12	30	31	0	
14-Apr-13	sub2302	2302	2	1	16	6	1	3	1	4	1	2	0	0.50231	0	0.8	0	13	42	43	0	
14-Apr-13	sub2302	2302	2	1	17	6	1	1	2	2	1	2	0	0.6036	0	0.8	0	11	40	41	0	
14-Apr-13	sub2302	2302	2	1	18	6	1	4	3	6	1	1	0	0.70248	0	0.7	1	14	42	51	0	
14-Apr-13	sub2302	2302	2	1	19	6	1	5	6	3	1	1	1	0.34727	1	0.9	0	15	35	36	1	
14-Apr-13	sub2302	2302	2	1	20	6	1	3	1	4	1	1	1	0.42207	1	0.9	0	13	32	33	1	
14-Apr-13	sub2302	2302	2	1	21	6	1	4	3	6	0	1	1	0.5845	0	0.9	0	14	44	39	0	
14-Apr-13	sub2302	2302	2	1	22	6	1	6	5	1	0	1	1	0.61864	0	0.9	0	16	47	38	0	
14-Apr-13	sub2302	2302	2	1	23	6	1	4	3	6	1	1	0	0.47931	0	0.9	0	14	42	43	1	
14-Apr-13	sub2302	2302	2	1	24	6	1	6	5	1	1	1	0	0.5763	0	0.9	0	16	45	46	0	
14-Apr-13	sub2302	2302	2	1	25	6	1	3	1	4	1	1	1	0.58349	1	0.9	0	13	32	33	0	
14-Apr-13	sub2302	2302	2	1	26	6	1	4	3	6	0	2	0	0.43157	1	0.9	0	14	34	49	1	
14-Apr-13	sub2302	2302	2	1	27	6	1	3	1	4	1	1	1	0.4669	1	0.9	0	13	32	33	1	
14-Apr-13	sub2302	2302	2	1	28	6	1	3	1	4	1	1	1	0.43061	1	0.9	0	13	32	33	1	
14-Apr-13	sub2302	2302	2	1	29	6	1	6	5	1	0	1	1	0.51353	0	0.9	0	16	47	38	0	
14-Apr-13	sub2302	2302	2	1	30	6	1	3	1	4	1	1	1	0.44031	1	0.8	0	13	32	33	1	
14-Apr-13	sub2302	2302	2	1	31	6	1	1	2	2	1	2	0	0.51925	0	0.8	0	11	40	41	0	
14-Apr-13	sub2302	2302	2	1	32	6	1	6	5	1	0	1	1	0.46158	0	0.8	0	16	47	38	1	
14-Apr-13	sub2302	2302	2	1	33	6	1	4	3	6	1	1	0	0.46899	0	0.8	0	14	42	43	1	
14-Apr-13	sub2302	2302	2	1	34	6	1	1	2	2	1	1	1	0.38025	1	0.8	0	11	30	31	1	
14-Apr-13	sub2302	2302	2	1	35	6	1	5	6	3	1	2	0	0.5414	0	0.7	0	15	45	46	0	
14-Apr-13	sub2302	2302	2	1	36	6	1	1	2	2	1	1	1	0.47947	1	0.7	0	11	30	31	1	
14-Apr-13	sub2302	2302	2	1	37	6	1	5	6	3	1	1	1	0.38441	1	0.7	0	15	35	36	1	
14-Apr-13	sub2302	2302	2	1	38	6	1	4	3	6	1	1	0	0.53614	0	0.7	0	14	42	43	0	
14-Apr-13	sub2302	2302	2	1	39	6	1	4	3	6	1	1	0	0.51852	0	0.7	0	14	42	43	0	
14-Apr-13	sub2302	2302	2	1	40	6	1	5	6	3	0	1	0	0.46824	1	0.7	0	15	37	48	1	
14-Apr-13	sub2302	2302	2	1	41	6	1	6	5	1	1	1	0	0.54762	0	0.6	0	16	45	46	0	
14-Apr-13	sub2302	2302	2	1	42	6	1	3	1	4	0	1	0	0.44756	1	0.6	0	13	34	49	1	
14-Apr-13	sub2302	2302	2	1	43	6	1	6	5	1	0	1	1	0.66164	0	0.6	1	16	47	51	0	
14-Apr-13	sub2302	2302	2	1	44	6	1	4	3	6	1	1	0	0.4284	0	0.8	0	14	42	43	1	
14-Apr-13	sub2302	2302	2	1	45	6	1	4	3	6	1	2	1	0.44794	1	0.8	0	14	32	33	1	
14-Apr-13	sub2302	2302	2	1	46	6	1	5	6	3	1	1	1	0.66539	1	0.8	0	15	35	36	0	
14-Apr-13	sub2302	2302	2	1	47	6	1	1	2	2	1	2	0	0.60589	0	0.8	0	11	40	41	0	
14-Apr-13	sub2302	2302	2	1	48	6	1	4	3	6	1	2	1	0.56389	1	0.8	0	14	32	33	0	
14-Apr-13	sub2302	2302	2	1	49	6	1	2	4	1	1	1	0	0.60109	0	0.8	0	12	40	41	0	
14-Apr-13	sub2302	2302	2	1	50	6	1	3	1	4	0	2	1	0.56839	0	0.8	0	13	44	39	0	
14-Apr-13	sub2302	2302	2	1	51	6	1	1	2	2	1	2	0	0.43045	0	0.7	0	11	40	41	1	
14-Apr-13	sub2302	2302	2	1	52	6	1	5	6	3	0	1	0	0.69451	1	0.7	0	15	37	48	0	
14-Apr-13	sub2302	2302	2	1	53	6	1	2	4	1	1	1	0	0.58923	0	0.7	0	12	40	41	0	
14-Apr-13	sub2302	2302	2	1	54	6	1	6	5	1	1	1	0	0.66786	0	0.7	0	16	45	46	0	
14-Apr-13	sub2302	2302	2	1	55	6	1	6	5	1	0	2	0	0.49924	1	0.7	0	16	37	48	1	
14-Apr-13	sub2302	2302	2	1	56	6	1	1	2	2	1	2	0	0.37581	0	0.7	0	11	40	41	1	
14-Apr-13	sub2302	2302	2	1	57	6	1	2	4	1	1	2	1	0.3593	1	0.7	0	12	30	31	1	
14-Apr-13	sub2302	2302	2	1	58	6	1	5	6	3	1	2	0	0.52013	0	0.7	0	15	45	46	0	
14-Apr-13	sub2302	2302	2	1	59	6	1	2	4	1	1	1	0	0.38181	0	0.7	0	12	40	41	1	
14-Apr-13	sub2302	2302	2	1	60	6	1	2	4	1	1	2	1	0.18268	1	0.7	0	12	30	31	1	
14-Apr-13	sub2302	2302	2	1	61	6	1	6	5	1	0	2	0	0.36259	1	0.6	0	16	37	48	1	
14-Apr-13	sub2302	2302	2	1	62	6	1	2	4	1	1	1	0	0.35337	0	0.6	0	12	40	41	1	
14-Apr-13	sub2302	2302	2	1	63	6	1	5	6	3	0	1	0	0.31297	1	0.6	0	15	37	48	1	
14-Apr-13	sub2302	2302	2	1	64	6	1	2	4	1	1	2	1	0.43455	1	0.6	0	12	30	31	1	
14-Apr-13	sub2302	2302	2	1	65	6	1	3	1	4	1	2	0	0.3946	0	0.6	0	13	42	43	1	
14-Apr-13	sub2302	2302	2	1	66	6	1	6	5	1	1	2	1	0.42329	1	0.6	0	16	35	36	1	
14-Apr-13	sub2302	2302	2	1	67	6	1	4	3	6	1	2	1	0.9312	1	0.6	1	14	32	51	0	
14-Apr-13	sub2302	2302	2	1	68	6	1	1	2	2	1	2	0	0.52952	0	0.7	0	11	40	41	0	
14-Apr-13	sub2302	2302	2	1	69	6	1	5	6	3	0	1	0	0.41806	1	0.7	0	15	37	48	1	
14-Apr-13	sub2302	2302	2	1	70	6	1	6	5	1	1	1	0	0.25544	0	0.7	0	16	45	46	1	
14-Apr-13	sub2302	2302	2	1	71	6	1	5	6	3	1	2	0	0.35996	0	0.7	0	15	45	46	1	
14-Apr-13	sub2302	2302	2	1	72	6	1	2	4	1	1	2	1	0.54227	1	0.7	0	12	30	31	0	
14-Apr-13	sub2302	2302	2	1	73	6	1	2	4	1	1	1	0	0.46111	0	0.7	0	12	40	41	1	
14-Apr-13	sub2302	2302	2	1	74	6	1	1	2	2	1	1	1	0.40924	1	0.7	0	11	30	31	1	
14-Apr-13	sub2302	2302	2	1	75	6	1	4	3	6	1	2	1	0.44628	1	0.7	0	14	32	33	1	
14-Apr-13	sub2302	2302	2	1	76	6	2	1	2	2	1	2	0	0.35126	0	0.7	0	21	80	81	1	
14-Apr-13	sub2302	2302	2	1	77	6	2	5	6	3	0	2	1	0.33195	0	0.7	0	25	87	68	1	
14-Apr-13	sub2302	2302	2	1	78	6	2	6	5	1	0	1	1	0.36946	0	0.7	0	26	87	68	1	
14-Apr-13	sub2302	2302	2	1	79	6	2	5	6	3	0	1	0	0.41166	1	0.7	0	25	67	88	1	
14-Apr-13	sub2302	2302	2	1	80	6	2	4	3	6	1	2	1	0.48041	1	0.7	0	24	62	63	1	
14-Apr-13	sub2302	2302	2	1	81	6	2	2	4	1	1	2	1	0.46998	1	0.6	0	22	60	61	1	
14-Apr-13	sub2302	2302	2	1	82	6	2	3	1	4	1	2	0	0.45683	0	0.6	0	23	82	83	1	
14-Apr-13	sub2302	2302	2	1	83	6	2	6	5	1	0	2	0	0.59371	1	0.6	0	26	67	88	0	
14-Apr-13	sub2302	2302	2	1	84	6	2	2	4	1	1	1	0	0.54778	0	0.6	0	22	80	81	0	
14-Apr-13	sub2302	2302	2	1	85	6	2	6	5	1	1	1	0	0.50404	0	0.6	0	26	85	86	0	
14-Apr-13	sub2302	2302	2	1	86	6	2	2	4	1	1	1	0	0.46401	0	0.6	0	22	80	81	1	
14-Apr-13	sub2302	2302	2	1	87	6	2	4	3	6	0	2	0	0.36604	1	0.6	0	24	64	89	1	
14-Apr-13	sub2302	2302	2	1	88	6	2	1	2	2	1	2	0	0.4781	0	0.6	0	21	80	81	1	
14-Apr-13	sub2302	2302	2	1	89	6	2	4	3	6	1	2	1	0.35502	1	0.6	0	24	62	63	1	
14-Apr-13	sub2302	2302	2	1	90	6	2	2	4	1	1	2	1	0.55815	1	0.6	0	22	60	61	0	
14-Apr-13	sub2302	2302	2	1	91	6	2	5	6	3	0	2	1	0.64628	0	0.6	1	25	87	51	0	
14-Apr-13	sub2302	2302	2	1	92	6	2	3	1	4	1	2	0	0.58165	0	0.7	0	23	82	83	0	
14-Apr-13	sub2302	2302	2	1	93	6	2	4	3	6	1	2	1	0.7618	1	0.7	1	24	62	51	0	
14-Apr-13	sub2302	2302	2	1	94	6	2	2	4	1	1	2	1	0.44555	1	0.8	0	22	60	61	1	
14-Apr-13	sub2302	2302	2	1	95	6	2	3	1	4	1	1	1	0.35315	1	0.8	0	23	62	63	1	
14-Apr-13	sub2302	2302	2	1	96	6	2	5	6	3	0	1	0	0.30684	1	0.8	0	25	67	88	1	
14-Apr-13	sub2302	2302	2	1	97	6	2	1	2	2	1	1	1	0.32676	1	0.8	0	21	60	61	1	
14-Apr-13	sub2302	2302	2	1	98	6	2	3	1	4	1	1	1	0.35977	1	0.8	0	23	62	63	1	
14-Apr-13	sub2302	2302	2	1	99	6	2	4	3	6	0	1	1	0.32829	0	0.8	0	24	84	69	1	
14-Apr-13	sub2302	2302	2	1	100	6	2	1	2	2	1	1	1	0.3622	1	0.8	0	21	60	61	1	
14-Apr-13	sub2302	2302	2	1	101	6	2	1	2	2	1	1	1	0.35487	1	0.7	0	21	60	61	1	
14-Apr-13	sub2302	2302	2	1	102	6	2	2	4	1	1	1	0	0.26367	0	0.7	0	22	80	81	1	
14-Apr-13	sub2302	2302	2	1	103	6	2	2	4	1	1	2	1	0.34392	1	0.7	0	22	60	61	1	
14-Apr-13	sub2302	2302	2	1	104	6	2	6	5	1	0	2	0	0.35421	1	0.7	0	26	67	88	1	
14-Apr-13	sub2302	2302	2	1	105	6	2	3	1	4	1	2	0	0.03722	0	0.7	0	23	82	83	1	
14-Apr-13	sub2302	2302	2	1	106	6	2	2	4	1	1	2	1	1.89388	1	0.7	1	22	60	51	0	
14-Apr-13	sub2302	2302	2	1	107	6	2	4	3	6	1	2	1	0.38706	1	0.8	0	24	62	63	1	
14-Apr-13	sub2302	2302	2	1	108	6	2	1	2	2	1	2	0	0.37135	0	0.8	0	21	80	81	1	
14-Apr-13	sub2302	2302	2	1	109	6	2	5	6	3	0	1	0	0.43143	1	0.8	0	25	67	88	1	
14-Apr-13	sub2302	2302	2	1	110	6	2	1	2	2	1	1	1	0.29687	1	0.8	0	21	60	61	1	
14-Apr-13	sub2302	2302	2	1	111	6	2	4	3	6	1	1	0	0.41565	0	0.8	0	24	82	83	1	
14-Apr-13	sub2302	2302	2	1	112	6	2	2	4	1	1	1	0	0.48328	0	0.8	0	22	80	81	1	
14-Apr-13	sub2302	2302	2	1	113	6	2	5	6	3	0	1	0	0.46466	1	0.8	0	25	67	88	1	
14-Apr-13	sub2302	2302	2	1	114	6	2	1	2	2	1	2	0	0.47792	0	0.8	0	21	80	81	1	
14-Apr-13	sub2302	2302	2	1	115	6	2	4	3	6	1	2	1	0.42958	1	0.8	0	24	62	63	1	
14-Apr-13	sub2302	2302	2	1	116	6	2	6	5	1	0	2	0	0.54907	1	0.8	0	26	67	88	0	
14-Apr-13	sub2302	2302	2	1	117	6	2	5	6	3	0	2	1	0.72167	0	0.8	0	25	87	68	0	
14-Apr-13	sub2302	2302	2	1	118	6	2	6	5	1	0	2	0	0.43457	1	0.7	0	26	67	88	1	
14-Apr-13	sub2302	2302	2	1	119	6	2	3	1	4	1	2	0	0.44697	0	0.7	0	23	82	83	1	
14-Apr-13	sub2302	2302	2	1	120	6	2	5	6	3	0	1	0	0.42562	1	0.7	0	25	67	88	1	
14-Apr-13	sub2302	2302	2	1	121	6	2	3	1	4	0	1	0	0.30876	1	0.7	0	23	64	89	1	
14-Apr-13	sub2302	2302	2	1	122	6	2	1	2	2	1	1	1	0.38098	1	0.7	0	21	60	61	1	
14-Apr-13	sub2302	2302	2	1	123	6	2	6	5	1	1	1	0	0.31428	0	0.7	0	26	85	86	1	
14-Apr-13	sub2302	2302	2	1	124	6	2	3	1	4	0	1	0	0.34954	1	0.7	0	23	64	89	1	
14-Apr-13	sub2302	2302	2	1	125	6	2	2	4	1	1	2	1	0.38638	1	0.7	0	22	60	61	1	
14-Apr-13	sub2302	2302	2	1	126	6	2	1	2	2	1	2	0	0.68035	0	0.7	0	21	80	81	0	
14-Apr-13	sub2302	2302	2	1	127	6	2	3	1	4	1	2	0	0.74946	0	0.7	1	23	82	51	0	
14-Apr-13	sub2302	2302	2	1	128	6	2	5	6	3	0	2	1	0.3586	0	0.8	0	25	87	68	1	
14-Apr-13	sub2302	2302	2	1	129	6	2	6	5	1	0	1	1	0.29706	0	0.8	0	26	87	68	1	
14-Apr-13	sub2302	2302	2	1	130	6	2	5	6	3	0	1	0	0.21997	1	0.8	0	25	67	88	1	
14-Apr-13	sub2302	2302	2	1	131	6	2	2	4	1	1	2	1	0.35282	1	0.8	0	22	60	61	1	
14-Apr-13	sub2302	2302	2	1	132	6	2	5	6	3	0	2	1	0.29692	0	0.8	0	25	87	68	1	
14-Apr-13	sub2302	2302	2	1	133	6	2	2	4	1	1	2	1	0.49047	1	0.8	0	22	60	61	1	
14-Apr-13	sub2302	2302	2	1	134	6	2	4	3	6	1	2	1	0.61521	1	0.8	0	24	62	63	0	
14-Apr-13	sub2302	2302	2	1	135	6	2	1	2	2	1	1	1	0.51913	1	0.7	0	21	60	61	0	
14-Apr-13	sub2302	2302	2	1	136	6	2	3	1	4	1	2	0	0.46333	0	0.7	0	23	82	83	1	
14-Apr-13	sub2302	2302	2	1	137	6	2	5	6	3	0	1	0	0.54733	1	0.7	0	25	67	88	0	
14-Apr-13	sub2302	2302	2	1	138	6	2	4	3	6	1	2	1	0.59408	1	0.7	0	24	62	63	0	
14-Apr-13	sub2302	2302	2	1	139	6	2	3	1	4	1	2	0	0.49042	0	0.7	0	23	82	83	1	
14-Apr-13	sub2302	2302	2	1	140	6	2	1	2	2	1	2	0	0.62882	0	0.7	0	21	80	81	0	
14-Apr-13	sub2302	2302	2	1	141	6	2	3	1	4	1	1	1	0.36575	1	0.7	0	23	62	63	1	
14-Apr-13	sub2302	2302	2	1	142	6	2	6	5	1	1	1	0	0.5997	0	0.7	0	26	85	86	0	
14-Apr-13	sub2302	2302	2	1	143	6	2	1	2	2	1	2	0	0.63204	0	0.7	0	21	80	81	0	
14-Apr-13	sub2302	2302	2	1	144	6	2	6	5	1	1	1	0	0.54252	0	0.7	0	26	85	86	0	
14-Apr-13	sub2302	2302	2	1	145	6	2	5	6	3	0	1	0	0.61774	1	0.7	0	25	67	88	0	
14-Apr-13	sub2302	2302	2	1	146	6	2	4	3	6	1	2	1	0.55809	1	0.7	0	24	62	63	0	
14-Apr-13	sub2302	2302	2	1	147	6	2	4	3	6	0	2	0	0.54952	1	0.7	0	24	64	89	0	
14-Apr-13	sub2302	2302	2	1	148	6	2	6	5	1	1	2	1	0.59696	1	0.7	0	26	65	66	0	
14-Apr-13	sub2302	2302	2	1	149	6	2	6	5	1	1	2	1	0.42469	1	0.7	0	26	65	66	1	
14-Apr-13	sub2302	2302	2	1	150	6	2	4	3	6	1	2	1	0.46782	1	0.7	0	24	62	63	1	
