Date 	 Name 	 ID 	 Gender 	 Appearance 	 Trial 	 Block 	 Bin 	 Condition 	 Category 	 Number 	 Valid 	 Keypress 	 Correct 	 RT 	 Realcorrect 	 Deadline 	 Timeout 	 Stimtrigger 	 Resptrigger 	 Fedtrigger 	 WithinTime 
9-Apr-13	sub2303	2303	1	1	1	1	1	1	1	6	1	1	1	0.18433	1	0.6	0	11	30	31	0
9-Apr-13	sub2303	2303	1	1	2	1	1	1	1	6	1	0	0	0	0	0.3	1	11	0	51	0
9-Apr-13	sub2303	2303	1	1	3	1	1	5	4	5	1	2	0	0.05233	0	0.9	0	15	45	46	0
9-Apr-13	sub2303	2303	1	1	4	1	1	6	6	5	1	1	0	0.15342	0	0.9	0	16	45	46	0
9-Apr-13	sub2303	2303	1	1	5	1	1	2	5	4	1	1	0	0.72765	0	0.9	0	12	40	41	0
9-Apr-13	sub2303	2303	1	1	6	1	1	5	4	5	1	1	1	0.19569	1	0.9	0	15	35	36	0
9-Apr-13	sub2303	2303	1	1	7	1	1	3	3	5	1	1	1	0.1466	1	0.9	0	13	32	33	0
9-Apr-13	sub2303	2303	1	1	8	1	1	5	4	5	1	1	1	0.1212	1	0.9	0	15	35	36	0
9-Apr-13	sub2303	2303	1	1	9	1	1	1	1	6	1	1	1	0.41429	1	0.9	0	11	30	31	0
9-Apr-13	sub2303	2303	1	1	10	1	1	2	5	4	1	2	1	0.49856	1	0.9	0	12	30	31	0
9-Apr-13	sub2303	2303	1	1	11	1	1	3	3	5	0	2	1	0.11264	0	0.9	0	13	44	39	0
9-Apr-13	sub2303	2303	1	1	12	1	1	1	1	6	1	1	1	0.09854	1	0.9	0	11	30	31	0
9-Apr-13	sub2303	2303	1	1	13	1	1	4	2	1	1	2	1	0.05052	1	0.9	0	14	32	33	0
9-Apr-13	sub2303	2303	1	1	14	1	1	1	1	6	1	1	1	0.11624	1	0.9	0	11	30	31	0
9-Apr-13	sub2303	2303	1	1	15	1	1	4	2	1	1	2	1	0.03869	1	0.9	0	14	32	33	0
9-Apr-13	sub2303	2303	1	1	16	1	1	6	6	5	0	2	0	0.12494	1	0.8	0	16	37	48	0
9-Apr-13	sub2303	2303	1	1	17	1	1	6	6	5	1	1	0	0.0362	0	0.8	0	16	45	46	0
9-Apr-13	sub2303	2303	1	1	18	1	1	6	6	5	0	1	1	0.04092	0	0.7	0	16	47	38	0
9-Apr-13	sub2303	2303	1	1	19	1	1	4	2	1	1	2	1	0.19152	1	0.7	0	14	32	33	0
9-Apr-13	sub2303	2303	1	1	20	1	1	5	4	5	1	1	1	0.49071	1	0.7	0	15	35	36	0
9-Apr-13	sub2303	2303	1	1	21	1	1	5	4	5	0	1	0	0.4994	1	0.6	0	15	37	48	0
9-Apr-13	sub2303	2303	1	1	22	1	1	2	5	4	1	2	1	0.14599	1	0.6	0	12	30	31	0
9-Apr-13	sub2303	2303	1	1	23	1	1	4	2	1	1	2	1	0.21194	1	0.6	0	14	32	33	0
9-Apr-13	sub2303	2303	1	1	24	1	1	3	3	5	1	1	1	0.15931	1	0.6	0	13	32	33	0
9-Apr-13	sub2303	2303	1	1	25	1	1	1	1	6	1	1	1	0.00099	1	0.6	0	11	30	31	0
9-Apr-13	sub2303	2303	1	1	26	1	1	2	5	4	1	2	1	0.49263	1	0.5	0	12	30	31	0
9-Apr-13	sub2303	2303	1	1	27	1	1	2	5	4	1	2	1	0.06558	1	0.5	0	12	30	31	0
9-Apr-13	sub2303	2303	1	1	28	1	1	1	1	6	1	1	1	0.00515	1	0.5	0	11	30	31	0
9-Apr-13	sub2303	2303	1	1	29	1	1	5	4	5	0	1	0	0.0891	1	0.5	0	15	37	48	0
9-Apr-13	sub2303	2303	1	1	30	1	1	2	5	4	1	2	1	0.08139	1	0.5	0	12	30	31	0
9-Apr-13	sub2303	2303	1	1	31	1	1	3	3	5	1	2	0	0.07546	0	0.5	0	13	42	43	0
9-Apr-13	sub2303	2303	1	1	32	1	1	6	6	5	0	1	1	0.10603	0	0.5	0	16	47	38	0
9-Apr-13	sub2303	2303	1	1	33	1	1	1	1	6	1	1	1	0.45638	1	0.5	0	11	30	31	0
9-Apr-13	sub2303	2303	1	1	34	1	1	5	4	5	0	1	0	0.49797	1	0.5	0	15	37	48	0
9-Apr-13	sub2303	2303	1	1	35	1	1	3	3	5	1	2	0	0.12712	0	0.4	0	13	42	43	0
9-Apr-13	sub2303	2303	1	1	36	1	1	5	4	5	0	1	0	0.08616	1	0.4	0	15	37	48	0
9-Apr-13	sub2303	2303	1	1	37	1	1	6	6	5	1	1	0	0.14472	0	0.4	0	16	45	46	0
9-Apr-13	sub2303	2303	1	1	38	1	1	3	3	5	1	2	0	0.12928	0	0.4	0	13	42	43	0
9-Apr-13	sub2303	2303	1	1	39	1	1	6	6	5	0	0	0	0	0	0.4	1	16	0	51	0
9-Apr-13	sub2303	2303	1	1	40	1	1	6	6	5	0	2	0	0.10558	1	0.7	0	16	37	48	0
9-Apr-13	sub2303	2303	1	1	41	1	1	2	5	4	1	2	1	0.16112	1	0.6	0	12	30	31	0
9-Apr-13	sub2303	2303	1	1	42	1	1	6	6	5	0	1	1	0.44244	0	0.6	0	16	47	38	0
9-Apr-13	sub2303	2303	1	1	43	1	1	4	2	1	0	2	0	0.30052	1	0.6	0	14	34	49	0
9-Apr-13	sub2303	2303	1	1	44	1	1	4	2	1	1	1	0	0.47134	0	0.6	0	14	42	43	0
9-Apr-13	sub2303	2303	1	1	45	1	1	4	2	1	1	1	0	0.11924	0	0.6	0	14	42	43	0
9-Apr-13	sub2303	2303	1	1	46	1	1	3	3	5	1	1	1	0.10591	1	0.6	0	13	32	33	0
9-Apr-13	sub2303	2303	1	1	47	1	1	5	4	5	0	1	0	0.02702	1	0.6	0	15	37	48	0
9-Apr-13	sub2303	2303	1	1	48	1	1	3	3	5	1	2	0	0.2313	0	0.6	0	13	42	43	0
9-Apr-13	sub2303	2303	1	1	49	1	1	2	5	4	1	2	1	0.24408	1	0.6	0	12	30	31	0
9-Apr-13	sub2303	2303	1	1	50	1	1	4	2	1	0	1	1	0.00654	0	0.6	0	14	44	39	0
9-Apr-13	sub2303	2303	1	1	51	1	1	3	3	5	0	1	0	0.08938	1	0.5	0	13	34	49	0
9-Apr-13	sub2303	2303	1	1	52	1	1	3	3	5	0	2	1	0.0163	0	0.5	0	13	44	39	0
9-Apr-13	sub2303	2303	1	1	53	1	1	5	4	5	1	1	1	0.07078	1	0.5	0	15	35	36	0
9-Apr-13	sub2303	2303	1	1	54	1	1	5	4	5	0	1	0	0.09477	1	0.5	0	15	37	48	0
9-Apr-13	sub2303	2303	1	1	55	1	1	2	5	4	1	2	1	0.24051	1	0.5	0	12	30	31	0
9-Apr-13	sub2303	2303	1	1	56	1	1	5	4	5	1	1	1	0.46658	1	0.5	0	15	35	36	0
9-Apr-13	sub2303	2303	1	1	57	1	1	4	2	1	1	2	1	0.08102	1	0.5	0	14	32	33	0
9-Apr-13	sub2303	2303	1	1	58	1	1	6	6	5	1	2	1	0.11121	1	0.5	0	16	35	36	0
9-Apr-13	sub2303	2303	1	1	59	1	1	2	5	4	1	2	1	0.03698	1	0.5	0	12	30	31	0
9-Apr-13	sub2303	2303	1	1	60	1	1	4	2	1	1	1	0	0.00295	0	0.5	0	14	42	43	0
9-Apr-13	sub2303	2303	1	1	61	1	1	1	1	6	1	1	1	0.09855	1	0.5	0	11	30	31	0
9-Apr-13	sub2303	2303	1	1	62	1	1	6	6	5	1	2	1	0.16076	1	0.5	0	16	35	36	0
9-Apr-13	sub2303	2303	1	1	63	1	1	1	1	6	1	1	1	0.49211	1	0.5	0	11	30	31	0
9-Apr-13	sub2303	2303	1	1	64	1	1	6	6	5	1	2	1	0.16281	1	0.5	0	16	35	36	0
9-Apr-13	sub2303	2303	1	1	65	1	1	1	1	6	1	1	1	0.0034	1	0.5	0	11	30	31	0
9-Apr-13	sub2303	2303	1	1	66	1	1	2	5	4	1	2	1	0.06773	1	0.5	0	12	30	31	0
9-Apr-13	sub2303	2303	1	1	67	1	1	3	3	5	1	2	0	0.06036	0	0.5	0	13	42	43	0
9-Apr-13	sub2303	2303	1	1	68	1	1	4	2	1	1	2	1	0.01857	1	0.4	0	14	32	33	0
9-Apr-13	sub2303	2303	1	1	69	1	1	2	5	4	1	2	1	0.13761	1	0.4	0	12	30	31	0
9-Apr-13	sub2303	2303	1	1	70	1	1	6	6	5	0	1	1	0.08725	0	0.4	0	16	47	38	0
9-Apr-13	sub2303	2303	1	1	71	1	1	3	3	5	1	2	0	0.12498	0	0.4	0	13	42	43	0
9-Apr-13	sub2303	2303	1	1	72	1	1	1	1	6	1	1	1	0.08029	1	0.4	0	11	30	31	0
9-Apr-13	sub2303	2303	1	1	73	1	1	2	5	4	1	2	1	0.09492	1	0.4	0	12	30	31	0
9-Apr-13	sub2303	2303	1	1	74	1	1	3	3	5	1	1	1	0.4083	1	0.4	1	13	32	51	0
9-Apr-13	sub2303	2303	1	1	75	1	1	4	2	1	1	2	1	0.18031	1	0.6	0	14	32	33	0
9-Apr-13	sub2303	2303	1	1	1	2	1	1	3	2	1	1	1	0.47476	1	0.6	0	11	30	31	0
9-Apr-13	sub2303	2303	1	1	2	2	1	1	3	2	1	1	1	0.47283	1	0.3	1	11	30	51	0
9-Apr-13	sub2303	2303	1	1	3	2	1	6	6	2	0	2	0	0.47307	1	0.9	0	16	37	48	0
9-Apr-13	sub2303	2303	1	1	4	2	1	3	5	3	1	2	0	0.06507	0	0.9	0	13	42	43	0
9-Apr-13	sub2303	2303	1	1	5	2	1	3	5	3	1	1	1	0.05681	1	0.9	0	13	32	33	0
9-Apr-13	sub2303	2303	1	1	6	2	1	4	1	3	1	1	0	0.03834	0	0.9	0	14	42	43	0
9-Apr-13	sub2303	2303	1	1	7	2	1	2	4	2	1	2	1	0.07263	1	0.9	0	12	30	31	0
9-Apr-13	sub2303	2303	1	1	8	2	1	4	1	3	1	1	0	0.0986	0	0.9	0	14	42	43	0
9-Apr-13	sub2303	2303	1	1	9	2	1	3	5	3	0	2	1	0.24374	0	0.9	0	13	44	39	0
9-Apr-13	sub2303	2303	1	1	10	2	1	4	1	3	1	2	1	0.01586	1	0.9	0	14	32	33	0
9-Apr-13	sub2303	2303	1	1	11	2	1	1	3	2	1	1	1	0.46189	1	0.9	0	11	30	31	0
9-Apr-13	sub2303	2303	1	1	12	2	1	3	5	3	0	2	1	0.05696	0	0.9	0	13	44	39	0
9-Apr-13	sub2303	2303	1	1	13	2	1	6	6	2	1	2	1	0.09381	1	0.9	0	16	35	36	0
9-Apr-13	sub2303	2303	1	1	14	2	1	2	4	2	1	1	0	0.12216	0	0.9	0	12	40	41	0
9-Apr-13	sub2303	2303	1	1	15	2	1	6	6	2	1	2	1	0.00515	1	0.9	0	16	35	36	0
9-Apr-13	sub2303	2303	1	1	16	2	1	3	5	3	1	2	0	0.22116	0	0.8	0	13	42	43	0
9-Apr-13	sub2303	2303	1	1	17	2	1	6	6	2	1	2	1	0.04171	1	0.8	0	16	35	36	0
9-Apr-13	sub2303	2303	1	1	18	2	1	2	4	2	1	2	1	0.0078	1	0.7	0	12	30	31	0
9-Apr-13	sub2303	2303	1	1	19	2	1	6	6	2	1	1	0	0.00394	0	0.7	0	16	45	46	0
9-Apr-13	sub2303	2303	1	1	20	2	1	6	6	2	0	2	0	0.00265	1	0.7	0	16	37	48	0
9-Apr-13	sub2303	2303	1	1	21	2	1	5	2	2	1	2	0	0.13382	0	0.6	0	15	45	46	0
9-Apr-13	sub2303	2303	1	1	22	2	1	5	2	2	0	1	0	0.4452	1	0.6	0	15	37	48	0
9-Apr-13	sub2303	2303	1	1	23	2	1	6	6	2	0	2	0	0.0914	1	0.6	0	16	37	48	0
9-Apr-13	sub2303	2303	1	1	24	2	1	4	1	3	1	1	0	0.08083	0	0.6	0	14	42	43	0
9-Apr-13	sub2303	2303	1	1	25	2	1	1	3	2	1	1	1	0.05951	1	0.6	0	11	30	31	0
9-Apr-13	sub2303	2303	1	1	26	2	1	4	1	3	0	2	0	0.04998	1	0.5	0	14	34	49	0
9-Apr-13	sub2303	2303	1	1	27	2	1	2	4	2	1	2	1	0.02907	1	0.5	0	12	30	31	0
9-Apr-13	sub2303	2303	1	1	28	2	1	2	4	2	1	2	1	0.49099	1	0.5	0	12	30	31	0
9-Apr-13	sub2303	2303	1	1	29	2	1	4	1	3	1	2	1	0.01951	1	0.5	0	14	32	33	0
9-Apr-13	sub2303	2303	1	1	30	2	1	5	2	2	0	2	1	0.06088	0	0.5	0	15	47	38	0
9-Apr-13	sub2303	2303	1	1	31	2	1	1	3	2	1	2	0	0.15035	0	0.5	0	11	40	41	0
9-Apr-13	sub2303	2303	1	1	32	2	1	5	2	2	0	2	1	0.06627	0	0.5	0	15	47	38	0
9-Apr-13	sub2303	2303	1	1	33	2	1	6	6	2	0	2	0	0.0645	1	0.5	0	16	37	48	0
9-Apr-13	sub2303	2303	1	1	34	2	1	1	3	2	1	1	1	0.13869	1	0.5	0	11	30	31	0
9-Apr-13	sub2303	2303	1	1	35	2	1	2	4	2	1	2	1	0.04507	1	0.4	0	12	30	31	0
9-Apr-13	sub2303	2303	1	1	36	2	1	5	2	2	0	2	1	0.39305	0	0.4	0	15	47	38	0
9-Apr-13	sub2303	2303	1	1	37	2	1	3	5	3	1	2	0	0.02799	0	0.4	0	13	42	43	0
9-Apr-13	sub2303	2303	1	1	38	2	1	2	4	2	1	2	1	0.07665	1	0.4	0	12	30	31	0
9-Apr-13	sub2303	2303	1	1	39	2	1	5	2	2	1	1	1	0.20057	1	0.4	0	15	35	36	0
9-Apr-13	sub2303	2303	1	1	40	2	1	2	4	2	1	1	0	0.10733	0	0.4	0	12	40	41	0
9-Apr-13	sub2303	2303	1	1	41	2	1	3	5	3	1	1	1	0.13242	1	0.4	0	13	32	33	0
9-Apr-13	sub2303	2303	1	1	42	2	1	4	1	3	1	1	0	0.08087	0	0.4	0	14	42	43	0
9-Apr-13	sub2303	2303	1	1	43	2	1	1	3	2	1	1	1	0.02393	1	0.4	0	11	30	31	0
9-Apr-13	sub2303	2303	1	1	44	2	1	5	2	2	1	2	0	0.01724	0	0.4	0	15	45	46	0
9-Apr-13	sub2303	2303	1	1	45	2	1	5	2	2	1	1	1	0.13645	1	0.4	0	15	35	36	0
9-Apr-13	sub2303	2303	1	1	46	2	1	2	4	2	1	2	1	0.06141	1	0.4	0	12	30	31	0
9-Apr-13	sub2303	2303	1	1	47	2	1	2	4	2	1	2	1	0.45107	1	0.4	1	12	30	51	0
9-Apr-13	sub2303	2303	1	1	48	2	1	2	4	2	1	2	1	0.08114	1	0.6	0	12	30	31	0
9-Apr-13	sub2303	2303	1	1	49	2	1	2	4	2	1	2	1	0.44758	1	0.6	0	12	30	31	0
9-Apr-13	sub2303	2303	1	1	50	2	1	3	5	3	1	2	0	0.0247	0	0.6	0	13	42	43	0
9-Apr-13	sub2303	2303	1	1	51	2	1	3	5	3	1	1	1	0.34163	1	0.5	0	13	32	33	0
9-Apr-13	sub2303	2303	1	1	52	2	1	6	6	2	0	1	1	0.13498	0	0.5	0	16	47	38	0
9-Apr-13	sub2303	2303	1	1	53	2	1	3	5	3	1	1	1	0.04192	1	0.5	0	13	32	33	0
9-Apr-13	sub2303	2303	1	1	54	2	1	4	1	3	1	1	0	0.15234	0	0.5	0	14	42	43	0
9-Apr-13	sub2303	2303	1	1	55	2	1	4	1	3	0	0	0	0	0	0.5	1	14	0	51	0
9-Apr-13	sub2303	2303	1	1	56	2	1	6	6	2	0	1	1	0.16454	0	0.7	0	16	47	38	0
9-Apr-13	sub2303	2303	1	1	57	2	1	5	2	2	1	2	0	0.02843	0	0.7	0	15	45	46	0
9-Apr-13	sub2303	2303	1	1	58	2	1	2	4	2	1	2	1	0.49153	1	0.7	0	12	30	31	0
9-Apr-13	sub2303	2303	1	1	59	2	1	6	6	2	0	1	1	0.03529	0	0.7	0	16	47	38	0
9-Apr-13	sub2303	2303	1	1	60	2	1	4	1	3	1	1	0	0.03142	0	0.7	0	14	42	43	0
9-Apr-13	sub2303	2303	1	1	61	2	1	3	5	3	1	2	0	0.22408	0	0.6	0	13	42	43	0
9-Apr-13	sub2303	2303	1	1	62	2	1	6	6	2	1	1	0	0.08421	0	0.6	0	16	45	46	0
9-Apr-13	sub2303	2303	1	1	63	2	1	1	3	2	1	1	1	0.1281	1	0.6	0	11	30	31	0
9-Apr-13	sub2303	2303	1	1	64	2	1	4	1	3	1	2	1	0.21381	1	0.6	0	14	32	33	0
9-Apr-13	sub2303	2303	1	1	65	2	1	5	2	2	1	1	1	0.09713	1	0.6	0	15	35	36	0
9-Apr-13	sub2303	2303	1	1	66	2	1	3	5	3	0	1	0	0.48165	1	0.6	0	13	34	49	0
9-Apr-13	sub2303	2303	1	1	67	2	1	5	2	2	0	1	0	0.14199	1	0.6	0	15	37	48	0
9-Apr-13	sub2303	2303	1	1	68	2	1	1	3	2	1	1	1	0.04163	1	0.6	0	11	30	31	0
9-Apr-13	sub2303	2303	1	1	69	2	1	4	1	3	1	1	0	0.03545	0	0.6	0	14	42	43	0
9-Apr-13	sub2303	2303	1	1	70	2	1	6	6	2	1	1	0	0.07702	0	0.6	0	16	45	46	0
9-Apr-13	sub2303	2303	1	1	71	2	1	1	3	2	1	1	1	0.00975	1	0.6	0	11	30	31	0
9-Apr-13	sub2303	2303	1	1	72	2	1	1	3	2	1	1	1	0.00476	1	0.6	0	11	30	31	0
9-Apr-13	sub2303	2303	1	1	73	2	1	5	2	2	0	2	1	0.00046	0	0.6	0	15	47	38	0
9-Apr-13	sub2303	2303	1	1	74	2	1	1	3	2	1	1	1	0.02582	1	0.6	0	11	30	31	0
9-Apr-13	sub2303	2303	1	1	75	2	1	3	5	3	1	1	1	0.11277	1	0.6	0	13	32	33	0
9-Apr-13	sub2303	2303	1	1	76	2	2	6	6	2	0	2	0	0.15678	1	0.5	0	26	67	88	0
9-Apr-13	sub2303	2303	1	1	77	2	2	3	5	3	1	2	0	0.12325	0	0.5	0	23	82	83	0
9-Apr-13	sub2303	2303	1	1	78	2	2	3	5	3	1	1	1	0.04453	1	0.5	0	23	62	63	0
9-Apr-13	sub2303	2303	1	1	79	2	2	5	2	2	0	1	0	0.19396	1	0.5	0	25	67	88	0
9-Apr-13	sub2303	2303	1	1	80	2	2	1	3	2	1	1	1	0.49179	1	0.5	0	21	60	61	0
9-Apr-13	sub2303	2303	1	1	81	2	2	6	6	2	1	2	1	0.08489	1	0.5	0	26	65	66	0
9-Apr-13	sub2303	2303	1	1	82	2	2	2	4	2	1	2	1	0.05395	1	0.5	0	22	60	61	0
9-Apr-13	sub2303	2303	1	1	83	2	2	4	1	3	1	2	1	0.12063	1	0.5	0	24	62	63	0
9-Apr-13	sub2303	2303	1	1	84	2	2	1	3	2	1	1	1	0.45801	1	0.5	0	21	60	61	0
9-Apr-13	sub2303	2303	1	1	85	2	2	2	4	2	1	2	1	0.00414	1	0.5	0	22	60	61	0
9-Apr-13	sub2303	2303	1	1	86	2	2	5	2	2	0	2	1	0.02852	0	0.5	0	25	87	68	0
9-Apr-13	sub2303	2303	1	1	87	2	2	4	1	3	1	2	1	0.04736	1	0.5	0	24	62	63	0
9-Apr-13	sub2303	2303	1	1	88	2	2	4	1	3	0	2	0	0.11912	1	0.5	0	24	64	89	0
9-Apr-13	sub2303	2303	1	1	89	2	2	2	4	2	1	2	1	0.10484	1	0.5	0	22	60	61	0
9-Apr-13	sub2303	2303	1	1	90	2	2	1	3	2	1	1	1	0.00689	1	0.5	0	21	60	61	0
9-Apr-13	sub2303	2303	1	1	91	2	2	5	2	2	0	2	1	0.00344	0	0.5	0	25	87	68	0
9-Apr-13	sub2303	2303	1	1	92	2	2	4	1	3	1	2	1	0.44572	1	0.5	0	24	62	63	0
9-Apr-13	sub2303	2303	1	1	93	2	2	3	5	3	0	2	1	0.42963	0	0.5	0	23	84	69	0
9-Apr-13	sub2303	2303	1	1	94	2	2	6	6	2	0	2	0	0.02253	1	0.5	0	26	67	88	0
9-Apr-13	sub2303	2303	1	1	95	2	2	2	4	2	1	2	1	0.01904	1	0.5	0	22	60	61	0
9-Apr-13	sub2303	2303	1	1	96	2	2	2	4	2	1	1	0	0.08989	0	0.5	0	22	80	81	0
9-Apr-13	sub2303	2303	1	1	97	2	2	5	2	2	0	2	1	0.04178	0	0.5	0	25	87	68	0
9-Apr-13	sub2303	2303	1	1	98	2	2	3	5	3	1	2	0	0.10145	0	0.5	0	23	82	83	0
9-Apr-13	sub2303	2303	1	1	99	2	2	3	5	3	1	1	1	0.04377	1	0.5	0	23	62	63	0
9-Apr-13	sub2303	2303	1	1	100	2	2	3	5	3	1	1	1	0.4925	1	0.5	0	23	62	63	0
9-Apr-13	sub2303	2303	1	1	101	2	2	2	4	2	1	2	1	0.47488	1	0.4	1	22	60	51	0
9-Apr-13	sub2303	2303	1	1	102	2	2	6	6	2	1	1	0	0.07208	0	0.5	0	26	85	86	0
9-Apr-13	sub2303	2303	1	1	103	2	2	6	6	2	0	2	0	0.40078	1	0.5	0	26	67	88	0
9-Apr-13	sub2303	2303	1	1	104	2	2	3	5	3	1	2	0	0.01667	0	0.5	0	23	82	83	0
9-Apr-13	sub2303	2303	1	1	105	2	2	3	5	3	1	1	1	0.12832	1	0.5	0	23	62	63	0
9-Apr-13	sub2303	2303	1	1	106	2	2	4	1	3	1	2	1	0.1027	1	0.5	0	24	62	63	0
9-Apr-13	sub2303	2303	1	1	107	2	2	4	1	3	1	1	0	0.06968	0	0.5	0	24	82	83	0
9-Apr-13	sub2303	2303	1	1	108	2	2	4	1	3	1	2	1	0.43014	1	0.5	0	24	62	63	0
9-Apr-13	sub2303	2303	1	1	109	2	2	6	6	2	1	1	0	0.48768	0	0.5	0	26	85	86	0
9-Apr-13	sub2303	2303	1	1	110	2	2	1	3	2	1	1	1	0.09949	1	0.5	0	21	60	61	0
9-Apr-13	sub2303	2303	1	1	111	2	2	1	3	2	1	1	1	0.05149	1	0.5	0	21	60	61	0
9-Apr-13	sub2303	2303	1	1	112	2	2	6	6	2	1	2	1	0.15898	1	0.5	0	26	65	66	0
9-Apr-13	sub2303	2303	1	1	113	2	2	3	5	3	1	2	0	0.00855	0	0.5	0	23	82	83	0
9-Apr-13	sub2303	2303	1	1	114	2	2	1	3	2	1	1	1	0.48358	1	0.5	0	21	60	61	0
9-Apr-13	sub2303	2303	1	1	115	2	2	5	2	2	0	2	1	0.0083	0	0.5	0	25	87	68	0
9-Apr-13	sub2303	2303	1	1	116	2	2	5	2	2	0	2	1	0.04244	0	0.5	0	25	87	68	0
9-Apr-13	sub2303	2303	1	1	117	2	2	6	6	2	1	1	0	0.49079	0	0.5	0	26	85	86	0
9-Apr-13	sub2303	2303	1	1	118	2	2	5	2	2	0	2	1	0.04269	0	0.5	0	25	87	68	0
9-Apr-13	sub2303	2303	1	1	119	2	2	1	3	2	1	1	1	0.47187	1	0.5	0	21	60	61	0
9-Apr-13	sub2303	2303	1	1	120	2	2	4	1	3	1	2	1	0.08424	1	0.5	0	24	62	63	0
9-Apr-13	sub2303	2303	1	1	121	2	2	2	4	2	1	2	1	0.07203	1	0.5	0	22	60	61	0
9-Apr-13	sub2303	2303	1	1	122	2	2	3	5	3	1	2	0	0.05479	0	0.5	0	23	82	83	0
9-Apr-13	sub2303	2303	1	1	123	2	2	5	2	2	0	2	1	0.03392	0	0.5	0	25	87	68	0
9-Apr-13	sub2303	2303	1	1	124	2	2	5	2	2	0	2	1	0.49221	0	0.5	0	25	87	68	0
9-Apr-13	sub2303	2303	1	1	125	2	2	6	6	2	0	2	0	0.07756	1	0.5	0	26	67	88	0
9-Apr-13	sub2303	2303	1	1	126	2	2	1	3	2	1	1	1	0.48688	1	0.5	0	21	60	61	0
9-Apr-13	sub2303	2303	1	1	127	2	2	2	4	2	1	2	1	0.49538	1	0.5	0	22	60	61	0
9-Apr-13	sub2303	2303	1	1	128	2	2	6	6	2	0	1	1	0.44881	0	0.5	0	26	87	68	0
9-Apr-13	sub2303	2303	1	1	129	2	2	5	2	2	0	2	1	0.03092	0	0.5	0	25	87	68	0
9-Apr-13	sub2303	2303	1	1	130	2	2	4	1	3	1	2	1	0.12537	1	0.5	0	24	62	63	0
9-Apr-13	sub2303	2303	1	1	131	2	2	4	1	3	0	2	0	0.43671	1	0.5	0	24	64	89	0
9-Apr-13	sub2303	2303	1	1	132	2	2	4	1	3	1	2	1	0.43087	1	0.5	0	24	62	63	0
9-Apr-13	sub2303	2303	1	1	133	2	2	3	5	3	1	1	1	0.06078	1	0.5	0	23	62	63	0
9-Apr-13	sub2303	2303	1	1	134	2	2	1	3	2	1	1	1	0.49277	1	0.5	0	21	60	61	0
9-Apr-13	sub2303	2303	1	1	135	2	2	5	2	2	0	2	1	0.00381	0	0.4	0	25	87	68	0
9-Apr-13	sub2303	2303	1	1	136	2	2	1	3	2	1	1	1	0.49609	1	0.4	1	21	60	51	0
9-Apr-13	sub2303	2303	1	1	137	2	2	1	3	2	1	1	1	0.37845	1	0.5	0	21	60	61	0
9-Apr-13	sub2303	2303	1	1	138	2	2	6	6	2	1	1	0	0.06071	0	0.5	0	26	85	86	0
9-Apr-13	sub2303	2303	1	1	139	2	2	3	5	3	0	2	1	0.2	0	0.5	0	23	84	69	0
9-Apr-13	sub2303	2303	1	1	140	2	2	5	2	2	0	2	1	0.02081	0	0.5	0	25	87	68	0
9-Apr-13	sub2303	2303	1	1	141	2	2	6	6	2	0	2	0	0.14032	1	0.5	0	26	67	88	0
9-Apr-13	sub2303	2303	1	1	142	2	2	1	3	2	1	1	1	0.04738	1	0.5	0	21	60	61	0
9-Apr-13	sub2303	2303	1	1	143	2	2	2	4	2	1	2	1	0.00863	1	0.5	0	22	60	61	0
9-Apr-13	sub2303	2303	1	1	144	2	2	2	4	2	1	2	1	0.09756	1	0.5	0	22	60	61	0
9-Apr-13	sub2303	2303	1	1	145	2	2	4	1	3	0	2	0	0.14632	1	0.5	0	24	64	89	0
9-Apr-13	sub2303	2303	1	1	146	2	2	2	4	2	1	2	1	0.07023	1	0.5	0	22	60	61	0
9-Apr-13	sub2303	2303	1	1	147	2	2	5	2	2	0	2	1	0.45586	0	0.5	0	25	87	68	0
9-Apr-13	sub2303	2303	1	1	148	2	2	2	4	2	1	2	1	0.41366	1	0.5	0	22	60	61	0
9-Apr-13	sub2303	2303	1	1	149	2	2	1	3	2	1	1	1	0.02255	1	0.5	0	21	60	61	0
9-Apr-13	sub2303	2303	1	1	150	2	2	4	1	3	1	2	1	0.01091	1	0.5	0	24	62	63	0
9-Apr-13	sub2303	2303	1	1	1	3	1	2	2	6	1	1	0	0.43021	0	0.6	0	12	40	41	0
9-Apr-13	sub2303	2303	1	1	2	3	1	4	6	6	1	1	0	0.07317	0	0.3	0	14	42	43	0
9-Apr-13	sub2303	2303	1	1	3	3	1	2	2	6	1	1	0	0.03474	0	0.3	0	12	40	41	0
9-Apr-13	sub2303	2303	1	1	4	3	1	6	3	6	1	1	0	0.11897	0	0.3	0	16	45	46	0
9-Apr-13	sub2303	2303	1	1	5	3	1	1	5	6	1	2	0	0.01414	0	0.3	0	11	40	41	0
9-Apr-13	sub2303	2303	1	1	6	3	1	2	2	6	1	2	1	0.04537	1	0.3	0	12	30	31	0
9-Apr-13	sub2303	2303	1	1	7	3	1	6	3	6	0	2	0	0.39392	1	0.3	1	16	37	51	0
9-Apr-13	sub2303	2303	1	1	8	3	1	5	4	6	1	2	0	0.00019	0	0.9	0	15	45	46	0
9-Apr-13	sub2303	2303	1	1	9	3	1	2	2	6	1	2	1	0.46738	1	0.9	0	12	30	31	0
9-Apr-13	sub2303	2303	1	1	10	3	1	4	6	6	1	2	1	0.49272	1	0.9	0	14	32	33	0
9-Apr-13	sub2303	2303	1	1	11	3	1	6	3	6	0	2	0	0.48153	1	0.9	0	16	37	48	0
9-Apr-13	sub2303	2303	1	1	12	3	1	6	3	6	0	1	1	0.44414	0	0.9	0	16	47	38	0
9-Apr-13	sub2303	2303	1	1	13	3	1	4	6	6	1	2	1	0.12561	1	0.9	0	14	32	33	0
9-Apr-13	sub2303	2303	1	1	14	3	1	4	6	6	1	2	1	0.0183	1	0.9	0	14	32	33	0
9-Apr-13	sub2303	2303	1	1	15	3	1	4	6	6	1	2	1	0.43368	1	0.9	0	14	32	33	0
9-Apr-13	sub2303	2303	1	1	16	3	1	3	1	4	1	1	1	0.08593	1	0.8	0	13	32	33	0
9-Apr-13	sub2303	2303	1	1	17	3	1	3	1	4	1	1	1	0.47629	1	0.8	0	13	32	33	0
9-Apr-13	sub2303	2303	1	1	18	3	1	6	3	6	0	1	1	0.13321	0	0.7	0	16	47	38	0
9-Apr-13	sub2303	2303	1	1	19	3	1	1	5	6	1	2	0	0.05697	0	0.7	0	11	40	41	0
9-Apr-13	sub2303	2303	1	1	20	3	1	3	1	4	1	1	1	0.09795	1	0.7	0	13	32	33	0
9-Apr-13	sub2303	2303	1	1	21	3	1	6	3	6	1	1	0	0.47277	0	0.6	0	16	45	46	0
9-Apr-13	sub2303	2303	1	1	22	3	1	2	2	6	1	1	0	0.00616	0	0.6	0	12	40	41	0
9-Apr-13	sub2303	2303	1	1	23	3	1	6	3	6	0	1	1	0.10396	0	0.6	0	16	47	38	0
9-Apr-13	sub2303	2303	1	1	24	3	1	1	5	6	1	1	1	0.11385	1	0.6	0	11	30	31	0
9-Apr-13	sub2303	2303	1	1	25	3	1	6	3	6	1	1	0	0.05304	0	0.6	0	16	45	46	0
9-Apr-13	sub2303	2303	1	1	26	3	1	5	4	6	0	2	1	0.01544	0	0.5	0	15	47	38	0
9-Apr-13	sub2303	2303	1	1	27	3	1	3	1	4	1	1	1	0.05365	1	0.5	0	13	32	33	0
9-Apr-13	sub2303	2303	1	1	28	3	1	5	4	6	1	2	0	0.49379	0	0.5	0	15	45	46	0
9-Apr-13	sub2303	2303	1	1	29	3	1	4	6	6	1	2	1	0.09618	1	0.5	0	14	32	33	0
9-Apr-13	sub2303	2303	1	1	30	3	1	5	4	6	1	2	0	0.03844	0	0.5	0	15	45	46	0
9-Apr-13	sub2303	2303	1	1	31	3	1	1	5	6	1	2	0	0.064	0	0.5	0	11	40	41	0
9-Apr-13	sub2303	2303	1	1	32	3	1	1	5	6	1	1	1	0.49238	1	0.5	0	11	30	31	0
9-Apr-13	sub2303	2303	1	1	33	3	1	2	2	6	1	1	0	0.04222	0	0.5	0	12	40	41	0
9-Apr-13	sub2303	2303	1	1	34	3	1	6	3	6	0	1	1	0.0449	0	0.5	0	16	47	38	0
9-Apr-13	sub2303	2303	1	1	35	3	1	2	2	6	1	2	1	0.45499	1	0.4	1	12	30	51	0
9-Apr-13	sub2303	2303	1	1	36	3	1	3	1	4	0	1	0	0.02893	1	0.7	0	13	34	49	0
9-Apr-13	sub2303	2303	1	1	37	3	1	5	4	6	0	2	1	0.02238	0	0.7	0	15	47	38	0
9-Apr-13	sub2303	2303	1	1	38	3	1	1	5	6	1	2	0	0.06434	0	0.7	0	11	40	41	0
9-Apr-13	sub2303	2303	1	1	39	3	1	5	4	6	0	2	1	0.04787	0	0.7	0	15	47	38	0
9-Apr-13	sub2303	2303	1	1	40	3	1	1	5	6	1	1	1	0.39398	1	0.7	0	11	30	31	0
9-Apr-13	sub2303	2303	1	1	41	3	1	2	2	6	1	2	1	0.49842	1	0.6	0	12	30	31	0
9-Apr-13	sub2303	2303	1	1	42	3	1	1	5	6	1	1	1	0.02526	1	0.6	0	11	30	31	0
9-Apr-13	sub2303	2303	1	1	43	3	1	3	1	4	1	1	1	0.18642	1	0.6	0	13	32	33	0
9-Apr-13	sub2303	2303	1	1	44	3	1	5	4	6	0	1	0	0.04164	1	0.6	0	15	37	48	0
9-Apr-13	sub2303	2303	1	1	45	3	1	6	3	6	0	1	1	0.47946	0	0.6	0	16	47	38	0
9-Apr-13	sub2303	2303	1	1	46	3	1	4	6	6	0	2	0	0.04534	1	0.6	0	14	34	49	0
9-Apr-13	sub2303	2303	1	1	47	3	1	4	6	6	1	1	0	0.42845	0	0.6	0	14	42	43	0
9-Apr-13	sub2303	2303	1	1	48	3	1	6	3	6	0	2	0	0.08178	1	0.6	0	16	37	48	0
9-Apr-13	sub2303	2303	1	1	49	3	1	3	1	4	1	1	1	0.49585	1	0.6	0	13	32	33	0
9-Apr-13	sub2303	2303	1	1	50	3	1	2	2	6	1	2	1	0.10475	1	0.6	0	12	30	31	0
9-Apr-13	sub2303	2303	1	1	51	3	1	2	2	6	1	2	1	0.45647	1	0.5	0	12	30	31	0
9-Apr-13	sub2303	2303	1	1	52	3	1	1	5	6	1	1	1	0.12258	1	0.5	0	11	30	31	0
9-Apr-13	sub2303	2303	1	1	53	3	1	1	5	6	1	2	0	0.05675	0	0.5	0	11	40	41	0
9-Apr-13	sub2303	2303	1	1	54	3	1	5	4	6	1	1	1	0.05532	1	0.5	0	15	35	36	0
9-Apr-13	sub2303	2303	1	1	55	3	1	1	5	6	1	1	1	0.01104	1	0.5	0	11	30	31	0
9-Apr-13	sub2303	2303	1	1	56	3	1	2	2	6	1	2	1	0.02219	1	0.5	0	12	30	31	0
9-Apr-13	sub2303	2303	1	1	57	3	1	4	6	6	1	2	1	0.0421	1	0.5	0	14	32	33	0
9-Apr-13	sub2303	2303	1	1	58	3	1	3	1	4	0	1	0	0.0278	1	0.5	0	13	34	49	0
9-Apr-13	sub2303	2303	1	1	59	3	1	3	1	4	1	2	0	0.49168	0	0.5	0	13	42	43	0
9-Apr-13	sub2303	2303	1	1	60	3	1	5	4	6	1	2	0	0.00392	0	0.5	0	15	45	46	0
9-Apr-13	sub2303	2303	1	1	61	3	1	6	3	6	1	1	0	0.02188	0	0.5	0	16	45	46	0
9-Apr-13	sub2303	2303	1	1	62	3	1	3	1	4	1	1	1	0.09627	1	0.5	0	13	32	33	0
9-Apr-13	sub2303	2303	1	1	63	3	1	5	4	6	1	1	1	0.09621	1	0.5	0	15	35	36	0
9-Apr-13	sub2303	2303	1	1	64	3	1	4	6	6	1	2	1	0.06731	1	0.5	0	14	32	33	0
9-Apr-13	sub2303	2303	1	1	65	3	1	3	1	4	1	1	1	0.49898	1	0.5	0	13	32	33	0
9-Apr-13	sub2303	2303	1	1	66	3	1	4	6	6	0	2	0	0.01704	1	0.5	0	14	34	49	0
9-Apr-13	sub2303	2303	1	1	67	3	1	2	2	6	1	2	1	0.07159	1	0.5	0	12	30	31	0
9-Apr-13	sub2303	2303	1	1	68	3	1	3	1	4	1	1	1	0.09655	1	0.4	0	13	32	33	0
9-Apr-13	sub2303	2303	1	1	69	3	1	5	4	6	1	1	1	0.09154	1	0.4	0	15	35	36	0
9-Apr-13	sub2303	2303	1	1	70	3	1	2	2	6	1	2	1	0.48575	1	0.4	1	12	30	51	0
9-Apr-13	sub2303	2303	1	1	71	3	1	6	3	6	1	1	0	0.13271	0	0.6	0	16	45	46	0
9-Apr-13	sub2303	2303	1	1	72	3	1	1	5	6	1	1	1	0.05377	1	0.6	0	11	30	31	0
9-Apr-13	sub2303	2303	1	1	73	3	1	3	1	4	0	1	0	0.03367	1	0.6	0	13	34	49	0
9-Apr-13	sub2303	2303	1	1	74	3	1	5	4	6	0	1	0	0.0952	1	0.6	0	15	37	48	0
9-Apr-13	sub2303	2303	1	1	75	3	1	4	6	6	1	2	1	0.05959	1	0.6	0	14	32	33	0
9-Apr-13	sub2303	2303	1	1	76	3	2	2	2	6	1	2	1	0.02334	1	0.5	0	22	60	61	0
9-Apr-13	sub2303	2303	1	1	77	3	2	4	6	6	0	2	0	0.03194	1	0.5	0	24	64	89	0
9-Apr-13	sub2303	2303	1	1	78	3	2	1	5	6	1	2	0	0.11106	0	0.5	0	21	80	81	0
9-Apr-13	sub2303	2303	1	1	79	3	2	2	2	6	1	2	1	0.49827	1	0.5	0	22	60	61	0
9-Apr-13	sub2303	2303	1	1	80	3	2	3	1	4	1	1	1	0.06031	1	0.5	0	23	62	63	0
9-Apr-13	sub2303	2303	1	1	81	3	2	4	6	6	1	1	0	0.20519	0	0.5	0	24	82	83	0
9-Apr-13	sub2303	2303	1	1	82	3	2	6	3	6	0	1	1	0.45442	0	0.5	0	26	87	68	0
9-Apr-13	sub2303	2303	1	1	83	3	2	1	5	6	1	1	1	0.05373	1	0.5	0	21	60	61	0
9-Apr-13	sub2303	2303	1	1	84	3	2	2	2	6	1	2	1	0.09758	1	0.5	0	22	60	61	0
9-Apr-13	sub2303	2303	1	1	85	3	2	1	5	6	1	1	1	0.49371	1	0.5	0	21	60	61	0
9-Apr-13	sub2303	2303	1	1	86	3	2	1	5	6	1	1	1	0.48526	1	0.5	0	21	60	61	0
9-Apr-13	sub2303	2303	1	1	87	3	2	4	6	6	1	2	1	0.01948	1	0.5	0	24	62	63	0
9-Apr-13	sub2303	2303	1	1	88	3	2	4	6	6	1	2	1	0.47331	1	0.5	0	24	62	63	0
9-Apr-13	sub2303	2303	1	1	89	3	2	6	3	6	0	1	1	0.04	0	0.5	0	26	87	68	0
9-Apr-13	sub2303	2303	1	1	90	3	2	2	2	6	1	2	1	0.48081	1	0.5	0	22	60	61	0
9-Apr-13	sub2303	2303	1	1	91	3	2	3	1	4	1	1	1	0.49902	1	0.5	0	23	62	63	0
9-Apr-13	sub2303	2303	1	1	92	3	2	1	5	6	1	1	1	0.37602	1	0.5	0	21	60	61	0
9-Apr-13	sub2303	2303	1	1	93	3	2	1	5	6	1	1	1	0.44774	1	0.5	0	21	60	61	0
9-Apr-13	sub2303	2303	1	1	94	3	2	6	3	6	1	1	0	0.43388	0	0.5	0	26	85	86	0
9-Apr-13	sub2303	2303	1	1	95	3	2	5	4	6	0	1	0	0.01695	1	0.5	0	25	67	88	0
9-Apr-13	sub2303	2303	1	1	96	3	2	5	4	6	0	2	1	0.4214	0	0.5	0	25	87	68	0
9-Apr-13	sub2303	2303	1	1	97	3	2	6	3	6	0	2	0	0.39544	1	0.5	0	26	67	88	0
9-Apr-13	sub2303	2303	1	1	98	3	2	3	1	4	1	1	1	0.45668	1	0.5	0	23	62	63	0
9-Apr-13	sub2303	2303	1	1	99	3	2	6	3	6	1	1	0	0.4742	0	0.5	0	26	85	86	0
9-Apr-13	sub2303	2303	1	1	100	3	2	6	3	6	1	2	1	0.48304	1	0.5	0	26	65	66	0
9-Apr-13	sub2303	2303	1	1	101	3	2	2	2	6	1	2	1	0.01779	1	0.4	0	22	60	61	0
9-Apr-13	sub2303	2303	1	1	102	3	2	3	1	4	1	1	1	0.02323	1	0.4	0	23	62	63	0
9-Apr-13	sub2303	2303	1	1	103	3	2	1	5	6	1	1	1	0.01255	1	0.4	0	21	60	61	0
9-Apr-13	sub2303	2303	1	1	104	3	2	6	3	6	1	1	0	0.49559	0	0.4	1	26	85	51	0
9-Apr-13	sub2303	2303	1	1	105	3	2	5	4	6	0	1	0	0.08049	1	0.5	0	25	67	88	0
9-Apr-13	sub2303	2303	1	1	106	3	2	6	3	6	1	1	0	0.01006	0	0.5	0	26	85	86	0
9-Apr-13	sub2303	2303	1	1	107	3	2	6	3	6	1	2	1	0.41358	1	0.5	0	26	65	66	0
9-Apr-13	sub2303	2303	1	1	108	3	2	4	6	6	1	2	1	0.01106	1	0.5	0	24	62	63	0
9-Apr-13	sub2303	2303	1	1	109	3	2	2	2	6	1	2	1	0.36824	1	0.5	0	22	60	61	0
9-Apr-13	sub2303	2303	1	1	110	3	2	4	6	6	1	2	1	0.44895	1	0.5	0	24	62	63	0
9-Apr-13	sub2303	2303	1	1	111	3	2	5	4	6	0	2	1	0.4037	0	0.5	0	25	87	68	0
9-Apr-13	sub2303	2303	1	1	112	3	2	5	4	6	0	2	1	0.39636	0	0.5	0	25	87	68	0
9-Apr-13	sub2303	2303	1	1	113	3	2	1	5	6	1	1	1	0.05361	1	0.5	0	21	60	61	0
9-Apr-13	sub2303	2303	1	1	114	3	2	2	2	6	1	2	1	0.04177	1	0.5	0	22	60	61	0
9-Apr-13	sub2303	2303	1	1	115	3	2	3	1	4	0	1	0	0.08364	1	0.5	0	23	64	89	0
9-Apr-13	sub2303	2303	1	1	116	3	2	3	1	4	1	2	0	0.35297	0	0.5	0	23	82	83	0
9-Apr-13	sub2303	2303	1	1	117	3	2	5	4	6	0	2	1	0.49324	0	0.5	0	25	87	68	0
9-Apr-13	sub2303	2303	1	1	118	3	2	2	2	6	1	2	1	0.01371	1	0.5	0	22	60	61	0
9-Apr-13	sub2303	2303	1	1	119	3	2	3	1	4	1	1	1	0.05074	1	0.5	0	23	62	63	0
9-Apr-13	sub2303	2303	1	1	120	3	2	2	2	6	1	2	1	0.01389	1	0.5	0	22	60	61	0
9-Apr-13	sub2303	2303	1	1	121	3	2	2	2	6	1	2	1	0.44956	1	0.5	0	22	60	61	0
9-Apr-13	sub2303	2303	1	1	122	3	2	6	3	6	0	1	1	0.16075	0	0.5	0	26	87	68	0
9-Apr-13	sub2303	2303	1	1	123	3	2	4	6	6	1	2	1	0.44263	1	0.5	0	24	62	63	0
9-Apr-13	sub2303	2303	1	1	124	3	2	3	1	4	1	1	1	0.41601	1	0.5	0	23	62	63	0
9-Apr-13	sub2303	2303	1	1	125	3	2	5	4	6	0	2	1	0.44935	0	0.5	0	25	87	68	0
9-Apr-13	sub2303	2303	1	1	126	3	2	6	3	6	0	1	1	0.08266	0	0.5	0	26	87	68	0
9-Apr-13	sub2303	2303	1	1	127	3	2	3	1	4	1	1	1	0.08708	1	0.5	0	23	62	63	0
9-Apr-13	sub2303	2303	1	1	128	3	2	4	6	6	1	2	1	0.47031	1	0.5	0	24	62	63	0
9-Apr-13	sub2303	2303	1	1	129	3	2	3	1	4	1	1	1	0.00734	1	0.5	0	23	62	63	0
9-Apr-13	sub2303	2303	1	1	130	3	2	4	6	6	0	2	0	0.00277	1	0.5	0	24	64	89	0
9-Apr-13	sub2303	2303	1	1	131	3	2	1	5	6	1	1	1	0.09448	1	0.5	0	21	60	61	0
9-Apr-13	sub2303	2303	1	1	132	3	2	4	6	6	0	2	0	0.08458	1	0.5	0	24	64	89	0
9-Apr-13	sub2303	2303	1	1	133	3	2	3	1	4	1	1	1	0.03029	1	0.5	0	23	62	63	0
9-Apr-13	sub2303	2303	1	1	134	3	2	2	2	6	1	2	1	0.03606	1	0.5	0	22	60	61	0
9-Apr-13	sub2303	2303	1	1	135	3	2	1	5	6	1	1	1	0.02062	1	0.4	0	21	60	61	0
9-Apr-13	sub2303	2303	1	1	136	3	2	3	1	4	0	1	0	0.12568	1	0.4	0	23	64	89	0
9-Apr-13	sub2303	2303	1	1	137	3	2	6	3	6	0	1	1	0.43393	0	0.4	1	26	87	51	0
9-Apr-13	sub2303	2303	1	1	138	3	2	2	2	6	1	2	1	0.02848	1	0.5	0	22	60	61	0
9-Apr-13	sub2303	2303	1	1	139	3	2	5	4	6	0	2	1	0.043	0	0.5	0	25	87	68	0
9-Apr-13	sub2303	2303	1	1	140	3	2	5	4	6	0	1	0	0.06313	1	0.5	0	25	67	88	0
9-Apr-13	sub2303	2303	1	1	141	3	2	5	4	6	0	2	1	0.48228	0	0.5	0	25	87	68	0
9-Apr-13	sub2303	2303	1	1	142	3	2	1	5	6	1	1	1	0.04721	1	0.5	0	21	60	61	0
9-Apr-13	sub2303	2303	1	1	143	3	2	4	6	6	1	2	1	0.00648	1	0.5	0	24	62	63	0
9-Apr-13	sub2303	2303	1	1	144	3	2	5	4	6	0	2	1	0.01791	0	0.5	0	25	87	68	0
9-Apr-13	sub2303	2303	1	1	145	3	2	5	4	6	0	2	1	0.4962	0	0.5	0	25	87	68	0
9-Apr-13	sub2303	2303	1	1	146	3	2	5	4	6	0	2	1	0.07477	0	0.5	0	25	87	68	0
9-Apr-13	sub2303	2303	1	1	147	3	2	4	6	6	1	2	1	0.16618	1	0.5	0	24	62	63	0
9-Apr-13	sub2303	2303	1	1	148	3	2	4	6	6	1	2	1	0.41118	1	0.5	0	24	62	63	0
9-Apr-13	sub2303	2303	1	1	149	3	2	1	5	6	1	2	0	0.38737	0	0.5	0	21	80	81	0
9-Apr-13	sub2303	2303	1	1	150	3	2	1	5	6	1	1	1	0.49131	1	0.5	0	21	60	61	0
9-Apr-13	sub2303	2303	1	1	1	4	1	6	5	5	0	2	0	0.41863	1	0.6	0	16	37	48	0
9-Apr-13	sub2303	2303	1	1	2	4	1	5	2	3	1	2	0	0.49269	0	0.3	1	15	45	51	0
9-Apr-13	sub2303	2303	1	1	3	4	1	5	2	3	0	2	1	0.46943	0	0.9	0	15	47	38	0
9-Apr-13	sub2303	2303	1	1	4	4	1	1	1	2	1	1	1	0.06112	1	0.9	0	11	30	31	0
9-Apr-13	sub2303	2303	1	1	5	4	1	2	6	1	1	1	0	0.16235	0	0.9	0	12	40	41	0
9-Apr-13	sub2303	2303	1	1	6	4	1	2	6	1	1	1	0	0.11554	0	0.9	0	12	40	41	0
9-Apr-13	sub2303	2303	1	1	7	4	1	5	2	3	0	2	1	0.22474	0	0.9	0	15	47	38	0
9-Apr-13	sub2303	2303	1	1	8	4	1	4	3	1	1	2	1	0.05926	1	0.9	0	14	32	33	0
9-Apr-13	sub2303	2303	1	1	9	4	1	3	4	1	0	2	1	0.05539	0	0.9	0	13	44	39	0
9-Apr-13	sub2303	2303	1	1	10	4	1	1	1	2	1	2	0	0.44699	0	0.9	0	11	40	41	0
9-Apr-13	sub2303	2303	1	1	11	4	1	4	3	1	1	2	1	0.04474	1	0.9	0	14	32	33	0
9-Apr-13	sub2303	2303	1	1	12	4	1	3	4	1	0	2	1	0.49151	0	0.9	0	13	44	39	0
9-Apr-13	sub2303	2303	1	1	13	4	1	5	2	3	1	2	0	0.09269	0	0.9	0	15	45	46	0
9-Apr-13	sub2303	2303	1	1	14	4	1	5	2	3	0	1	0	0.46234	1	0.9	0	15	37	48	0
9-Apr-13	sub2303	2303	1	1	15	4	1	2	6	1	1	1	0	0.09587	0	0.9	0	12	40	41	0
9-Apr-13	sub2303	2303	1	1	16	4	1	6	5	5	0	2	0	0.15945	1	0.8	0	16	37	48	0
9-Apr-13	sub2303	2303	1	1	17	4	1	3	4	1	1	2	0	0.01813	0	0.8	0	13	42	43	0
9-Apr-13	sub2303	2303	1	1	18	4	1	3	4	1	0	1	0	0.499	1	0.7	0	13	34	49	0
9-Apr-13	sub2303	2303	1	1	19	4	1	3	4	1	1	2	0	0.4612	0	0.7	0	13	42	43	0
9-Apr-13	sub2303	2303	1	1	20	4	1	3	4	1	1	1	1	0.42339	1	0.7	0	13	32	33	0
9-Apr-13	sub2303	2303	1	1	21	4	1	6	5	5	0	1	1	0.09692	0	0.6	0	16	47	38	0
9-Apr-13	sub2303	2303	1	1	22	4	1	2	6	1	1	1	0	0.1422	0	0.6	0	12	40	41	0
9-Apr-13	sub2303	2303	1	1	23	4	1	1	1	2	1	0	0	0	0	0.6	1	11	0	51	0
9-Apr-13	sub2303	2303	1	1	24	4	1	6	5	5	0	1	1	0.0036	0	0.9	0	16	47	38	0
9-Apr-13	sub2303	2303	1	1	25	4	1	1	1	2	1	1	1	0.37123	1	0.9	0	11	30	31	0
9-Apr-13	sub2303	2303	1	1	26	4	1	5	2	3	1	2	0	0.48433	0	0.9	0	15	45	46	0
9-Apr-13	sub2303	2303	1	1	27	4	1	2	6	1	1	2	1	0.46894	1	0.9	0	12	30	31	0
9-Apr-13	sub2303	2303	1	1	28	4	1	5	2	3	1	1	1	0.39065	1	0.9	0	15	35	36	0
9-Apr-13	sub2303	2303	1	1	29	4	1	6	5	5	0	1	1	0.01618	0	0.9	0	16	47	38	0
9-Apr-13	sub2303	2303	1	1	30	4	1	5	2	3	0	1	0	0.13923	1	0.8	0	15	37	48	0
9-Apr-13	sub2303	2303	1	1	31	4	1	5	2	3	0	1	0	0.48222	1	0.8	0	15	37	48	0
9-Apr-13	sub2303	2303	1	1	32	4	1	5	2	3	1	2	0	0.02558	0	0.8	0	15	45	46	0
9-Apr-13	sub2303	2303	1	1	33	4	1	1	1	2	1	1	1	0.04778	1	0.8	0	11	30	31	0
9-Apr-13	sub2303	2303	1	1	34	4	1	3	4	1	1	2	0	0.04947	0	0.8	0	13	42	43	0
9-Apr-13	sub2303	2303	1	1	35	4	1	6	5	5	0	1	1	0.07616	0	0.7	0	16	47	38	0
9-Apr-13	sub2303	2303	1	1	36	4	1	4	3	1	1	2	1	0.13908	1	0.7	0	14	32	33	0
9-Apr-13	sub2303	2303	1	1	37	4	1	3	4	1	1	2	0	0.03071	0	0.7	0	13	42	43	0
9-Apr-13	sub2303	2303	1	1	38	4	1	3	4	1	1	1	1	0.41195	1	0.7	0	13	32	33	0
9-Apr-13	sub2303	2303	1	1	39	4	1	4	3	1	1	2	1	0.09247	1	0.7	0	14	32	33	0
9-Apr-13	sub2303	2303	1	1	40	4	1	6	5	5	1	1	0	0.00451	0	0.7	0	16	45	46	0
9-Apr-13	sub2303	2303	1	1	41	4	1	5	2	3	1	1	1	0.0194	1	0.6	0	15	35	36	0
9-Apr-13	sub2303	2303	1	1	42	4	1	6	5	5	1	1	0	0.06125	0	0.6	0	16	45	46	0
9-Apr-13	sub2303	2303	1	1	43	4	1	4	3	1	1	1	0	0.07874	0	0.6	0	14	42	43	0
9-Apr-13	sub2303	2303	1	1	44	4	1	6	5	5	1	1	0	0.47666	0	0.6	0	16	45	46	0
9-Apr-13	sub2303	2303	1	1	45	4	1	4	3	1	1	2	1	0.02338	1	0.6	0	14	32	33	0
9-Apr-13	sub2303	2303	1	1	46	4	1	1	1	2	1	1	1	0.04377	1	0.6	0	11	30	31	0
9-Apr-13	sub2303	2303	1	1	47	4	1	3	4	1	1	2	0	0.07943	0	0.6	0	13	42	43	0
9-Apr-13	sub2303	2303	1	1	48	4	1	1	1	2	1	1	1	0.0903	1	0.6	0	11	30	31	0
9-Apr-13	sub2303	2303	1	1	49	4	1	3	4	1	1	1	1	0.35736	1	0.6	0	13	32	33	0
9-Apr-13	sub2303	2303	1	1	50	4	1	3	4	1	1	1	1	0.44681	1	0.6	0	13	32	33	0
9-Apr-13	sub2303	2303	1	1	51	4	1	2	6	1	1	2	1	0.08793	1	0.5	0	12	30	31	0
9-Apr-13	sub2303	2303	1	1	52	4	1	2	6	1	1	1	0	0.10544	0	0.5	0	12	40	41	0
9-Apr-13	sub2303	2303	1	1	53	4	1	4	3	1	0	2	0	0.07822	1	0.5	0	14	34	49	0
9-Apr-13	sub2303	2303	1	1	54	4	1	2	6	1	1	2	1	0.00873	1	0.5	0	12	30	31	0
9-Apr-13	sub2303	2303	1	1	55	4	1	1	1	2	1	2	0	0.13217	0	0.5	0	11	40	41	0
9-Apr-13	sub2303	2303	1	1	56	4	1	3	4	1	1	1	1	0.17015	1	0.5	0	13	32	33	0
9-Apr-13	sub2303	2303	1	1	57	4	1	1	1	2	1	1	1	0.02762	1	0.5	0	11	30	31	0
9-Apr-13	sub2303	2303	1	1	58	4	1	4	3	1	1	2	1	0.06645	1	0.5	0	14	32	33	0
9-Apr-13	sub2303	2303	1	1	59	4	1	2	6	1	1	2	1	0.04951	1	0.5	0	12	30	31	0
9-Apr-13	sub2303	2303	1	1	60	4	1	6	5	5	1	1	0	0.03689	0	0.5	0	16	45	46	0
9-Apr-13	sub2303	2303	1	1	61	4	1	6	5	5	1	2	1	0.42261	1	0.5	0	16	35	36	0
9-Apr-13	sub2303	2303	1	1	62	4	1	2	6	1	1	2	1	0.00643	1	0.5	0	12	30	31	0
9-Apr-13	sub2303	2303	1	1	63	4	1	1	1	2	1	1	1	0.07307	1	0.5	0	11	30	31	0
9-Apr-13	sub2303	2303	1	1	64	4	1	6	5	5	0	2	0	0.17053	1	0.5	0	16	37	48	0
9-Apr-13	sub2303	2303	1	1	65	4	1	6	5	5	0	2	0	0.03541	1	0.5	0	16	37	48	0
9-Apr-13	sub2303	2303	1	1	66	4	1	1	1	2	1	1	1	0.08599	1	0.5	0	11	30	31	0
9-Apr-13	sub2303	2303	1	1	67	4	1	2	6	1	1	2	1	0.09808	1	0.5	0	12	30	31	0
9-Apr-13	sub2303	2303	1	1	68	4	1	2	6	1	1	2	1	0.02288	1	0.4	0	12	30	31	0
9-Apr-13	sub2303	2303	1	1	69	4	1	2	6	1	1	2	1	0.05703	1	0.4	0	12	30	31	0
9-Apr-13	sub2303	2303	1	1	70	4	1	4	3	1	1	2	1	0.056	1	0.4	0	14	32	33	0
9-Apr-13	sub2303	2303	1	1	71	4	1	4	3	1	1	2	1	0.47393	1	0.4	1	14	32	51	0
9-Apr-13	sub2303	2303	1	1	72	4	1	4	3	1	0	2	0	0.47971	1	0.6	0	14	34	49	0
9-Apr-13	sub2303	2303	1	1	73	4	1	5	2	3	1	2	0	0.06934	0	0.6	0	15	45	46	0
9-Apr-13	sub2303	2303	1	1	74	4	1	1	1	2	1	1	1	0.48196	1	0.6	0	11	30	31	0
9-Apr-13	sub2303	2303	1	1	75	4	1	4	3	1	1	2	1	0.00032	1	0.6	0	14	32	33	0
9-Apr-13	sub2303	2303	1	1	76	4	2	1	1	2	1	1	1	0.02727	1	0.5	0	21	60	61	0
9-Apr-13	sub2303	2303	1	1	77	4	2	5	2	3	0	1	0	0.15073	1	0.5	0	25	67	88	0
9-Apr-13	sub2303	2303	1	1	78	4	2	3	4	1	1	2	0	0.07506	0	0.5	0	23	82	83	0
9-Apr-13	sub2303	2303	1	1	79	4	2	1	1	2	1	1	1	0.02305	1	0.5	0	21	60	61	0
9-Apr-13	sub2303	2303	1	1	80	4	2	5	2	3	0	1	0	0.41362	1	0.5	0	25	67	88	0
9-Apr-13	sub2303	2303	1	1	81	4	2	3	4	1	1	1	1	0.14575	1	0.5	0	23	62	63	0
9-Apr-13	sub2303	2303	1	1	82	4	2	6	5	5	0	1	1	0.09905	0	0.5	0	26	87	68	0
9-Apr-13	sub2303	2303	1	1	83	4	2	6	5	5	0	1	1	0.07926	0	0.5	0	26	87	68	0
9-Apr-13	sub2303	2303	1	1	84	4	2	4	3	1	0	2	0	0.03797	1	0.5	0	24	64	89	0
9-Apr-13	sub2303	2303	1	1	85	4	2	5	2	3	0	1	0	0.27576	1	0.5	0	25	67	88	0
9-Apr-13	sub2303	2303	1	1	86	4	2	4	3	1	0	2	0	0.06501	1	0.5	0	24	64	89	0
9-Apr-13	sub2303	2303	1	1	87	4	2	1	1	2	1	1	1	0.39331	1	0.5	0	21	60	61	0
9-Apr-13	sub2303	2303	1	1	88	4	2	1	1	2	1	1	1	0.47427	1	0.5	0	21	60	61	0
9-Apr-13	sub2303	2303	1	1	89	4	2	2	6	1	1	2	1	0.07286	1	0.5	0	22	60	61	0
9-Apr-13	sub2303	2303	1	1	90	4	2	6	5	5	0	1	1	0.02353	0	0.5	0	26	87	68	0
9-Apr-13	sub2303	2303	1	1	91	4	2	2	6	1	1	2	1	0.02499	1	0.5	0	22	60	61	0
9-Apr-13	sub2303	2303	1	1	92	4	2	6	5	5	1	1	0	0.46058	0	0.5	0	26	85	86	0
9-Apr-13	sub2303	2303	1	1	93	4	2	5	2	3	0	2	1	0.04205	0	0.5	0	25	87	68	0
9-Apr-13	sub2303	2303	1	1	94	4	2	3	4	1	1	1	1	0.23751	1	0.5	0	23	62	63	0
9-Apr-13	sub2303	2303	1	1	95	4	2	2	6	1	1	2	1	0.00743	1	0.5	0	22	60	61	0
9-Apr-13	sub2303	2303	1	1	96	4	2	6	5	5	1	1	0	0.02353	0	0.5	0	26	85	86	0
9-Apr-13	sub2303	2303	1	1	97	4	2	6	5	5	1	2	1	0.4375	1	0.5	0	26	65	66	0
9-Apr-13	sub2303	2303	1	1	98	4	2	6	5	5	1	2	1	0.09891	1	0.5	0	26	65	66	0
9-Apr-13	sub2303	2303	1	1	99	4	2	3	4	1	1	1	1	0.12834	1	0.5	0	23	62	63	0
9-Apr-13	sub2303	2303	1	1	100	4	2	3	4	1	1	1	1	0.04631	1	0.5	0	23	62	63	0
9-Apr-13	sub2303	2303	1	1	101	4	2	4	3	1	1	2	1	0.05496	1	0.4	0	24	62	63	0
9-Apr-13	sub2303	2303	1	1	102	4	2	1	1	2	1	1	1	0.49321	1	0.4	1	21	60	51	0
9-Apr-13	sub2303	2303	1	1	103	4	2	6	5	5	0	1	1	0.08742	0	0.5	0	26	87	68	0
9-Apr-13	sub2303	2303	1	1	104	4	2	4	3	1	1	2	1	0.02887	1	0.5	0	24	62	63	0
9-Apr-13	sub2303	2303	1	1	105	4	2	4	3	1	1	1	0	0.00639	0	0.5	0	24	82	83	0
9-Apr-13	sub2303	2303	1	1	106	4	2	2	6	1	1	2	1	0.00122	1	0.5	0	22	60	61	0
9-Apr-13	sub2303	2303	1	1	107	4	2	2	6	1	1	2	1	0.0035	1	0.5	0	22	60	61	0
9-Apr-13	sub2303	2303	1	1	108	4	2	5	2	3	0	1	0	0.15291	1	0.5	0	25	67	88	0
9-Apr-13	sub2303	2303	1	1	109	4	2	2	6	1	1	2	1	0.46889	1	0.5	0	22	60	61	0
9-Apr-13	sub2303	2303	1	1	110	4	2	5	2	3	0	2	1	0.37731	0	0.5	0	25	87	68	0
9-Apr-13	sub2303	2303	1	1	111	4	2	1	1	2	1	1	1	0.46645	1	0.5	0	21	60	61	0
9-Apr-13	sub2303	2303	1	1	112	4	2	6	5	5	1	2	1	0.0877	1	0.5	0	26	65	66	0
9-Apr-13	sub2303	2303	1	1	113	4	2	3	4	1	0	1	0	0.13876	1	0.5	0	23	64	89	0
9-Apr-13	sub2303	2303	1	1	114	4	2	4	3	1	1	2	1	0.42646	1	0.5	0	24	62	63	0
9-Apr-13	sub2303	2303	1	1	115	4	2	2	6	1	1	2	1	0.45925	1	0.5	0	22	60	61	0
9-Apr-13	sub2303	2303	1	1	116	4	2	3	4	1	1	2	0	0.41499	0	0.5	0	23	82	83	0
9-Apr-13	sub2303	2303	1	1	117	4	2	1	1	2	1	1	1	0.48005	1	0.5	0	21	60	61	0
9-Apr-13	sub2303	2303	1	1	118	4	2	4	3	1	0	2	0	0.06437	1	0.5	0	24	64	89	0
9-Apr-13	sub2303	2303	1	1	119	4	2	1	1	2	1	1	1	0.00837	1	0.5	0	21	60	61	0
9-Apr-13	sub2303	2303	1	1	120	4	2	3	4	1	0	1	0	0.01757	1	0.5	0	23	64	89	0
9-Apr-13	sub2303	2303	1	1	121	4	2	4	3	1	1	1	0	0.4439	0	0.5	0	24	82	83	0
9-Apr-13	sub2303	2303	1	1	122	4	2	3	4	1	1	1	1	0.02707	1	0.5	0	23	62	63	0
9-Apr-13	sub2303	2303	1	1	123	4	2	5	2	3	0	1	0	0.20523	1	0.5	0	25	67	88	0
9-Apr-13	sub2303	2303	1	1	124	4	2	2	6	1	1	2	1	0.4809	1	0.5	0	22	60	61	0
9-Apr-13	sub2303	2303	1	1	125	4	2	1	1	2	1	1	1	0.02141	1	0.5	0	21	60	61	0
9-Apr-13	sub2303	2303	1	1	126	4	2	5	2	3	0	2	1	0.39464	0	0.5	0	25	87	68	0
9-Apr-13	sub2303	2303	1	1	127	4	2	2	6	1	1	2	1	0.48148	1	0.5	0	22	60	61	0
9-Apr-13	sub2303	2303	1	1	128	4	2	2	6	1	1	2	1	0.40821	1	0.5	0	22	60	61	0
9-Apr-13	sub2303	2303	1	1	129	4	2	5	2	3	0	1	0	0.473	1	0.5	0	25	67	88	0
9-Apr-13	sub2303	2303	1	1	130	4	2	1	1	2	1	2	0	0.37663	0	0.5	0	21	80	81	0
9-Apr-13	sub2303	2303	1	1	131	4	2	4	3	1	1	2	1	0.46344	1	0.5	0	24	62	63	0
9-Apr-13	sub2303	2303	1	1	132	4	2	2	6	1	1	2	1	0.4812	1	0.5	0	22	60	61	0
9-Apr-13	sub2303	2303	1	1	133	4	2	5	2	3	0	2	1	0.09327	0	0.5	0	25	87	68	0
9-Apr-13	sub2303	2303	1	1	134	4	2	5	2	3	0	1	0	0.07045	1	0.5	0	25	67	88	0
9-Apr-13	sub2303	2303	1	1	135	4	2	4	3	1	1	2	1	0.02927	1	0.4	0	24	62	63	0
9-Apr-13	sub2303	2303	1	1	136	4	2	5	2	3	0	2	1	0.41895	0	0.4	1	25	87	51	0
9-Apr-13	sub2303	2303	1	1	137	4	2	6	5	5	0	1	1	0.14929	0	0.5	0	26	87	68	0
9-Apr-13	sub2303	2303	1	1	138	4	2	3	4	1	1	1	1	0.01131	1	0.5	0	23	62	63	0
9-Apr-13	sub2303	2303	1	1	139	4	2	3	4	1	1	1	1	0.49077	1	0.5	0	23	62	63	0
9-Apr-13	sub2303	2303	1	1	140	4	2	4	3	1	1	2	1	0.49741	1	0.5	0	24	62	63	0
9-Apr-13	sub2303	2303	1	1	141	4	2	1	1	2	1	1	1	0.02385	1	0.5	0	21	60	61	0
9-Apr-13	sub2303	2303	1	1	142	4	2	3	4	1	1	1	1	0.00398	1	0.5	0	23	62	63	0
9-Apr-13	sub2303	2303	1	1	143	4	2	6	5	5	1	1	0	0.05184	0	0.5	0	26	85	86	0
9-Apr-13	sub2303	2303	1	1	144	4	2	1	1	2	1	1	1	0.48649	1	0.5	0	21	60	61	0
9-Apr-13	sub2303	2303	1	1	145	4	2	4	3	1	1	2	1	0.03372	1	0.5	0	24	62	63	0
9-Apr-13	sub2303	2303	1	1	146	4	2	4	3	1	1	2	1	0.49617	1	0.5	0	24	62	63	0
9-Apr-13	sub2303	2303	1	1	147	4	2	6	5	5	0	1	1	0.49914	0	0.5	0	26	87	68	0
9-Apr-13	sub2303	2303	1	1	148	4	2	5	2	3	0	1	0	0.08335	1	0.5	0	25	67	88	0
9-Apr-13	sub2303	2303	1	1	149	4	2	1	1	2	1	1	1	0.10872	1	0.5	0	21	60	61	0
9-Apr-13	sub2303	2303	1	1	150	4	2	2	6	1	1	2	1	0.46797	1	0.5	0	22	60	61	0
9-Apr-13	sub2303	2303	1	1	1	5	1	3	6	4	1	2	0	0.04513	0	0.6	0	13	42	43	0
9-Apr-13	sub2303	2303	1	1	2	5	1	1	5	1	1	2	0	0.05275	0	0.3	0	11	40	41	0
9-Apr-13	sub2303	2303	1	1	3	5	1	6	2	5	1	2	1	0.08726	1	0.3	0	16	35	36	0
9-Apr-13	sub2303	2303	1	1	4	5	1	4	4	3	1	2	1	0.02056	1	0.3	0	14	32	33	0
9-Apr-13	sub2303	2303	1	1	5	5	1	6	2	5	1	2	1	0.12717	1	0.3	0	16	35	36	0
9-Apr-13	sub2303	2303	1	1	6	5	1	4	4	3	1	1	0	0.45757	0	0.3	1	14	42	51	0
9-Apr-13	sub2303	2303	1	1	7	5	1	1	5	1	1	1	1	0.10692	1	0.9	0	11	30	31	0
9-Apr-13	sub2303	2303	1	1	8	5	1	2	1	5	1	2	1	0.08564	1	0.9	0	12	30	31	0
9-Apr-13	sub2303	2303	1	1	9	5	1	3	6	4	0	1	0	0.00609	1	0.9	0	13	34	49	0
9-Apr-13	sub2303	2303	1	1	10	5	1	5	3	3	0	2	1	0.16584	0	0.9	0	15	47	38	0
9-Apr-13	sub2303	2303	1	1	11	5	1	5	3	3	1	2	0	0.46395	0	0.9	0	15	45	46	0
9-Apr-13	sub2303	2303	1	1	12	5	1	6	2	5	1	2	1	0.05877	1	0.9	0	16	35	36	0
9-Apr-13	sub2303	2303	1	1	13	5	1	2	1	5	1	2	1	0.07101	1	0.9	0	12	30	31	0
9-Apr-13	sub2303	2303	1	1	14	5	1	2	1	5	1	2	1	0.49982	1	0.9	0	12	30	31	0
9-Apr-13	sub2303	2303	1	1	15	5	1	2	1	5	1	2	1	0.4121	1	0.9	0	12	30	31	0
9-Apr-13	sub2303	2303	1	1	16	5	1	5	3	3	0	2	1	0.48263	0	0.8	0	15	47	38	0
9-Apr-13	sub2303	2303	1	1	17	5	1	1	5	1	1	1	1	0.05386	1	0.8	0	11	30	31	0
9-Apr-13	sub2303	2303	1	1	18	5	1	2	1	5	1	2	1	0.0208	1	0.7	0	12	30	31	0
9-Apr-13	sub2303	2303	1	1	19	5	1	3	6	4	1	1	1	0.006	1	0.7	0	13	32	33	0
9-Apr-13	sub2303	2303	1	1	20	5	1	2	1	5	1	2	1	0.08386	1	0.7	0	12	30	31	0
9-Apr-13	sub2303	2303	1	1	21	5	1	5	3	3	1	2	0	0.48595	0	0.6	0	15	45	46	0
9-Apr-13	sub2303	2303	1	1	22	5	1	6	2	5	0	1	1	0.18922	0	0.6	0	16	47	38	0
9-Apr-13	sub2303	2303	1	1	23	5	1	4	4	3	1	1	0	0.1004	0	0.6	0	14	42	43	0
9-Apr-13	sub2303	2303	1	1	24	5	1	5	3	3	1	2	0	0.06147	0	0.6	0	15	45	46	0
9-Apr-13	sub2303	2303	1	1	25	5	1	6	2	5	0	2	0	0.04683	1	0.6	0	16	37	48	0
9-Apr-13	sub2303	2303	1	1	26	5	1	3	6	4	1	1	1	0.09121	1	0.5	0	13	32	33	0
9-Apr-13	sub2303	2303	1	1	27	5	1	3	6	4	1	1	1	0.06485	1	0.5	0	13	32	33	0
9-Apr-13	sub2303	2303	1	1	28	5	1	1	5	1	1	1	1	0.0394	1	0.5	0	11	30	31	0
9-Apr-13	sub2303	2303	1	1	29	5	1	4	4	3	1	1	0	0.07494	0	0.5	0	14	42	43	0
9-Apr-13	sub2303	2303	1	1	30	5	1	2	1	5	1	2	1	0.05819	1	0.5	0	12	30	31	0
9-Apr-13	sub2303	2303	1	1	31	5	1	3	6	4	0	1	0	0.12175	1	0.5	0	13	34	49	0
9-Apr-13	sub2303	2303	1	1	32	5	1	6	2	5	1	2	1	0.48031	1	0.5	0	16	35	36	0
9-Apr-13	sub2303	2303	1	1	33	5	1	3	6	4	1	1	1	0.0897	1	0.5	0	13	32	33	0
9-Apr-13	sub2303	2303	1	1	34	5	1	4	4	3	0	2	0	0.035	1	0.5	0	14	34	49	0
9-Apr-13	sub2303	2303	1	1	35	5	1	5	3	3	0	2	1	0.12186	0	0.4	0	15	47	38	0
9-Apr-13	sub2303	2303	1	1	36	5	1	4	4	3	1	2	1	0.45939	1	0.4	1	14	32	51	0
9-Apr-13	sub2303	2303	1	1	37	5	1	1	5	1	1	1	1	0.18482	1	0.7	0	11	30	31	0
9-Apr-13	sub2303	2303	1	1	38	5	1	5	3	3	1	2	0	0.04393	0	0.7	0	15	45	46	0
9-Apr-13	sub2303	2303	1	1	39	5	1	3	6	4	0	1	0	0.05033	1	0.7	0	13	34	49	0
9-Apr-13	sub2303	2303	1	1	40	5	1	2	1	5	1	2	1	0.03377	1	0.7	0	12	30	31	0
9-Apr-13	sub2303	2303	1	1	41	5	1	3	6	4	1	1	1	0.02	1	0.6	0	13	32	33	0
9-Apr-13	sub2303	2303	1	1	42	5	1	5	3	3	1	2	0	0.03616	0	0.6	0	15	45	46	0
9-Apr-13	sub2303	2303	1	1	43	5	1	5	3	3	1	2	0	0.0586	0	0.6	0	15	45	46	0
9-Apr-13	sub2303	2303	1	1	44	5	1	3	6	4	1	1	1	0.4719	1	0.6	0	13	32	33	0
9-Apr-13	sub2303	2303	1	1	45	5	1	2	1	5	1	2	1	0.06093	1	0.6	0	12	30	31	0
9-Apr-13	sub2303	2303	1	1	46	5	1	4	4	3	1	2	1	0.10309	1	0.6	0	14	32	33	0
9-Apr-13	sub2303	2303	1	1	47	5	1	5	3	3	1	2	0	0.01654	0	0.6	0	15	45	46	0
9-Apr-13	sub2303	2303	1	1	48	5	1	4	4	3	1	1	0	0.03543	0	0.6	0	14	42	43	0
9-Apr-13	sub2303	2303	1	1	49	5	1	1	5	1	1	1	1	0.08401	1	0.6	0	11	30	31	0
9-Apr-13	sub2303	2303	1	1	50	5	1	5	3	3	0	2	1	0.07379	0	0.6	0	15	47	38	0
9-Apr-13	sub2303	2303	1	1	51	5	1	4	4	3	1	1	0	0.11459	0	0.5	0	14	42	43	0
9-Apr-13	sub2303	2303	1	1	52	5	1	6	2	5	1	1	0	0.05912	0	0.5	0	16	45	46	0
9-Apr-13	sub2303	2303	1	1	53	5	1	1	5	1	1	2	0	0.4712	0	0.5	0	11	40	41	0
9-Apr-13	sub2303	2303	1	1	54	5	1	4	4	3	1	2	1	0.09431	1	0.5	0	14	32	33	0
9-Apr-13	sub2303	2303	1	1	55	5	1	2	1	5	1	2	1	0.02454	1	0.5	0	12	30	31	0
9-Apr-13	sub2303	2303	1	1	56	5	1	6	2	5	0	2	0	0.05402	1	0.5	0	16	37	48	0
9-Apr-13	sub2303	2303	1	1	57	5	1	3	6	4	1	1	1	0.10422	1	0.5	0	13	32	33	0
9-Apr-13	sub2303	2303	1	1	58	5	1	1	5	1	1	1	1	0.07067	1	0.5	0	11	30	31	0
9-Apr-13	sub2303	2303	1	1	59	5	1	2	1	5	1	2	1	0.12138	1	0.5	0	12	30	31	0
9-Apr-13	sub2303	2303	1	1	60	5	1	6	2	5	1	1	0	0.00688	0	0.5	0	16	45	46	0
9-Apr-13	sub2303	2303	1	1	61	5	1	4	4	3	1	2	1	0.06929	1	0.5	0	14	32	33	0
9-Apr-13	sub2303	2303	1	1	62	5	1	6	2	5	0	1	1	0.03888	0	0.5	0	16	47	38	0
9-Apr-13	sub2303	2303	1	1	63	5	1	6	2	5	0	1	1	0.02143	0	0.5	0	16	47	38	0
9-Apr-13	sub2303	2303	1	1	64	5	1	2	1	5	1	2	1	0.49375	1	0.5	0	12	30	31	0
9-Apr-13	sub2303	2303	1	1	65	5	1	6	2	5	0	1	1	0.03615	0	0.5	0	16	47	38	0
9-Apr-13	sub2303	2303	1	1	66	5	1	5	3	3	0	2	1	0.49647	0	0.5	0	15	47	38	0
9-Apr-13	sub2303	2303	1	1	67	5	1	1	5	1	1	1	1	0.48969	1	0.5	0	11	30	31	0
9-Apr-13	sub2303	2303	1	1	68	5	1	3	6	4	1	1	1	0.03928	1	0.4	0	13	32	33	0
9-Apr-13	sub2303	2303	1	1	69	5	1	1	5	1	1	1	1	0.45424	1	0.4	1	11	30	51	0
9-Apr-13	sub2303	2303	1	1	70	5	1	3	6	4	1	1	1	0.46232	1	0.6	0	13	32	33	0
9-Apr-13	sub2303	2303	1	1	71	5	1	6	2	5	0	1	1	0.47473	0	0.6	0	16	47	38	0
9-Apr-13	sub2303	2303	1	1	72	5	1	1	5	1	1	1	1	0.44123	1	0.6	0	11	30	31	0
9-Apr-13	sub2303	2303	1	1	73	5	1	2	1	5	1	1	0	0.4458	0	0.6	0	12	40	41	0
9-Apr-13	sub2303	2303	1	1	74	5	1	4	4	3	0	2	0	0.06377	1	0.6	0	14	34	49	0
9-Apr-13	sub2303	2303	1	1	75	5	1	1	5	1	1	1	1	0.18028	1	0.6	0	11	30	31	0
9-Apr-13	sub2303	2303	1	1	76	5	2	5	3	3	0	2	1	0.06639	0	0.5	0	25	87	68	0
9-Apr-13	sub2303	2303	1	1	77	5	2	4	4	3	0	1	1	0.49877	0	0.5	0	24	84	69	0
9-Apr-13	sub2303	2303	1	1	78	5	2	2	1	5	1	2	1	0.05073	1	0.5	0	22	60	61	0
9-Apr-13	sub2303	2303	1	1	79	5	2	5	3	3	0	2	1	0.06781	0	0.5	0	25	87	68	0
9-Apr-13	sub2303	2303	1	1	80	5	2	2	1	5	1	2	1	0.47794	1	0.5	0	22	60	61	0
9-Apr-13	sub2303	2303	1	1	81	5	2	3	6	4	0	1	0	0.05264	1	0.5	0	23	64	89	0
9-Apr-13	sub2303	2303	1	1	82	5	2	3	6	4	1	2	0	0.40735	0	0.5	0	23	82	83	0
9-Apr-13	sub2303	2303	1	1	83	5	2	1	5	1	1	1	1	0.48727	1	0.5	0	21	60	61	0
9-Apr-13	sub2303	2303	1	1	84	5	2	1	5	1	1	1	1	0.02486	1	0.5	0	21	60	61	0
9-Apr-13	sub2303	2303	1	1	85	5	2	4	4	3	1	1	0	0.13199	0	0.5	0	24	82	83	0
9-Apr-13	sub2303	2303	1	1	86	5	2	5	3	3	0	2	1	0.05507	0	0.5	0	25	87	68	0
9-Apr-13	sub2303	2303	1	1	87	5	2	1	5	1	1	1	1	0.03167	1	0.5	0	21	60	61	0
9-Apr-13	sub2303	2303	1	1	88	5	2	1	5	1	1	1	1	0.04999	1	0.5	0	21	60	61	0
9-Apr-13	sub2303	2303	1	1	89	5	2	5	3	3	0	2	1	0.13099	0	0.5	0	25	87	68	0
9-Apr-13	sub2303	2303	1	1	90	5	2	1	5	1	1	1	1	0.02931	1	0.5	0	21	60	61	0
9-Apr-13	sub2303	2303	1	1	91	5	2	4	4	3	1	2	1	0.02516	1	0.5	0	24	62	63	0
9-Apr-13	sub2303	2303	1	1	92	5	2	5	3	3	0	2	1	0.05073	0	0.5	0	25	87	68	0
9-Apr-13	sub2303	2303	1	1	93	5	2	1	5	1	1	2	0	0.44335	0	0.5	0	21	80	81	0
9-Apr-13	sub2303	2303	1	1	94	5	2	3	6	4	0	1	0	0.12723	1	0.5	0	23	64	89	0
9-Apr-13	sub2303	2303	1	1	95	5	2	4	4	3	1	2	1	0.13243	1	0.5	0	24	62	63	0
9-Apr-13	sub2303	2303	1	1	96	5	2	2	1	5	1	2	1	0.10753	1	0.5	0	22	60	61	0
9-Apr-13	sub2303	2303	1	1	97	5	2	2	1	5	1	2	1	0.47366	1	0.5	0	22	60	61	0
9-Apr-13	sub2303	2303	1	1	98	5	2	6	2	5	1	1	0	0.1321	0	0.5	0	26	85	86	0
9-Apr-13	sub2303	2303	1	1	99	5	2	6	2	5	0	1	1	0.43347	0	0.5	0	26	87	68	0
9-Apr-13	sub2303	2303	1	1	100	5	2	6	2	5	0	1	1	0.47129	0	0.5	0	26	87	68	0
9-Apr-13	sub2303	2303	1	1	101	5	2	5	3	3	0	2	1	0.44971	0	0.4	1	25	87	51	0
9-Apr-13	sub2303	2303	1	1	102	5	2	6	2	5	1	1	0	0.04672	0	0.5	0	26	85	86	0
9-Apr-13	sub2303	2303	1	1	103	5	2	6	2	5	0	1	1	0.05422	0	0.5	0	26	87	68	0
9-Apr-13	sub2303	2303	1	1	104	5	2	6	2	5	1	1	0	0.45559	0	0.5	0	26	85	86	0
9-Apr-13	sub2303	2303	1	1	105	5	2	1	5	1	1	2	0	0.04283	0	0.5	0	21	80	81	0
9-Apr-13	sub2303	2303	1	1	106	5	2	4	4	3	1	2	1	0.04012	1	0.5	0	24	62	63	0
9-Apr-13	sub2303	2303	1	1	107	5	2	6	2	5	0	1	1	0.00009	0	0.5	0	26	87	68	0
9-Apr-13	sub2303	2303	1	1	108	5	2	3	6	4	1	1	1	0.06547	1	0.5	0	23	62	63	0
9-Apr-13	sub2303	2303	1	1	109	5	2	5	3	3	0	2	1	0.03505	0	0.5	0	25	87	68	0
9-Apr-13	sub2303	2303	1	1	110	5	2	1	5	1	1	1	1	0.10298	1	0.5	0	21	60	61	0
9-Apr-13	sub2303	2303	1	1	111	5	2	4	4	3	0	2	0	0.05801	1	0.5	0	24	64	89	0
9-Apr-13	sub2303	2303	1	1	112	5	2	5	3	3	0	2	1	0.04061	0	0.5	0	25	87	68	0
9-Apr-13	sub2303	2303	1	1	113	5	2	1	5	1	1	1	1	0.46628	1	0.5	0	21	60	61	0
9-Apr-13	sub2303	2303	1	1	114	5	2	6	2	5	1	1	0	0.02212	0	0.5	0	26	85	86	0
9-Apr-13	sub2303	2303	1	1	115	5	2	4	4	3	1	2	1	0.23376	1	0.5	0	24	62	63	0
9-Apr-13	sub2303	2303	1	1	116	5	2	4	4	3	1	2	1	0.15757	1	0.5	0	24	62	63	0
9-Apr-13	sub2303	2303	1	1	117	5	2	2	1	5	1	2	1	0.0281	1	0.5	0	22	60	61	0
9-Apr-13	sub2303	2303	1	1	118	5	2	5	3	3	0	2	1	0.03086	0	0.5	0	25	87	68	0
9-Apr-13	sub2303	2303	1	1	119	5	2	3	6	4	1	1	1	0.07472	1	0.5	0	23	62	63	0
9-Apr-13	sub2303	2303	1	1	120	5	2	2	1	5	1	2	1	0.46733	1	0.5	0	22	60	61	0
9-Apr-13	sub2303	2303	1	1	121	5	2	6	2	5	0	2	0	0.44379	1	0.5	0	26	67	88	0
9-Apr-13	sub2303	2303	1	1	122	5	2	5	3	3	0	2	1	0.49546	0	0.5	0	25	87	68	0
9-Apr-13	sub2303	2303	1	1	123	5	2	2	1	5	1	2	1	0.47405	1	0.5	0	22	60	61	0
9-Apr-13	sub2303	2303	1	1	124	5	2	4	4	3	1	2	1	0.08296	1	0.5	0	24	62	63	0
9-Apr-13	sub2303	2303	1	1	125	5	2	3	6	4	1	1	1	0.03527	1	0.5	0	23	62	63	0
9-Apr-13	sub2303	2303	1	1	126	5	2	5	3	3	0	2	1	0.45651	0	0.5	0	25	87	68	0
9-Apr-13	sub2303	2303	1	1	127	5	2	4	4	3	1	2	1	0.00732	1	0.5	0	24	62	63	0
9-Apr-13	sub2303	2303	1	1	128	5	2	1	5	1	1	1	1	0.49603	1	0.5	0	21	60	61	0
9-Apr-13	sub2303	2303	1	1	129	5	2	3	6	4	1	1	1	0.48095	1	0.5	0	23	62	63	0
9-Apr-13	sub2303	2303	1	1	130	5	2	4	4	3	0	2	0	0.07874	1	0.5	0	24	64	89	0
9-Apr-13	sub2303	2303	1	1	131	5	2	2	1	5	1	2	1	0.4819	1	0.5	0	22	60	61	0
9-Apr-13	sub2303	2303	1	1	132	5	2	4	4	3	1	2	1	0.02867	1	0.5	0	24	62	63	0
9-Apr-13	sub2303	2303	1	1	133	5	2	6	2	5	1	2	1	0.36318	1	0.5	0	26	65	66	0
9-Apr-13	sub2303	2303	1	1	134	5	2	3	6	4	1	1	1	0.07398	1	0.5	0	23	62	63	0
9-Apr-13	sub2303	2303	1	1	135	5	2	3	6	4	1	1	1	0.4571	1	0.4	1	23	62	51	0
9-Apr-13	sub2303	2303	1	1	136	5	2	6	2	5	1	1	0	0.48852	0	0.5	0	26	85	86	0
9-Apr-13	sub2303	2303	1	1	137	5	2	2	1	5	1	2	1	0.47331	1	0.5	0	22	60	61	0
9-Apr-13	sub2303	2303	1	1	138	5	2	6	2	5	0	1	1	0.42119	0	0.5	0	26	87	68	0
9-Apr-13	sub2303	2303	1	1	139	5	2	4	4	3	1	2	1	0.06168	1	0.5	0	24	62	63	0
9-Apr-13	sub2303	2303	1	1	140	5	2	2	1	5	1	2	1	0.03165	1	0.5	0	22	60	61	0
9-Apr-13	sub2303	2303	1	1	141	5	2	5	3	3	0	2	1	0.02046	0	0.5	0	25	87	68	0
9-Apr-13	sub2303	2303	1	1	142	5	2	3	6	4	1	1	1	0.04121	1	0.5	0	23	62	63	0
9-Apr-13	sub2303	2303	1	1	143	5	2	3	6	4	1	1	1	0.45884	1	0.5	0	23	62	63	0
9-Apr-13	sub2303	2303	1	1	144	5	2	2	1	5	1	2	1	0.00508	1	0.5	0	22	60	61	0
9-Apr-13	sub2303	2303	1	1	145	5	2	1	5	1	1	1	1	0.47484	1	0.5	0	21	60	61	0
9-Apr-13	sub2303	2303	1	1	146	5	2	1	5	1	1	1	1	0.06349	1	0.5	0	21	60	61	0
9-Apr-13	sub2303	2303	1	1	147	5	2	2	1	5	1	2	1	0.33045	1	0.5	0	22	60	61	0
9-Apr-13	sub2303	2303	1	1	148	5	2	1	5	1	1	1	1	0.04424	1	0.5	0	21	60	61	0
9-Apr-13	sub2303	2303	1	1	149	5	2	3	6	4	1	1	1	0.47067	1	0.5	0	23	62	63	0
9-Apr-13	sub2303	2303	1	1	150	5	2	5	3	3	0	2	1	0.4259	0	0.5	0	25	87	68	0
9-Apr-13	sub2303	2303	1	1	1	6	1	3	6	3	0	1	0	0.30133	1	0.6	0	13	34	49	0
9-Apr-13	sub2303	2303	1	1	2	6	1	3	6	3	1	2	0	0.47907	0	0.3	1	13	42	51	0
9-Apr-13	sub2303	2303	1	1	3	6	1	2	5	2	1	1	0	0.08239	0	0.9	0	12	40	41	0
9-Apr-13	sub2303	2303	1	1	4	6	1	3	6	3	1	2	0	0.11548	0	0.9	0	13	42	43	0
9-Apr-13	sub2303	2303	1	1	5	6	1	3	6	3	1	2	0	0.42448	0	0.9	0	13	42	43	0
9-Apr-13	sub2303	2303	1	1	6	6	1	5	2	4	1	2	0	0.04185	0	0.9	0	15	45	46	0
9-Apr-13	sub2303	2303	1	1	7	6	1	4	3	4	1	2	1	0.03185	1	0.9	0	14	32	33	0
9-Apr-13	sub2303	2303	1	1	8	6	1	6	4	4	0	2	0	0.01111	1	0.9	0	16	37	48	0
9-Apr-13	sub2303	2303	1	1	9	6	1	1	1	1	1	1	1	0.08748	1	0.9	0	11	30	31	0
9-Apr-13	sub2303	2303	1	1	10	6	1	1	1	1	1	1	1	0.43915	1	0.9	0	11	30	31	0
9-Apr-13	sub2303	2303	1	1	11	6	1	6	4	4	1	1	0	0.49759	0	0.9	0	16	45	46	0
9-Apr-13	sub2303	2303	1	1	12	6	1	5	2	4	0	1	0	0.006	1	0.9	0	15	37	48	0
9-Apr-13	sub2303	2303	1	1	13	6	1	3	6	3	0	1	0	0.04939	1	0.9	0	13	34	49	0
9-Apr-13	sub2303	2303	1	1	14	6	1	5	2	4	0	2	1	0.4657	0	0.9	0	15	47	38	0
9-Apr-13	sub2303	2303	1	1	15	6	1	6	4	4	0	2	0	0.00965	1	0.9	0	16	37	48	0
9-Apr-13	sub2303	2303	1	1	16	6	1	5	2	4	0	2	1	0.03866	0	0.8	0	15	47	38	0
9-Apr-13	sub2303	2303	1	1	17	6	1	3	6	3	1	2	0	0.08061	0	0.8	0	13	42	43	0
9-Apr-13	sub2303	2303	1	1	18	6	1	6	4	4	1	2	1	0.07461	1	0.7	0	16	35	36	0
9-Apr-13	sub2303	2303	1	1	19	6	1	2	5	2	1	2	1	0.01553	1	0.7	0	12	30	31	0
9-Apr-13	sub2303	2303	1	1	20	6	1	6	4	4	1	1	0	0.49857	0	0.7	0	16	45	46	0
9-Apr-13	sub2303	2303	1	1	21	6	1	5	2	4	1	2	0	0.48563	0	0.6	0	15	45	46	0
9-Apr-13	sub2303	2303	1	1	22	6	1	3	6	3	1	1	1	0.06161	1	0.6	0	13	32	33	0
9-Apr-13	sub2303	2303	1	1	23	6	1	4	3	4	1	1	0	0.10518	0	0.6	0	14	42	43	0
9-Apr-13	sub2303	2303	1	1	24	6	1	2	5	2	1	2	1	0.00955	1	0.6	0	12	30	31	0
9-Apr-13	sub2303	2303	1	1	25	6	1	4	3	4	0	2	0	0.4165	1	0.6	0	14	34	49	0
9-Apr-13	sub2303	2303	1	1	26	6	1	5	2	4	0	2	1	0.04152	0	0.5	0	15	47	38	0
9-Apr-13	sub2303	2303	1	1	27	6	1	5	2	4	1	2	0	0.47965	0	0.5	0	15	45	46	0
9-Apr-13	sub2303	2303	1	1	28	6	1	2	5	2	1	2	1	0.45457	1	0.5	0	12	30	31	0
9-Apr-13	sub2303	2303	1	1	29	6	1	3	6	3	1	1	1	0.49313	1	0.5	0	13	32	33	0
9-Apr-13	sub2303	2303	1	1	30	6	1	1	1	1	1	1	1	0.02659	1	0.5	0	11	30	31	0
9-Apr-13	sub2303	2303	1	1	31	6	1	2	5	2	1	2	1	0.05833	1	0.5	0	12	30	31	0
9-Apr-13	sub2303	2303	1	1	32	6	1	6	4	4	1	2	1	0.02222	1	0.5	0	16	35	36	0
9-Apr-13	sub2303	2303	1	1	33	6	1	1	1	1	1	1	1	0.04679	1	0.5	0	11	30	31	0
9-Apr-13	sub2303	2303	1	1	34	6	1	3	6	3	1	1	1	0.0486	1	0.5	0	13	32	33	0
9-Apr-13	sub2303	2303	1	1	35	6	1	1	1	1	1	1	1	0.04026	1	0.4	0	11	30	31	0
9-Apr-13	sub2303	2303	1	1	36	6	1	2	5	2	1	2	1	0.04583	1	0.4	0	12	30	31	0
9-Apr-13	sub2303	2303	1	1	37	6	1	3	6	3	1	1	1	0.50004	1	0.4	1	13	32	51	0
9-Apr-13	sub2303	2303	1	1	38	6	1	5	2	4	0	2	1	0.0129	0	0.7	0	15	47	38	0
9-Apr-13	sub2303	2303	1	1	39	6	1	4	3	4	1	2	1	0.00967	1	0.7	0	14	32	33	0
9-Apr-13	sub2303	2303	1	1	40	6	1	1	1	1	1	1	1	0.01474	1	0.7	0	11	30	31	0
9-Apr-13	sub2303	2303	1	1	41	6	1	2	5	2	1	2	1	0.02002	1	0.6	0	12	30	31	0
9-Apr-13	sub2303	2303	1	1	42	6	1	6	4	4	1	2	1	0.06269	1	0.6	0	16	35	36	0
9-Apr-13	sub2303	2303	1	1	43	6	1	6	4	4	0	2	0	0.46372	1	0.6	0	16	37	48	0
9-Apr-13	sub2303	2303	1	1	44	6	1	4	3	4	1	2	1	0.47186	1	0.6	0	14	32	33	0
9-Apr-13	sub2303	2303	1	1	45	6	1	1	1	1	1	1	1	0.47157	1	0.6	0	11	30	31	0
9-Apr-13	sub2303	2303	1	1	46	6	1	1	1	1	1	1	1	0.46646	1	0.6	0	11	30	31	0
9-Apr-13	sub2303	2303	1	1	47	6	1	1	1	1	1	1	1	0.40779	1	0.6	0	11	30	31	0
9-Apr-13	sub2303	2303	1	1	48	6	1	4	3	4	0	2	0	0.02775	1	0.6	0	14	34	49	0
9-Apr-13	sub2303	2303	1	1	49	6	1	2	5	2	1	2	1	0.05039	1	0.6	0	12	30	31	0
9-Apr-13	sub2303	2303	1	1	50	6	1	5	2	4	1	2	0	0.03806	0	0.6	0	15	45	46	0
9-Apr-13	sub2303	2303	1	1	51	6	1	2	5	2	1	2	1	0.03863	1	0.5	0	12	30	31	0
9-Apr-13	sub2303	2303	1	1	52	6	1	2	5	2	1	2	1	0.48113	1	0.5	0	12	30	31	0
9-Apr-13	sub2303	2303	1	1	53	6	1	4	3	4	1	2	1	0.37885	1	0.5	0	14	32	33	0
9-Apr-13	sub2303	2303	1	1	54	6	1	5	2	4	0	2	1	0.47291	0	0.5	0	15	47	38	0
9-Apr-13	sub2303	2303	1	1	55	6	1	6	4	4	0	2	0	0.00884	1	0.5	0	16	37	48	0
9-Apr-13	sub2303	2303	1	1	56	6	1	3	6	3	1	1	1	0.09515	1	0.5	0	13	32	33	0
9-Apr-13	sub2303	2303	1	1	57	6	1	6	4	4	0	2	0	0.01771	1	0.5	0	16	37	48	0
9-Apr-13	sub2303	2303	1	1	58	6	1	4	3	4	1	2	1	0.02598	1	0.5	0	14	32	33	0
9-Apr-13	sub2303	2303	1	1	59	6	1	2	5	2	1	2	1	0.49981	1	0.5	0	12	30	31	0
9-Apr-13	sub2303	2303	1	1	60	6	1	4	3	4	1	2	1	0.02729	1	0.5	0	14	32	33	0
9-Apr-13	sub2303	2303	1	1	61	6	1	4	3	4	1	2	1	0.47738	1	0.5	0	14	32	33	0
9-Apr-13	sub2303	2303	1	1	62	6	1	2	5	2	1	2	1	0.40019	1	0.5	0	12	30	31	0
9-Apr-13	sub2303	2303	1	1	63	6	1	1	1	1	1	1	1	0.0502	1	0.5	0	11	30	31	0
9-Apr-13	sub2303	2303	1	1	64	6	1	2	5	2	1	2	1	0.06233	1	0.5	0	12	30	31	0
9-Apr-13	sub2303	2303	1	1	65	6	1	3	6	3	0	1	0	0.00117	1	0.5	0	13	34	49	0
9-Apr-13	sub2303	2303	1	1	66	6	1	5	2	4	1	2	0	0.04832	0	0.5	0	15	45	46	0
9-Apr-13	sub2303	2303	1	1	67	6	1	1	1	1	1	1	1	0.47295	1	0.5	0	11	30	31	0
9-Apr-13	sub2303	2303	1	1	68	6	1	3	6	3	1	1	1	0.05237	1	0.4	0	13	32	33	0
9-Apr-13	sub2303	2303	1	1	69	6	1	6	4	4	0	2	0	0.02846	1	0.4	0	16	37	48	0
9-Apr-13	sub2303	2303	1	1	70	6	1	5	2	4	1	1	1	0.07101	1	0.4	0	15	35	36	0
9-Apr-13	sub2303	2303	1	1	71	6	1	6	4	4	1	1	0	0.06459	0	0.4	0	16	45	46	0
9-Apr-13	sub2303	2303	1	1	72	6	1	1	1	1	1	1	1	0.00413	1	0.4	0	11	30	31	0
9-Apr-13	sub2303	2303	1	1	73	6	1	4	3	4	1	2	1	0.4929	1	0.4	1	14	32	51	0
9-Apr-13	sub2303	2303	1	1	74	6	1	4	3	4	1	2	1	0.43844	1	0.6	0	14	32	33	0
9-Apr-13	sub2303	2303	1	1	75	6	1	6	4	4	1	2	1	0.07084	1	0.6	0	16	35	36	0
9-Apr-13	sub2303	2303	1	1	76	6	2	1	1	1	1	1	1	0.48414	1	0.5	0	21	60	61	0
9-Apr-13	sub2303	2303	1	1	77	6	2	4	3	4	1	2	1	0.03487	1	0.5	0	24	62	63	0
9-Apr-13	sub2303	2303	1	1	78	6	2	3	6	3	1	1	1	0.03244	1	0.5	0	23	62	63	0
9-Apr-13	sub2303	2303	1	1	79	6	2	3	6	3	1	1	1	0.47258	1	0.5	0	23	62	63	0
9-Apr-13	sub2303	2303	1	1	80	6	2	5	2	4	0	2	1	0.018	0	0.5	0	25	87	68	0
9-Apr-13	sub2303	2303	1	1	81	6	2	2	5	2	1	2	1	0.49736	1	0.5	0	22	60	61	0
9-Apr-13	sub2303	2303	1	1	82	6	2	4	3	4	1	2	1	0.46404	1	0.5	0	24	62	63	0
9-Apr-13	sub2303	2303	1	1	83	6	2	2	5	2	1	2	1	0.41871	1	0.5	0	22	60	61	0
9-Apr-13	sub2303	2303	1	1	84	6	2	3	6	3	1	1	1	0.00348	1	0.5	0	23	62	63	0
9-Apr-13	sub2303	2303	1	1	85	6	2	2	5	2	1	2	1	0.48872	1	0.5	0	22	60	61	0
9-Apr-13	sub2303	2303	1	1	86	6	2	6	4	4	0	2	0	0.00113	1	0.5	0	26	67	88	0
9-Apr-13	sub2303	2303	1	1	87	6	2	6	4	4	0	1	1	0.00721	0	0.5	0	26	87	68	0
9-Apr-13	sub2303	2303	1	1	88	6	2	6	4	4	0	1	1	0.49667	0	0.5	0	26	87	68	0
9-Apr-13	sub2303	2303	1	1	89	6	2	4	3	4	1	2	1	0.4485	1	0.5	0	24	62	63	0
9-Apr-13	sub2303	2303	1	1	90	6	2	5	2	4	0	2	1	0.00114	0	0.5	0	25	87	68	0
9-Apr-13	sub2303	2303	1	1	91	6	2	4	3	4	1	2	1	0.47863	1	0.5	0	24	62	63	0
9-Apr-13	sub2303	2303	1	1	92	6	2	3	6	3	1	2	0	0.38277	0	0.5	0	23	82	83	0
9-Apr-13	sub2303	2303	1	1	93	6	2	2	5	2	1	2	1	0.50025	1	0.5	1	22	60	51	0
9-Apr-13	sub2303	2303	1	1	94	6	2	3	6	3	1	1	1	0.01075	1	0.6	0	23	62	63	0
9-Apr-13	sub2303	2303	1	1	95	6	2	1	1	1	1	1	1	0.05452	1	0.6	0	21	60	61	0
9-Apr-13	sub2303	2303	1	1	96	6	2	6	4	4	0	2	0	0.06808	1	0.6	0	26	67	88	0
9-Apr-13	sub2303	2303	1	1	97	6	2	3	6	3	1	1	1	0.49703	1	0.6	0	23	62	63	0
9-Apr-13	sub2303	2303	1	1	98	6	2	4	3	4	1	2	1	0.45171	1	0.6	0	24	62	63	0
9-Apr-13	sub2303	2303	1	1	99	6	2	3	6	3	1	1	1	0.05955	1	0.6	0	23	62	63	0
9-Apr-13	sub2303	2303	1	1	100	6	2	1	1	1	1	1	1	0.47887	1	0.6	0	21	60	61	0
9-Apr-13	sub2303	2303	1	1	101	6	2	5	2	4	0	1	0	0.03762	1	0.5	0	25	67	88	0
9-Apr-13	sub2303	2303	1	1	102	6	2	3	6	3	0	1	0	0.48804	1	0.5	0	23	64	89	0
9-Apr-13	sub2303	2303	1	1	103	6	2	3	6	3	1	1	1	0.47097	1	0.5	0	23	62	63	0
9-Apr-13	sub2303	2303	1	1	104	6	2	4	3	4	0	2	0	0.01996	1	0.5	0	24	64	89	0
9-Apr-13	sub2303	2303	1	1	105	6	2	6	4	4	1	2	1	0.13314	1	0.5	0	26	65	66	0
9-Apr-13	sub2303	2303	1	1	106	6	2	5	2	4	0	2	1	0.1022	0	0.5	0	25	87	68	0
9-Apr-13	sub2303	2303	1	1	107	6	2	5	2	4	0	2	1	0.46095	0	0.5	0	25	87	68	0
9-Apr-13	sub2303	2303	1	1	108	6	2	4	3	4	1	2	1	0.44351	1	0.5	0	24	62	63	0
9-Apr-13	sub2303	2303	1	1	109	6	2	5	2	4	0	2	1	0.37573	0	0.5	0	25	87	68	0
9-Apr-13	sub2303	2303	1	1	110	6	2	1	1	1	1	1	1	0.44382	1	0.5	0	21	60	61	0
9-Apr-13	sub2303	2303	1	1	111	6	2	6	4	4	1	2	1	0.49438	1	0.5	0	26	65	66	0
9-Apr-13	sub2303	2303	1	1	112	6	2	6	4	4	1	2	1	0.42597	1	0.5	0	26	65	66	0
9-Apr-13	sub2303	2303	1	1	113	6	2	4	3	4	0	2	0	0.47092	1	0.5	0	24	64	89	0
9-Apr-13	sub2303	2303	1	1	114	6	2	2	5	2	1	2	1	0.42137	1	0.5	0	22	60	61	0
9-Apr-13	sub2303	2303	1	1	115	6	2	4	3	4	0	2	0	0.4508	1	0.5	0	24	64	89	0
9-Apr-13	sub2303	2303	1	1	116	6	2	3	6	3	0	1	0	0.06764	1	0.5	0	23	64	89	0
9-Apr-13	sub2303	2303	1	1	117	6	2	1	1	1	1	1	1	0.45015	1	0.5	0	21	60	61	0
9-Apr-13	sub2303	2303	1	1	118	6	2	1	1	1	1	1	1	0.45875	1	0.5	0	21	60	61	0
9-Apr-13	sub2303	2303	1	1	119	6	2	5	2	4	0	1	0	0.46857	1	0.5	0	25	67	88	0
9-Apr-13	sub2303	2303	1	1	120	6	2	5	2	4	0	2	1	0.03248	0	0.5	0	25	87	68	0
9-Apr-13	sub2303	2303	1	1	121	6	2	1	1	1	1	1	1	0.00554	1	0.5	0	21	60	61	0
9-Apr-13	sub2303	2303	1	1	122	6	2	1	1	1	1	1	1	0.04715	1	0.5	0	21	60	61	0
9-Apr-13	sub2303	2303	1	1	123	6	2	1	1	1	1	1	1	0.47369	1	0.5	0	21	60	61	0
9-Apr-13	sub2303	2303	1	1	124	6	2	5	2	4	0	2	1	0.01807	0	0.5	0	25	87	68	0
9-Apr-13	sub2303	2303	1	1	125	6	2	1	1	1	1	1	1	0.48041	1	0.5	0	21	60	61	0
9-Apr-13	sub2303	2303	1	1	126	6	2	2	5	2	1	2	1	0.46918	1	0.5	0	22	60	61	0
9-Apr-13	sub2303	2303	1	1	127	6	2	2	5	2	1	2	1	0.06011	1	0.5	0	22	60	61	0
9-Apr-13	sub2303	2303	1	1	128	6	2	1	1	1	1	1	1	0.04829	1	0.5	0	21	60	61	0
9-Apr-13	sub2303	2303	1	1	129	6	2	6	4	4	1	2	1	0.47373	1	0.5	0	26	65	66	0
9-Apr-13	sub2303	2303	1	1	130	6	2	6	4	4	0	2	0	0.03204	1	0.5	0	26	67	88	0
9-Apr-13	sub2303	2303	1	1	131	6	2	2	5	2	1	2	1	0.48023	1	0.5	0	22	60	61	0
9-Apr-13	sub2303	2303	1	1	132	6	2	4	3	4	1	2	1	0.42812	1	0.5	0	24	62	63	0
9-Apr-13	sub2303	2303	1	1	133	6	2	4	3	4	1	2	1	0.40879	1	0.5	0	24	62	63	0
9-Apr-13	sub2303	2303	1	1	134	6	2	6	4	4	1	2	1	0.06721	1	0.5	0	26	65	66	0
9-Apr-13	sub2303	2303	1	1	135	6	2	6	4	4	1	1	0	0.01472	0	0.4	0	26	85	86	0
9-Apr-13	sub2303	2303	1	1	136	6	2	3	6	3	1	1	1	0.10572	1	0.4	0	23	62	63	0
9-Apr-13	sub2303	2303	1	1	137	6	2	1	1	1	1	1	1	0.49456	1	0.4	1	21	60	51	0
9-Apr-13	sub2303	2303	1	1	138	6	2	1	1	1	1	1	1	0.39689	1	0.5	0	21	60	61	0
9-Apr-13	sub2303	2303	1	1	139	6	2	4	3	4	1	2	1	0.44857	1	0.5	0	24	62	63	0
9-Apr-13	sub2303	2303	1	1	140	6	2	5	2	4	0	2	1	0.48234	0	0.5	0	25	87	68	0
9-Apr-13	sub2303	2303	1	1	141	6	2	3	6	3	1	1	1	0.45145	1	0.5	0	23	62	63	0
9-Apr-13	sub2303	2303	1	1	142	6	2	5	2	4	0	2	1	0.48024	0	0.5	0	25	87	68	0
9-Apr-13	sub2303	2303	1	1	143	6	2	2	5	2	1	2	1	0.47284	1	0.5	0	22	60	61	0
9-Apr-13	sub2303	2303	1	1	144	6	2	6	4	4	0	2	0	0.42736	1	0.5	0	26	67	88	0
9-Apr-13	sub2303	2303	1	1	145	6	2	5	2	4	0	2	1	0.47547	0	0.5	0	25	87	68	0
9-Apr-13	sub2303	2303	1	1	146	6	2	2	5	2	1	2	1	0.41904	1	0.5	0	22	60	61	0
9-Apr-13	sub2303	2303	1	1	147	6	2	4	3	4	1	2	1	0.00389	1	0.5	0	24	62	63	0
9-Apr-13	sub2303	2303	1	1	148	6	2	5	2	4	0	2	1	0.10634	0	0.5	0	25	87	68	0
9-Apr-13	sub2303	2303	1	1	149	6	2	2	5	2	1	2	1	0.01601	1	0.5	0	22	60	61	0
9-Apr-13	sub2303	2303	1	1	150	6	2	2	5	2	1	2	1	0.45815	1	0.5	0	22	60	61	0
