Date 	 Name 	 ID 	 Gender 	 Appearance 	 Trial 	 Block 	 Bin 	 Condition 	 Category 	 Number 	 Valid 	 Keypress 	 Correct 	 RT 	 Realcorrect 	 Deadline 	 Timeout 	 Stimtrigger 	 Resptrigger 	 Fedtrigger 	WithinTime
9-Apr-13	sub2304	2304	1	0	1	1	1	4	5	2	0	1	1	0.32541	0	0.6	0	14	44	39	0
9-Apr-13	sub2304	2304	1	0	2	1	1	2	6	1	1	1	0	0.22076	0	0.3	0	12	40	41	0
9-Apr-13	sub2304	2304	1	0	3	1	1	6	3	3	1	2	1	0.06294	1	0.3	0	16	35	36	0
9-Apr-13	sub2304	2304	1	0	4	1	1	2	6	1	1	1	0	0.12365	0	0.3	0	12	40	41	0
9-Apr-13	sub2304	2304	1	0	5	1	1	2	6	1	1	2	1	0.04554	1	0.3	0	12	30	31	0
9-Apr-13	sub2304	2304	1	0	6	1	1	4	5	2	1	2	1	0.05111	1	0.3	0	14	32	33	0
9-Apr-13	sub2304	2304	1	0	7	1	1	3	1	1	1	1	1	0.43998	1	0.3	1	13	32	51	0
9-Apr-13	sub2304	2304	1	0	8	1	1	4	5	2	1	2	1	0.40404	1	0.9	0	14	32	33	0
9-Apr-13	sub2304	2304	1	0	9	1	1	4	5	2	1	1	0	0.2703	0	0.9	0	14	42	43	0
9-Apr-13	sub2304	2304	1	0	10	1	1	2	6	1	1	2	1	0.38584	1	0.9	0	12	30	31	0
9-Apr-13	sub2304	2304	1	0	11	1	1	5	4	2	1	1	1	0.48294	1	0.9	0	15	35	36	0
9-Apr-13	sub2304	2304	1	0	12	1	1	3	1	1	1	2	0	0.01191	0	0.9	0	13	42	43	0
9-Apr-13	sub2304	2304	1	0	13	1	1	6	3	3	1	1	0	0.10785	0	0.9	0	16	45	46	0
9-Apr-13	sub2304	2304	1	0	14	1	1	2	6	1	1	2	1	0.13026	1	0.9	0	12	30	31	0
9-Apr-13	sub2304	2304	1	0	15	1	1	5	4	2	0	1	0	0.1063	1	0.9	0	15	37	48	0
9-Apr-13	sub2304	2304	1	0	16	1	1	1	2	1	1	2	0	0.08065	0	0.8	0	11	40	41	0
9-Apr-13	sub2304	2304	1	0	17	1	1	3	1	1	1	1	1	0.46739	1	0.8	0	13	32	33	0
9-Apr-13	sub2304	2304	1	0	18	1	1	2	6	1	1	2	1	0.0566	1	0.7	0	12	30	31	0
9-Apr-13	sub2304	2304	1	0	19	1	1	3	1	1	0	1	0	0.48602	1	0.7	0	13	34	49	0
9-Apr-13	sub2304	2304	1	0	20	1	1	3	1	1	0	2	1	0.0603	0	0.7	0	13	44	39	0
9-Apr-13	sub2304	2304	1	0	21	1	1	3	1	1	1	2	0	0.49369	0	0.6	0	13	42	43	0
9-Apr-13	sub2304	2304	1	0	22	1	1	6	3	3	0	1	1	0.01746	0	0.6	0	16	47	38	0
9-Apr-13	sub2304	2304	1	0	23	1	1	5	4	2	1	1	1	0.17547	1	0.6	0	15	35	36	0
9-Apr-13	sub2304	2304	1	0	24	1	1	3	1	1	1	1	1	0.02949	1	0.6	0	13	32	33	0
9-Apr-13	sub2304	2304	1	0	25	1	1	1	2	1	1	2	0	0.48756	0	0.6	0	11	40	41	0
9-Apr-13	sub2304	2304	1	0	26	1	1	5	4	2	0	1	0	0.36365	1	0.5	0	15	37	48	0
9-Apr-13	sub2304	2304	1	0	27	1	1	6	3	3	1	2	1	0.30837	1	0.5	0	16	35	36	0
9-Apr-13	sub2304	2304	1	0	28	1	1	5	4	2	0	1	0	0.05874	1	0.5	0	15	37	48	0
9-Apr-13	sub2304	2304	1	0	29	1	1	1	2	1	1	1	1	0.46372	1	0.5	0	11	30	31	0
9-Apr-13	sub2304	2304	1	0	30	1	1	2	6	1	1	2	1	0.03104	1	0.5	0	12	30	31	0
9-Apr-13	sub2304	2304	1	0	31	1	1	1	2	1	1	1	1	0.15856	1	0.5	0	11	30	31	0
9-Apr-13	sub2304	2304	1	0	32	1	1	3	1	1	1	1	1	0.01947	1	0.5	0	13	32	33	0
9-Apr-13	sub2304	2304	1	0	33	1	1	2	6	1	1	2	1	0.00645	1	0.5	0	12	30	31	0
9-Apr-13	sub2304	2304	1	0	34	1	1	1	2	1	1	1	1	0.02751	1	0.5	0	11	30	31	0
9-Apr-13	sub2304	2304	1	0	35	1	1	4	5	2	1	2	1	0.07401	1	0.4	0	14	32	33	0
9-Apr-13	sub2304	2304	1	0	36	1	1	2	6	1	1	1	0	0.46024	0	0.4	1	12	40	51	0
9-Apr-13	sub2304	2304	1	0	37	1	1	3	1	1	0	2	1	0.34853	0	0.7	0	13	44	39	0
9-Apr-13	sub2304	2304	1	0	38	1	1	3	1	1	1	2	0	0.48913	0	0.7	0	13	42	43	0
9-Apr-13	sub2304	2304	1	0	39	1	1	1	2	1	1	1	1	0.22158	1	0.7	0	11	30	31	0
9-Apr-13	sub2304	2304	1	0	40	1	1	6	3	3	0	1	1	0.01005	0	0.7	0	16	47	38	0
9-Apr-13	sub2304	2304	1	0	41	1	1	1	2	1	1	1	1	0.01349	1	0.6	0	11	30	31	0
9-Apr-13	sub2304	2304	1	0	42	1	1	2	6	1	1	1	0	0.39694	0	0.6	0	12	40	41	0
9-Apr-13	sub2304	2304	1	0	43	1	1	5	4	2	1	2	0	0.43976	0	0.6	0	15	45	46	0
9-Apr-13	sub2304	2304	1	0	44	1	1	4	5	2	1	1	0	0.39504	0	0.6	0	14	42	43	0
9-Apr-13	sub2304	2304	1	0	45	1	1	2	6	1	1	1	0	0.36513	0	0.6	0	12	40	41	0
9-Apr-13	sub2304	2304	1	0	46	1	1	5	4	2	1	1	1	0.02797	1	0.6	0	15	35	36	0
9-Apr-13	sub2304	2304	1	0	47	1	1	5	4	2	1	1	1	0.078	1	0.6	0	15	35	36	0
9-Apr-13	sub2304	2304	1	0	48	1	1	2	6	1	1	1	0	0.14638	0	0.6	0	12	40	41	0
9-Apr-13	sub2304	2304	1	0	49	1	1	1	2	1	1	1	1	0.06927	1	0.6	0	11	30	31	0
9-Apr-13	sub2304	2304	1	0	50	1	1	6	3	3	1	2	1	0.1201	1	0.6	0	16	35	36	0
9-Apr-13	sub2304	2304	1	0	51	1	1	5	4	2	1	1	1	0.44582	1	0.5	0	15	35	36	0
9-Apr-13	sub2304	2304	1	0	52	1	1	1	2	1	1	2	0	0.45484	0	0.5	0	11	40	41	0
9-Apr-13	sub2304	2304	1	0	53	1	1	2	6	1	1	1	0	0.36768	0	0.5	0	12	40	41	0
9-Apr-13	sub2304	2304	1	0	54	1	1	1	2	1	1	1	1	0.08105	1	0.5	0	11	30	31	0
9-Apr-13	sub2304	2304	1	0	55	1	1	5	4	2	1	2	0	0.14696	0	0.5	0	15	45	46	0
9-Apr-13	sub2304	2304	1	0	56	1	1	6	3	3	0	1	1	0.05969	0	0.5	0	16	47	38	0
9-Apr-13	sub2304	2304	1	0	57	1	1	6	3	3	0	2	0	0.46458	1	0.5	0	16	37	48	0
9-Apr-13	sub2304	2304	1	0	58	1	1	4	5	2	1	1	0	0.39808	0	0.5	0	14	42	43	0
9-Apr-13	sub2304	2304	1	0	59	1	1	4	5	2	1	2	1	0.41899	1	0.5	0	14	32	33	0
9-Apr-13	sub2304	2304	1	0	60	1	1	4	5	2	1	2	1	0.41129	1	0.5	0	14	32	33	0
9-Apr-13	sub2304	2304	1	0	61	1	1	3	1	1	1	1	1	0.16894	1	0.5	0	13	32	33	0
9-Apr-13	sub2304	2304	1	0	62	1	1	6	3	3	1	2	1	0.09056	1	0.5	0	16	35	36	0
9-Apr-13	sub2304	2304	1	0	63	1	1	4	5	2	1	1	0	0.17671	0	0.5	0	14	42	43	0
9-Apr-13	sub2304	2304	1	0	64	1	1	1	2	1	1	1	1	0.17918	1	0.5	0	11	30	31	0
9-Apr-13	sub2304	2304	1	0	65	1	1	6	3	3	0	2	0	0.42189	1	0.5	0	16	37	48	0
9-Apr-13	sub2304	2304	1	0	66	1	1	6	3	3	1	1	0	0.31517	0	0.5	0	16	45	46	0
9-Apr-13	sub2304	2304	1	0	67	1	1	6	3	3	0	2	0	0.3799	1	0.5	0	16	37	48	0
9-Apr-13	sub2304	2304	1	0	68	1	1	5	4	2	0	1	0	0.39527	1	0.4	0	15	37	48	0
9-Apr-13	sub2304	2304	1	0	69	1	1	4	5	2	0	2	0	0.44562	1	0.4	1	14	34	51	0
9-Apr-13	sub2304	2304	1	0	70	1	1	5	4	2	0	1	0	0.25874	1	0.6	0	15	37	48	0
9-Apr-13	sub2304	2304	1	0	71	1	1	1	2	1	1	2	0	0.43509	0	0.6	0	11	40	41	0
9-Apr-13	sub2304	2304	1	0	72	1	1	6	3	3	0	1	1	0.46626	0	0.6	0	16	47	38	0
9-Apr-13	sub2304	2304	1	0	73	1	1	3	1	1	1	1	1	0.45799	1	0.6	0	13	32	33	0
9-Apr-13	sub2304	2304	1	0	74	1	1	4	5	2	1	1	0	0.07696	0	0.6	0	14	42	43	0
9-Apr-13	sub2304	2304	1	0	75	1	1	3	1	1	1	2	0	0.15643	0	0.6	0	13	42	43	0
9-Apr-13	sub2304	2304	1	0	1	2	1	1	6	4	1	0	0	0	0	0.6	1	11	0	51	0
9-Apr-13	sub2304	2304	1	0	2	2	1	5	4	1	0	1	0	0.09528	1	0.9	0	15	37	48	0
9-Apr-13	sub2304	2304	1	0	3	2	1	1	6	4	1	1	1	0.13305	1	0.9	0	11	30	31	0
9-Apr-13	sub2304	2304	1	0	4	2	1	5	4	1	1	2	0	0.05768	0	0.9	0	15	45	46	0
9-Apr-13	sub2304	2304	1	0	5	2	1	5	4	1	0	1	0	0.01403	1	0.9	0	15	37	48	0
9-Apr-13	sub2304	2304	1	0	6	2	1	6	1	4	1	1	0	0.48857	0	0.9	0	16	45	46	0
9-Apr-13	sub2304	2304	1	0	7	2	1	3	3	5	1	2	0	0.02761	0	0.9	0	13	42	43	0
9-Apr-13	sub2304	2304	1	0	8	2	1	6	1	4	0	1	1	0.0183	0	0.9	0	16	47	38	0
9-Apr-13	sub2304	2304	1	0	9	2	1	2	2	4	1	1	0	0.19946	0	0.9	0	12	40	41	0
9-Apr-13	sub2304	2304	1	0	10	2	1	5	4	1	0	2	1	0.01508	0	0.9	0	15	47	38	0
9-Apr-13	sub2304	2304	1	0	11	2	1	4	5	1	1	1	0	0.01694	0	0.9	0	14	42	43	0
9-Apr-13	sub2304	2304	1	0	12	2	1	1	6	4	1	1	1	0.18518	1	0.9	0	11	30	31	0
9-Apr-13	sub2304	2304	1	0	13	2	1	6	1	4	1	2	1	0.44779	1	0.9	0	16	35	36	0
9-Apr-13	sub2304	2304	1	0	14	2	1	1	6	4	1	1	1	0.32669	1	0.9	0	11	30	31	0
9-Apr-13	sub2304	2304	1	0	15	2	1	6	1	4	1	2	1	0.02329	1	0.9	0	16	35	36	0
9-Apr-13	sub2304	2304	1	0	16	2	1	6	1	4	0	1	1	0.06646	0	0.8	0	16	47	38	0
9-Apr-13	sub2304	2304	1	0	17	2	1	1	6	4	1	1	1	0.42393	1	0.8	0	11	30	31	0
9-Apr-13	sub2304	2304	1	0	18	2	1	6	1	4	0	2	0	0.06602	1	0.7	0	16	37	48	0
9-Apr-13	sub2304	2304	1	0	19	2	1	4	5	1	1	1	0	0.05341	0	0.7	0	14	42	43	0
9-Apr-13	sub2304	2304	1	0	20	2	1	1	6	4	1	1	1	0.49415	1	0.7	0	11	30	31	0
9-Apr-13	sub2304	2304	1	0	21	2	1	4	5	1	1	1	0	0.13059	0	0.6	0	14	42	43	0
9-Apr-13	sub2304	2304	1	0	22	2	1	2	2	4	1	1	0	0.00966	0	0.6	0	12	40	41	0
9-Apr-13	sub2304	2304	1	0	23	2	1	3	3	5	1	2	0	0.04273	0	0.6	0	13	42	43	0
9-Apr-13	sub2304	2304	1	0	24	2	1	5	4	1	0	1	0	0.12398	1	0.6	0	15	37	48	0
9-Apr-13	sub2304	2304	1	0	25	2	1	6	1	4	0	1	1	0.0523	0	0.6	0	16	47	38	0
9-Apr-13	sub2304	2304	1	0	26	2	1	5	4	1	1	2	0	0.42723	0	0.5	0	15	45	46	0
9-Apr-13	sub2304	2304	1	0	27	2	1	1	6	4	1	1	1	0.40291	1	0.5	0	11	30	31	0
9-Apr-13	sub2304	2304	1	0	28	2	1	2	2	4	1	2	1	0.08222	1	0.5	0	12	30	31	0
9-Apr-13	sub2304	2304	1	0	29	2	1	5	4	1	1	1	1	0.1499	1	0.5	0	15	35	36	0
9-Apr-13	sub2304	2304	1	0	30	2	1	2	2	4	1	2	1	0.42242	1	0.5	0	12	30	31	0
9-Apr-13	sub2304	2304	1	0	31	2	1	6	1	4	1	1	0	0.43119	0	0.5	0	16	45	46	0
9-Apr-13	sub2304	2304	1	0	32	2	1	1	6	4	1	1	1	0.0547	1	0.5	0	11	30	31	0
9-Apr-13	sub2304	2304	1	0	33	2	1	6	1	4	1	2	1	0.01307	1	0.5	0	16	35	36	0
9-Apr-13	sub2304	2304	1	0	34	2	1	4	5	1	0	1	1	0.47454	0	0.5	0	14	44	39	0
9-Apr-13	sub2304	2304	1	0	35	2	1	6	1	4	1	2	1	0.35237	1	0.4	0	16	35	36	0
9-Apr-13	sub2304	2304	1	0	36	2	1	4	5	1	1	1	0	0.25579	0	0.4	0	14	42	43	0
9-Apr-13	sub2304	2304	1	0	37	2	1	6	1	4	1	2	1	0.30488	1	0.4	0	16	35	36	0
9-Apr-13	sub2304	2304	1	0	38	2	1	3	3	5	0	1	0	0.44759	1	0.4	1	13	34	51	0
9-Apr-13	sub2304	2304	1	0	39	2	1	2	2	4	1	2	1	0.25692	1	0.7	0	12	30	31	0
9-Apr-13	sub2304	2304	1	0	40	2	1	4	5	1	1	1	0	0.48271	0	0.7	0	14	42	43	0
9-Apr-13	sub2304	2304	1	0	41	2	1	2	2	4	1	2	1	0.04598	1	0.6	0	12	30	31	0
9-Apr-13	sub2304	2304	1	0	42	2	1	3	3	5	1	1	1	0.07158	1	0.6	0	13	32	33	0
9-Apr-13	sub2304	2304	1	0	43	2	1	2	2	4	1	2	1	0.09811	1	0.6	0	12	30	31	0
9-Apr-13	sub2304	2304	1	0	44	2	1	1	6	4	1	1	1	0.12238	1	0.6	0	11	30	31	0
9-Apr-13	sub2304	2304	1	0	45	2	1	3	3	5	1	2	0	0.0257	0	0.6	0	13	42	43	0
9-Apr-13	sub2304	2304	1	0	46	2	1	5	4	1	1	1	1	0.49724	1	0.6	0	15	35	36	0
9-Apr-13	sub2304	2304	1	0	47	2	1	5	4	1	0	2	1	0.03114	0	0.6	0	15	47	38	0
9-Apr-13	sub2304	2304	1	0	48	2	1	4	5	1	1	1	0	0.03582	0	0.6	0	14	42	43	0
9-Apr-13	sub2304	2304	1	0	49	2	1	3	3	5	0	2	1	0.04582	0	0.6	0	13	44	39	0
9-Apr-13	sub2304	2304	1	0	50	2	1	4	5	1	0	1	1	0.1193	0	0.6	0	14	44	39	0
9-Apr-13	sub2304	2304	1	0	51	2	1	3	3	5	1	2	0	0.20348	0	0.5	0	13	42	43	0
9-Apr-13	sub2304	2304	1	0	52	2	1	5	4	1	0	1	0	0.44075	1	0.5	0	15	37	48	0
9-Apr-13	sub2304	2304	1	0	53	2	1	2	2	4	1	2	1	0.03591	1	0.5	0	12	30	31	0
9-Apr-13	sub2304	2304	1	0	54	2	1	3	3	5	1	2	0	0.00971	0	0.5	0	13	42	43	0
9-Apr-13	sub2304	2304	1	0	55	2	1	5	4	1	1	1	1	0.38185	1	0.5	0	15	35	36	0
9-Apr-13	sub2304	2304	1	0	56	2	1	1	6	4	1	1	1	0.06902	1	0.5	0	11	30	31	0
9-Apr-13	sub2304	2304	1	0	57	2	1	2	2	4	1	2	1	0.44361	1	0.5	0	12	30	31	0
9-Apr-13	sub2304	2304	1	0	58	2	1	6	1	4	0	1	1	0.27419	0	0.5	0	16	47	38	0
9-Apr-13	sub2304	2304	1	0	59	2	1	3	3	5	1	2	0	0.42232	0	0.5	0	13	42	43	0
9-Apr-13	sub2304	2304	1	0	60	2	1	2	2	4	1	1	0	0.29646	0	0.5	0	12	40	41	0
9-Apr-13	sub2304	2304	1	0	61	2	1	5	4	1	1	2	0	0.31267	0	0.5	0	15	45	46	0
9-Apr-13	sub2304	2304	1	0	62	2	1	1	6	4	1	1	1	0.23079	1	0.5	0	11	30	31	0
9-Apr-13	sub2304	2304	1	0	63	2	1	2	2	4	1	1	0	0.26843	0	0.5	0	12	40	41	0
9-Apr-13	sub2304	2304	1	0	64	2	1	4	5	1	1	2	1	0.34877	1	0.5	0	14	32	33	0
9-Apr-13	sub2304	2304	1	0	65	2	1	3	3	5	1	1	1	0.48636	1	0.5	0	13	32	33	0
9-Apr-13	sub2304	2304	1	0	66	2	1	2	2	4	1	2	1	0.08441	1	0.5	0	12	30	31	0
9-Apr-13	sub2304	2304	1	0	67	2	1	4	5	1	1	1	0	0.06999	0	0.5	0	14	42	43	0
9-Apr-13	sub2304	2304	1	0	68	2	1	3	3	5	0	2	1	0.44723	0	0.4	1	13	44	51	0
9-Apr-13	sub2304	2304	1	0	69	2	1	1	6	4	1	1	1	0.39082	1	0.6	0	11	30	31	0
9-Apr-13	sub2304	2304	1	0	70	2	1	3	3	5	1	2	0	0.40463	0	0.6	0	13	42	43	0
9-Apr-13	sub2304	2304	1	0	71	2	1	4	5	1	1	1	0	0.4361	0	0.6	0	14	42	43	0
9-Apr-13	sub2304	2304	1	0	72	2	1	2	2	4	1	2	1	0.40571	1	0.6	0	12	30	31	0
9-Apr-13	sub2304	2304	1	0	73	2	1	3	3	5	1	2	0	0.39251	0	0.6	0	13	42	43	0
9-Apr-13	sub2304	2304	1	0	74	2	1	4	5	1	1	1	0	0.35511	0	0.6	0	14	42	43	0
9-Apr-13	sub2304	2304	1	0	75	2	1	6	1	4	0	2	0	0.36051	1	0.6	0	16	37	48	0
9-Apr-13	sub2304	2304	1	0	76	2	2	6	1	4	1	1	0	0.38211	0	0.5	0	26	85	86	0
9-Apr-13	sub2304	2304	1	0	77	2	2	4	5	1	0	2	0	0.31438	1	0.5	0	24	64	89	0
9-Apr-13	sub2304	2304	1	0	78	2	2	5	4	1	0	1	0	0.32477	1	0.5	0	25	67	88	0
9-Apr-13	sub2304	2304	1	0	79	2	2	3	3	5	1	2	0	0.25758	0	0.5	0	23	82	83	0
9-Apr-13	sub2304	2304	1	0	80	2	2	3	3	5	1	1	1	0.32654	1	0.5	0	23	62	63	0
9-Apr-13	sub2304	2304	1	0	81	2	2	2	2	4	1	2	1	0.02267	1	0.5	0	22	60	61	0
9-Apr-13	sub2304	2304	1	0	82	2	2	5	4	1	0	1	0	0.06387	1	0.5	0	25	67	88	0
9-Apr-13	sub2304	2304	1	0	83	2	2	3	3	5	1	2	0	0.00719	0	0.5	0	23	82	83	0
9-Apr-13	sub2304	2304	1	0	84	2	2	4	5	1	0	1	1	0.39343	0	0.5	0	24	84	69	0
9-Apr-13	sub2304	2304	1	0	85	2	2	2	2	4	1	1	0	0.4177	0	0.5	0	22	80	81	0
9-Apr-13	sub2304	2304	1	0	86	2	2	5	4	1	0	2	1	0.30824	0	0.5	0	25	87	68	0
9-Apr-13	sub2304	2304	1	0	87	2	2	6	1	4	0	1	1	0.47598	0	0.5	0	26	87	68	0
9-Apr-13	sub2304	2304	1	0	88	2	2	2	2	4	1	2	1	0.34589	1	0.5	0	22	60	61	0
9-Apr-13	sub2304	2304	1	0	89	2	2	1	6	4	1	1	1	0.29181	1	0.5	0	21	60	61	0
9-Apr-13	sub2304	2304	1	0	90	2	2	1	6	4	1	1	1	0.45663	1	0.5	0	21	60	61	0
9-Apr-13	sub2304	2304	1	0	91	2	2	1	6	4	1	1	1	0.02437	1	0.5	0	21	60	61	0
9-Apr-13	sub2304	2304	1	0	92	2	2	5	4	1	0	2	1	0.49258	0	0.5	0	25	87	68	0
9-Apr-13	sub2304	2304	1	0	93	2	2	4	5	1	1	1	0	0.41685	0	0.5	0	24	82	83	0
9-Apr-13	sub2304	2304	1	0	94	2	2	5	4	1	0	2	1	0.37779	0	0.5	0	25	87	68	0
9-Apr-13	sub2304	2304	1	0	95	2	2	6	1	4	0	1	1	0.2666	0	0.5	0	26	87	68	0
9-Apr-13	sub2304	2304	1	0	96	2	2	3	3	5	1	2	0	0.36904	0	0.5	0	23	82	83	0
9-Apr-13	sub2304	2304	1	0	97	2	2	1	6	4	1	1	1	0.32474	1	0.5	0	21	60	61	0
9-Apr-13	sub2304	2304	1	0	98	2	2	4	5	1	0	1	1	0.04846	0	0.5	0	24	84	69	0
9-Apr-13	sub2304	2304	1	0	99	2	2	2	2	4	1	2	1	0.13293	1	0.5	0	22	60	61	0
9-Apr-13	sub2304	2304	1	0	100	2	2	2	2	4	1	1	0	0.21042	0	0.5	0	22	80	81	0
9-Apr-13	sub2304	2304	1	0	101	2	2	1	6	4	1	2	0	0.4191	0	0.4	1	21	80	51	0
9-Apr-13	sub2304	2304	1	0	102	2	2	5	4	1	0	1	0	0.30549	1	0.5	0	25	67	88	0
9-Apr-13	sub2304	2304	1	0	103	2	2	3	3	5	1	2	0	0.3142	0	0.5	0	23	82	83	0
9-Apr-13	sub2304	2304	1	0	104	2	2	3	3	5	1	1	1	0.2566	1	0.5	0	23	62	63	0
9-Apr-13	sub2304	2304	1	0	105	2	2	1	6	4	1	1	1	0.44598	1	0.5	0	21	60	61	0
9-Apr-13	sub2304	2304	1	0	106	2	2	3	3	5	1	2	0	0.12426	0	0.5	0	23	82	83	0
9-Apr-13	sub2304	2304	1	0	107	2	2	1	6	4	1	1	1	0.48814	1	0.5	0	21	60	61	0
9-Apr-13	sub2304	2304	1	0	108	2	2	6	1	4	1	1	0	0.2671	0	0.5	0	26	85	86	0
9-Apr-13	sub2304	2304	1	0	109	2	2	4	5	1	1	2	1	0.45305	1	0.5	0	24	62	63	0
9-Apr-13	sub2304	2304	1	0	110	2	2	2	2	4	1	1	0	0.02939	0	0.5	0	22	80	81	0
9-Apr-13	sub2304	2304	1	0	111	2	2	1	6	4	1	2	0	0.44631	0	0.5	0	21	80	81	0
9-Apr-13	sub2304	2304	1	0	112	2	2	5	4	1	0	1	0	0.36109	1	0.5	0	25	67	88	0
9-Apr-13	sub2304	2304	1	0	113	2	2	6	1	4	1	2	1	0.32655	1	0.5	0	26	65	66	0
9-Apr-13	sub2304	2304	1	0	114	2	2	4	5	1	1	2	1	0.41799	1	0.5	0	24	62	63	0
9-Apr-13	sub2304	2304	1	0	115	2	2	2	2	4	1	2	1	0.32312	1	0.5	0	22	60	61	0
9-Apr-13	sub2304	2304	1	0	116	2	2	5	4	1	0	2	1	0.40433	0	0.5	0	25	87	68	0
9-Apr-13	sub2304	2304	1	0	117	2	2	4	5	1	1	1	0	0.04435	0	0.5	0	24	82	83	0
9-Apr-13	sub2304	2304	1	0	118	2	2	5	4	1	0	2	1	0.02574	0	0.5	0	25	87	68	0
9-Apr-13	sub2304	2304	1	0	119	2	2	2	2	4	1	2	1	0.41947	1	0.5	0	22	60	61	0
9-Apr-13	sub2304	2304	1	0	120	2	2	1	6	4	1	2	0	0.34166	0	0.5	0	21	80	81	0
9-Apr-13	sub2304	2304	1	0	121	2	2	3	3	5	0	1	0	0.3244	1	0.5	0	23	64	89	0
9-Apr-13	sub2304	2304	1	0	122	2	2	3	3	5	0	2	1	0.27838	0	0.5	0	23	84	69	0
9-Apr-13	sub2304	2304	1	0	123	2	2	4	5	1	1	2	1	0.34571	1	0.5	0	24	62	63	0
9-Apr-13	sub2304	2304	1	0	124	2	2	1	6	4	1	2	0	0.46747	0	0.5	0	21	80	81	0
9-Apr-13	sub2304	2304	1	0	125	2	2	2	2	4	1	1	0	0.37633	0	0.5	0	22	80	81	0
9-Apr-13	sub2304	2304	1	0	126	2	2	6	1	4	0	2	0	0.28355	1	0.5	0	26	67	88	0
9-Apr-13	sub2304	2304	1	0	127	2	2	2	2	4	1	2	1	0.07665	1	0.5	0	22	60	61	0
9-Apr-13	sub2304	2304	1	0	128	2	2	5	4	1	0	1	0	0.04869	1	0.5	0	25	67	88	0
9-Apr-13	sub2304	2304	1	0	129	2	2	6	1	4	1	2	1	0.41195	1	0.5	0	26	65	66	0
9-Apr-13	sub2304	2304	1	0	130	2	2	4	5	1	1	1	0	0.0344	0	0.5	0	24	82	83	0
9-Apr-13	sub2304	2304	1	0	131	2	2	6	1	4	0	2	0	0.32689	1	0.5	0	26	67	88	0
9-Apr-13	sub2304	2304	1	0	132	2	2	5	4	1	0	1	0	0.31687	1	0.5	0	25	67	88	0
9-Apr-13	sub2304	2304	1	0	133	2	2	2	2	4	1	2	1	0.29257	1	0.5	0	22	60	61	0
9-Apr-13	sub2304	2304	1	0	134	2	2	6	1	4	1	2	1	0.2488	1	0.5	0	26	65	66	0
9-Apr-13	sub2304	2304	1	0	135	2	2	1	6	4	1	2	0	0.41253	0	0.4	1	21	80	51	0
9-Apr-13	sub2304	2304	1	0	136	2	2	4	5	1	1	1	0	0.32273	0	0.5	0	24	82	83	0
9-Apr-13	sub2304	2304	1	0	137	2	2	1	6	4	1	2	0	0.29636	0	0.5	0	21	80	81	0
9-Apr-13	sub2304	2304	1	0	138	2	2	5	4	1	0	1	0	0.47486	1	0.5	0	25	67	88	0
9-Apr-13	sub2304	2304	1	0	139	2	2	3	3	5	1	2	0	0.30044	0	0.5	0	23	82	83	0
9-Apr-13	sub2304	2304	1	0	140	2	2	4	5	1	1	2	1	0.31938	1	0.5	0	24	62	63	0
9-Apr-13	sub2304	2304	1	0	141	2	2	1	6	4	1	2	0	0.47494	0	0.5	0	21	80	81	0
9-Apr-13	sub2304	2304	1	0	142	2	2	4	5	1	1	2	1	0.2276	1	0.5	0	24	62	63	0
9-Apr-13	sub2304	2304	1	0	143	2	2	6	1	4	0	1	1	0.42039	0	0.5	0	26	87	68	0
9-Apr-13	sub2304	2304	1	0	144	2	2	6	1	4	0	1	1	0.47205	0	0.5	0	26	87	68	0
9-Apr-13	sub2304	2304	1	0	145	2	2	6	1	4	1	1	0	0.44818	0	0.5	0	26	85	86	0
9-Apr-13	sub2304	2304	1	0	146	2	2	4	5	1	1	2	1	0.02146	1	0.5	0	24	62	63	0
9-Apr-13	sub2304	2304	1	0	147	2	2	3	3	5	1	2	0	0.07643	0	0.5	0	23	82	83	0
9-Apr-13	sub2304	2304	1	0	148	2	2	5	4	1	0	1	0	0.08652	1	0.5	0	25	67	88	0
9-Apr-13	sub2304	2304	1	0	149	2	2	3	3	5	1	2	0	0.32382	0	0.5	0	23	82	83	0
9-Apr-13	sub2304	2304	1	0	150	2	2	2	2	4	1	0	0	0	0	0.5	1	22	0	51	0
9-Apr-13	sub2304	2304	1	0	1	3	1	2	2	5	1	1	0	0.47086	0	0.6	0	12	40	41	0
9-Apr-13	sub2304	2304	1	0	2	3	1	6	3	6	1	2	1	0.0528	1	0.3	0	16	35	36	0
9-Apr-13	sub2304	2304	1	0	3	3	1	4	4	6	0	2	0	0.07792	1	0.3	0	14	34	49	0
9-Apr-13	sub2304	2304	1	0	4	3	1	4	4	6	1	2	1	0.05123	1	0.3	0	14	32	33	0
9-Apr-13	sub2304	2304	1	0	5	3	1	4	4	6	1	2	1	0.07785	1	0.3	0	14	32	33	0
9-Apr-13	sub2304	2304	1	0	6	3	1	5	1	5	1	1	1	0.02584	1	0.3	0	15	35	36	0
9-Apr-13	sub2304	2304	1	0	7	3	1	5	1	5	0	1	0	0.46234	1	0.3	1	15	37	51	0
9-Apr-13	sub2304	2304	1	0	8	3	1	2	2	5	1	2	1	0.39773	1	0.9	0	12	30	31	0
9-Apr-13	sub2304	2304	1	0	9	3	1	2	2	5	1	2	1	0.01553	1	0.9	0	12	30	31	0
9-Apr-13	sub2304	2304	1	0	10	3	1	6	3	6	0	1	1	0.00315	0	0.9	0	16	47	38	0
9-Apr-13	sub2304	2304	1	0	11	3	1	2	2	5	1	2	1	0.0762	1	0.9	0	12	30	31	0
9-Apr-13	sub2304	2304	1	0	12	3	1	6	3	6	1	1	0	0.37374	0	0.9	0	16	45	46	0
9-Apr-13	sub2304	2304	1	0	13	3	1	2	2	5	1	2	1	0.04907	1	0.9	0	12	30	31	0
9-Apr-13	sub2304	2304	1	0	14	3	1	6	3	6	1	1	0	0.40517	0	0.9	0	16	45	46	0
9-Apr-13	sub2304	2304	1	0	15	3	1	3	5	6	1	2	0	0.42431	0	0.9	0	13	42	43	0
9-Apr-13	sub2304	2304	1	0	16	3	1	3	5	6	0	1	0	0.04327	1	0.8	0	13	34	49	0
9-Apr-13	sub2304	2304	1	0	17	3	1	1	6	6	1	2	0	0.44945	0	0.8	0	11	40	41	0
9-Apr-13	sub2304	2304	1	0	18	3	1	5	1	5	0	1	0	0.30599	1	0.7	0	15	37	48	0
9-Apr-13	sub2304	2304	1	0	19	3	1	6	3	6	1	2	1	0.37658	1	0.7	0	16	35	36	0
9-Apr-13	sub2304	2304	1	0	20	3	1	2	2	5	1	2	1	0.43698	1	0.7	0	12	30	31	0
9-Apr-13	sub2304	2304	1	0	21	3	1	1	6	6	1	1	1	0.06161	1	0.6	0	11	30	31	0
9-Apr-13	sub2304	2304	1	0	22	3	1	4	4	6	1	1	0	0.46061	0	0.6	0	14	42	43	0
9-Apr-13	sub2304	2304	1	0	23	3	1	4	4	6	1	2	1	0.40706	1	0.6	0	14	32	33	0
9-Apr-13	sub2304	2304	1	0	24	3	1	4	4	6	1	1	0	0.16102	0	0.6	0	14	42	43	0
9-Apr-13	sub2304	2304	1	0	25	3	1	5	1	5	0	2	1	0.07476	0	0.6	0	15	47	38	0
9-Apr-13	sub2304	2304	1	0	26	3	1	4	4	6	1	2	1	0.03053	1	0.5	0	14	32	33	0
9-Apr-13	sub2304	2304	1	0	27	3	1	2	2	5	1	2	1	0.12612	1	0.5	0	12	30	31	0
9-Apr-13	sub2304	2304	1	0	28	3	1	1	6	6	1	1	1	0.35704	1	0.5	0	11	30	31	0
9-Apr-13	sub2304	2304	1	0	29	3	1	6	3	6	1	1	0	0.48249	0	0.5	0	16	45	46	0
9-Apr-13	sub2304	2304	1	0	30	3	1	2	2	5	1	2	1	0.42725	1	0.5	0	12	30	31	0
9-Apr-13	sub2304	2304	1	0	31	3	1	1	6	6	1	1	1	0.48701	1	0.5	0	11	30	31	0
9-Apr-13	sub2304	2304	1	0	32	3	1	3	5	6	1	2	0	0.43872	0	0.5	0	13	42	43	0
9-Apr-13	sub2304	2304	1	0	33	3	1	2	2	5	1	1	0	0.08259	0	0.5	0	12	40	41	0
9-Apr-13	sub2304	2304	1	0	34	3	1	1	6	6	1	2	0	0.46445	0	0.5	0	11	40	41	0
9-Apr-13	sub2304	2304	1	0	35	3	1	3	5	6	0	1	0	0.35471	1	0.4	0	13	34	49	0
9-Apr-13	sub2304	2304	1	0	36	3	1	1	6	6	1	2	0	0.38934	0	0.4	0	11	40	41	0
9-Apr-13	sub2304	2304	1	0	37	3	1	2	2	5	1	1	0	0.42504	0	0.4	1	12	40	51	0
9-Apr-13	sub2304	2304	1	0	38	3	1	5	1	5	1	2	0	0.49154	0	0.7	0	15	45	46	0
9-Apr-13	sub2304	2304	1	0	39	3	1	6	3	6	0	1	1	0.11508	0	0.7	0	16	47	38	0
9-Apr-13	sub2304	2304	1	0	40	3	1	1	6	6	1	1	1	0.00451	1	0.7	0	11	30	31	0
9-Apr-13	sub2304	2304	1	0	41	3	1	4	4	6	1	2	1	0.05289	1	0.6	0	14	32	33	0
9-Apr-13	sub2304	2304	1	0	42	3	1	6	3	6	0	1	1	0.48942	0	0.6	0	16	47	38	0
9-Apr-13	sub2304	2304	1	0	43	3	1	5	1	5	1	2	0	0.03988	0	0.6	0	15	45	46	0
9-Apr-13	sub2304	2304	1	0	44	3	1	3	5	6	1	1	1	0.42268	1	0.6	0	13	32	33	0
9-Apr-13	sub2304	2304	1	0	45	3	1	6	3	6	0	1	1	0.04598	0	0.6	0	16	47	38	0
9-Apr-13	sub2304	2304	1	0	46	3	1	5	1	5	0	1	0	0.34875	1	0.6	0	15	37	48	0
9-Apr-13	sub2304	2304	1	0	47	3	1	6	3	6	0	2	0	0.33772	1	0.6	0	16	37	48	0
9-Apr-13	sub2304	2304	1	0	48	3	1	6	3	6	0	1	1	0.34002	0	0.6	0	16	47	38	0
9-Apr-13	sub2304	2304	1	0	49	3	1	3	5	6	1	1	1	0.16515	1	0.6	0	13	32	33	0
9-Apr-13	sub2304	2304	1	0	50	3	1	1	6	6	1	1	1	0.47724	1	0.6	0	11	30	31	0
9-Apr-13	sub2304	2304	1	0	51	3	1	1	6	6	1	2	0	0.08115	0	0.5	0	11	40	41	0
9-Apr-13	sub2304	2304	1	0	52	3	1	2	2	5	1	1	0	0.39827	0	0.5	0	12	40	41	0
9-Apr-13	sub2304	2304	1	0	53	3	1	3	5	6	1	1	1	0.05591	1	0.5	0	13	32	33	0
9-Apr-13	sub2304	2304	1	0	54	3	1	1	6	6	1	1	1	0.46094	1	0.5	0	11	30	31	0
9-Apr-13	sub2304	2304	1	0	55	3	1	3	5	6	1	2	0	0.39587	0	0.5	0	13	42	43	0
9-Apr-13	sub2304	2304	1	0	56	3	1	1	6	6	1	2	0	0.03755	0	0.5	0	11	40	41	0
9-Apr-13	sub2304	2304	1	0	57	3	1	1	6	6	1	1	1	0.4506	1	0.5	0	11	30	31	0
9-Apr-13	sub2304	2304	1	0	58	3	1	5	1	5	1	2	0	0.12798	0	0.5	0	15	45	46	0
9-Apr-13	sub2304	2304	1	0	59	3	1	5	1	5	1	1	1	0.09237	1	0.5	0	15	35	36	0
9-Apr-13	sub2304	2304	1	0	60	3	1	3	5	6	1	1	1	0.08901	1	0.5	0	13	32	33	0
9-Apr-13	sub2304	2304	1	0	61	3	1	5	1	5	0	1	0	0.35465	1	0.5	0	15	37	48	0
9-Apr-13	sub2304	2304	1	0	62	3	1	4	4	6	1	2	1	0.3846	1	0.5	0	14	32	33	0
9-Apr-13	sub2304	2304	1	0	63	3	1	4	4	6	1	2	1	0.40372	1	0.5	0	14	32	33	0
9-Apr-13	sub2304	2304	1	0	64	3	1	3	5	6	1	1	1	0.07875	1	0.5	0	13	32	33	0
9-Apr-13	sub2304	2304	1	0	65	3	1	3	5	6	0	1	0	0.47719	1	0.5	0	13	34	49	0
9-Apr-13	sub2304	2304	1	0	66	3	1	4	4	6	0	2	0	0.34685	1	0.5	0	14	34	49	0
9-Apr-13	sub2304	2304	1	0	67	3	1	5	1	5	0	1	0	0.35779	1	0.5	0	15	37	48	0
9-Apr-13	sub2304	2304	1	0	68	3	1	5	1	5	1	2	0	0.268	0	0.4	0	15	45	46	0
9-Apr-13	sub2304	2304	1	0	69	3	1	3	5	6	1	1	1	0.27766	1	0.4	0	13	32	33	0
9-Apr-13	sub2304	2304	1	0	70	3	1	4	4	6	1	2	1	0.01952	1	0.4	0	14	32	33	0
9-Apr-13	sub2304	2304	1	0	71	3	1	6	3	6	1	1	0	0.44821	0	0.4	1	16	45	51	0
9-Apr-13	sub2304	2304	1	0	72	3	1	3	5	6	1	2	0	0.03746	0	0.6	0	13	42	43	0
9-Apr-13	sub2304	2304	1	0	73	3	1	2	2	5	1	1	0	0.31575	0	0.6	0	12	40	41	0
9-Apr-13	sub2304	2304	1	0	74	3	1	2	2	5	1	2	1	0.38818	1	0.6	0	12	30	31	0
9-Apr-13	sub2304	2304	1	0	75	3	1	6	3	6	0	1	1	0.12028	0	0.6	0	16	47	38	0
9-Apr-13	sub2304	2304	1	0	76	3	2	4	4	6	1	2	1	0.06805	1	0.5	0	24	62	63	0
9-Apr-13	sub2304	2304	1	0	77	3	2	4	4	6	1	2	1	0.48388	1	0.5	0	24	62	63	0
9-Apr-13	sub2304	2304	1	0	78	3	2	6	3	6	0	1	1	0.41269	0	0.5	0	26	87	68	0
9-Apr-13	sub2304	2304	1	0	79	3	2	5	1	5	0	2	1	0.08972	0	0.5	0	25	87	68	0
9-Apr-13	sub2304	2304	1	0	80	3	2	4	4	6	1	2	1	0.46555	1	0.5	0	24	62	63	0
9-Apr-13	sub2304	2304	1	0	81	3	2	2	2	5	1	2	1	0.02774	1	0.5	0	22	60	61	0
9-Apr-13	sub2304	2304	1	0	82	3	2	3	5	6	0	1	0	0.4645	1	0.5	0	23	64	89	0
9-Apr-13	sub2304	2304	1	0	83	3	2	1	6	6	1	2	0	0.28853	0	0.5	0	21	80	81	0
9-Apr-13	sub2304	2304	1	0	84	3	2	2	2	5	1	2	1	0.03509	1	0.5	0	22	60	61	0
9-Apr-13	sub2304	2304	1	0	85	3	2	1	6	6	1	1	1	0.14186	1	0.5	0	21	60	61	0
9-Apr-13	sub2304	2304	1	0	86	3	2	3	5	6	1	2	0	0.0753	0	0.5	0	23	82	83	0
9-Apr-13	sub2304	2304	1	0	87	3	2	5	1	5	0	1	0	0.38814	1	0.5	0	25	67	88	0
9-Apr-13	sub2304	2304	1	0	88	3	2	5	1	5	0	2	1	0.38088	0	0.5	0	25	87	68	0
9-Apr-13	sub2304	2304	1	0	89	3	2	5	1	5	0	2	1	0.38557	0	0.5	0	25	87	68	0
9-Apr-13	sub2304	2304	1	0	90	3	2	4	4	6	1	1	0	0.45031	0	0.5	0	24	82	83	0
9-Apr-13	sub2304	2304	1	0	91	3	2	5	1	5	0	2	1	0.48117	0	0.5	0	25	87	68	0
9-Apr-13	sub2304	2304	1	0	92	3	2	3	5	6	1	2	0	0.07502	0	0.5	0	23	82	83	0
9-Apr-13	sub2304	2304	1	0	93	3	2	1	6	6	1	1	1	0.1293	1	0.5	0	21	60	61	0
9-Apr-13	sub2304	2304	1	0	94	3	2	1	6	6	1	1	1	0.10513	1	0.5	0	21	60	61	0
9-Apr-13	sub2304	2304	1	0	95	3	2	3	5	6	1	2	0	0.49946	0	0.5	0	23	82	83	0
9-Apr-13	sub2304	2304	1	0	96	3	2	5	1	5	0	1	0	0.01443	1	0.5	0	25	67	88	0
9-Apr-13	sub2304	2304	1	0	97	3	2	4	4	6	1	2	1	0.42189	1	0.5	0	24	62	63	0
9-Apr-13	sub2304	2304	1	0	98	3	2	4	4	6	0	2	0	0.45348	1	0.5	0	24	64	89	0
9-Apr-13	sub2304	2304	1	0	99	3	2	2	2	5	1	2	1	0.02896	1	0.5	0	22	60	61	0
9-Apr-13	sub2304	2304	1	0	100	3	2	5	1	5	0	1	0	0.45596	1	0.5	0	25	67	88	0
9-Apr-13	sub2304	2304	1	0	101	3	2	1	6	6	1	2	0	0.1295	0	0.4	0	21	80	81	0
9-Apr-13	sub2304	2304	1	0	102	3	2	1	6	6	1	2	0	0.30465	0	0.4	0	21	80	81	0
9-Apr-13	sub2304	2304	1	0	103	3	2	4	4	6	1	2	1	0.01883	1	0.4	0	24	62	63	0
9-Apr-13	sub2304	2304	1	0	104	3	2	3	5	6	1	1	1	0.48651	1	0.4	1	23	62	51	0
9-Apr-13	sub2304	2304	1	0	105	3	2	1	6	6	1	1	1	0.12301	1	0.5	0	21	60	61	0
9-Apr-13	sub2304	2304	1	0	106	3	2	5	1	5	0	2	1	0.11367	0	0.5	0	25	87	68	0
9-Apr-13	sub2304	2304	1	0	107	3	2	1	6	6	1	1	1	0.03408	1	0.5	0	21	60	61	0
9-Apr-13	sub2304	2304	1	0	108	3	2	4	4	6	0	2	0	0.00192	1	0.5	0	24	64	89	0
9-Apr-13	sub2304	2304	1	0	109	3	2	5	1	5	0	2	1	0.22741	0	0.5	0	25	87	68	0
9-Apr-13	sub2304	2304	1	0	110	3	2	6	3	6	0	1	1	0.0014	0	0.5	0	26	87	68	0
9-Apr-13	sub2304	2304	1	0	111	3	2	3	5	6	1	2	0	0.49272	0	0.5	0	23	82	83	0
9-Apr-13	sub2304	2304	1	0	112	3	2	4	4	6	1	2	1	0.08717	1	0.5	0	24	62	63	0
9-Apr-13	sub2304	2304	1	0	113	3	2	2	2	5	1	2	1	0.13405	1	0.5	0	22	60	61	0
9-Apr-13	sub2304	2304	1	0	114	3	2	6	3	6	1	1	0	0.43962	0	0.5	0	26	85	86	0
9-Apr-13	sub2304	2304	1	0	115	3	2	4	4	6	0	2	0	0.33721	1	0.5	0	24	64	89	0
9-Apr-13	sub2304	2304	1	0	116	3	2	3	5	6	1	1	1	0.40062	1	0.5	0	23	62	63	0
9-Apr-13	sub2304	2304	1	0	117	3	2	1	6	6	1	2	0	0.20621	0	0.5	0	21	80	81	0
9-Apr-13	sub2304	2304	1	0	118	3	2	6	3	6	0	1	1	0.11176	0	0.5	0	26	87	68	0
9-Apr-13	sub2304	2304	1	0	119	3	2	6	3	6	1	1	0	0.01834	0	0.5	0	26	85	86	0
9-Apr-13	sub2304	2304	1	0	120	3	2	5	1	5	0	2	1	0.02374	0	0.5	0	25	87	68	0
9-Apr-13	sub2304	2304	1	0	121	3	2	4	4	6	1	2	1	0.4995	1	0.5	0	24	62	63	0
9-Apr-13	sub2304	2304	1	0	122	3	2	3	5	6	1	2	0	0.0428	0	0.5	0	23	82	83	0
9-Apr-13	sub2304	2304	1	0	123	3	2	6	3	6	1	1	0	0.3924	0	0.5	0	26	85	86	0
9-Apr-13	sub2304	2304	1	0	124	3	2	2	2	5	1	2	1	0.3224	1	0.5	0	22	60	61	0
9-Apr-13	sub2304	2304	1	0	125	3	2	6	3	6	0	2	0	0.44452	1	0.5	0	26	67	88	0
9-Apr-13	sub2304	2304	1	0	126	3	2	4	4	6	1	1	0	0.36684	0	0.5	0	24	82	83	0
9-Apr-13	sub2304	2304	1	0	127	3	2	1	6	6	1	1	1	0.11233	1	0.5	0	21	60	61	0
9-Apr-13	sub2304	2304	1	0	128	3	2	2	2	5	1	2	1	0.44988	1	0.5	0	22	60	61	0
9-Apr-13	sub2304	2304	1	0	129	3	2	3	5	6	1	2	0	0.43181	0	0.5	0	23	82	83	0
9-Apr-13	sub2304	2304	1	0	130	3	2	6	3	6	1	1	0	0.04646	0	0.5	0	26	85	86	0
9-Apr-13	sub2304	2304	1	0	131	3	2	6	3	6	0	2	0	0.07719	1	0.5	0	26	67	88	0
9-Apr-13	sub2304	2304	1	0	132	3	2	2	2	5	1	2	1	0.49214	1	0.5	0	22	60	61	0
9-Apr-13	sub2304	2304	1	0	133	3	2	3	5	6	1	1	1	0.46224	1	0.5	0	23	62	63	0
9-Apr-13	sub2304	2304	1	0	134	3	2	1	6	6	1	1	1	0.21143	1	0.5	0	21	60	61	0
9-Apr-13	sub2304	2304	1	0	135	3	2	3	5	6	0	1	0	0.18384	1	0.4	0	23	64	89	0
9-Apr-13	sub2304	2304	1	0	136	3	2	2	2	5	1	2	1	0.0099	1	0.4	0	22	60	61	0
9-Apr-13	sub2304	2304	1	0	137	3	2	2	2	5	1	2	1	0.41408	1	0.4	1	22	60	51	0
9-Apr-13	sub2304	2304	1	0	138	3	2	1	6	6	1	1	1	0.07462	1	0.5	0	21	60	61	0
9-Apr-13	sub2304	2304	1	0	139	3	2	5	1	5	0	2	1	0.06445	0	0.5	0	25	87	68	0
9-Apr-13	sub2304	2304	1	0	140	3	2	2	2	5	1	2	1	0.4892	1	0.5	0	22	60	61	0
9-Apr-13	sub2304	2304	1	0	141	3	2	5	1	5	0	2	1	0.0573	0	0.5	0	25	87	68	0
9-Apr-13	sub2304	2304	1	0	142	3	2	5	1	5	0	2	1	0.47999	0	0.5	0	25	87	68	0
9-Apr-13	sub2304	2304	1	0	143	3	2	4	4	6	1	1	0	0.00434	0	0.5	0	24	82	83	0
9-Apr-13	sub2304	2304	1	0	144	3	2	3	5	6	1	2	0	0.37221	0	0.5	0	23	82	83	0
9-Apr-13	sub2304	2304	1	0	145	3	2	2	2	5	1	2	1	0.45958	1	0.5	0	22	60	61	0
9-Apr-13	sub2304	2304	1	0	146	3	2	2	2	5	1	2	1	0.43781	1	0.5	0	22	60	61	0
9-Apr-13	sub2304	2304	1	0	147	3	2	6	3	6	1	1	0	0.44595	0	0.5	0	26	85	86	0
9-Apr-13	sub2304	2304	1	0	148	3	2	6	3	6	1	2	1	0.12682	1	0.5	0	26	65	66	0
9-Apr-13	sub2304	2304	1	0	149	3	2	6	3	6	0	2	0	0.03415	1	0.5	0	26	67	88	0
9-Apr-13	sub2304	2304	1	0	150	3	2	1	6	6	1	1	1	0.27956	1	0.5	0	21	60	61	0
9-Apr-13	sub2304	2304	1	0	1	4	1	6	4	5	1	1	0	0.02929	0	0.6	0	16	45	46	0
9-Apr-13	sub2304	2304	1	0	2	4	1	4	1	6	1	1	0	0.16735	0	0.3	0	14	42	43	0
9-Apr-13	sub2304	2304	1	0	3	4	1	4	1	6	1	0	0	0	0	0.3	1	14	0	51	0
9-Apr-13	sub2304	2304	1	0	4	4	1	6	4	5	1	1	0	0.06807	0	0.9	0	16	45	46	0
9-Apr-13	sub2304	2304	1	0	5	4	1	6	4	5	1	2	1	0.34756	1	0.9	0	16	35	36	0
9-Apr-13	sub2304	2304	1	0	6	4	1	2	5	5	1	1	0	0.17749	0	0.9	0	12	40	41	0
9-Apr-13	sub2304	2304	1	0	7	4	1	5	2	6	1	2	0	0.43778	0	0.9	0	15	45	46	0
9-Apr-13	sub2304	2304	1	0	8	4	1	6	4	5	1	1	0	0.0599	0	0.9	0	16	45	46	0
9-Apr-13	sub2304	2304	1	0	9	4	1	1	6	2	1	2	0	0.01825	0	0.9	0	11	40	41	0
9-Apr-13	sub2304	2304	1	0	10	4	1	2	5	5	1	1	0	0.11546	0	0.9	0	12	40	41	0
9-Apr-13	sub2304	2304	1	0	11	4	1	2	5	5	1	2	1	0.38305	1	0.9	0	12	30	31	0
9-Apr-13	sub2304	2304	1	0	12	4	1	4	1	6	0	2	0	0.47456	1	0.9	0	14	34	49	0
9-Apr-13	sub2304	2304	1	0	13	4	1	1	6	2	1	2	0	0.05473	0	0.9	0	11	40	41	0
9-Apr-13	sub2304	2304	1	0	14	4	1	5	2	6	1	1	1	0.10943	1	0.9	0	15	35	36	0
9-Apr-13	sub2304	2304	1	0	15	4	1	4	1	6	1	2	1	0.15376	1	0.9	0	14	32	33	0
9-Apr-13	sub2304	2304	1	0	16	4	1	1	6	2	1	2	0	0.0559	0	0.8	0	11	40	41	0
9-Apr-13	sub2304	2304	1	0	17	4	1	3	3	1	1	2	0	0.49781	0	0.8	0	13	42	43	0
9-Apr-13	sub2304	2304	1	0	18	4	1	3	3	1	1	1	1	0.43182	1	0.7	0	13	32	33	0
9-Apr-13	sub2304	2304	1	0	19	4	1	1	6	2	1	2	0	0.44811	0	0.7	0	11	40	41	0
9-Apr-13	sub2304	2304	1	0	20	4	1	6	4	5	0	1	1	0.38651	0	0.7	0	16	47	38	0
9-Apr-13	sub2304	2304	1	0	21	4	1	5	2	6	1	2	0	0.42697	0	0.6	0	15	45	46	0
9-Apr-13	sub2304	2304	1	0	22	4	1	6	4	5	1	2	1	0.11228	1	0.6	0	16	35	36	0
9-Apr-13	sub2304	2304	1	0	23	4	1	4	1	6	1	1	0	0.0133	0	0.6	0	14	42	43	0
9-Apr-13	sub2304	2304	1	0	24	4	1	3	3	1	1	2	0	0.48826	0	0.6	0	13	42	43	0
9-Apr-13	sub2304	2304	1	0	25	4	1	2	5	5	1	2	1	0.48355	1	0.6	0	12	30	31	0
9-Apr-13	sub2304	2304	1	0	26	4	1	3	3	1	1	1	1	0.32483	1	0.5	0	13	32	33	0
9-Apr-13	sub2304	2304	1	0	27	4	1	5	2	6	0	2	1	0.46587	0	0.5	0	15	47	38	0
9-Apr-13	sub2304	2304	1	0	28	4	1	2	5	5	1	1	0	0.05365	0	0.5	0	12	40	41	0
9-Apr-13	sub2304	2304	1	0	29	4	1	5	2	6	0	2	1	0.48662	0	0.5	0	15	47	38	0
9-Apr-13	sub2304	2304	1	0	30	4	1	2	5	5	1	2	1	0.41793	1	0.5	0	12	30	31	0
9-Apr-13	sub2304	2304	1	0	31	4	1	5	2	6	0	2	1	0.0492	0	0.5	0	15	47	38	0
9-Apr-13	sub2304	2304	1	0	32	4	1	1	6	2	1	1	1	0.06338	1	0.5	0	11	30	31	0
9-Apr-13	sub2304	2304	1	0	33	4	1	2	5	5	1	2	1	0.04404	1	0.5	0	12	30	31	0
9-Apr-13	sub2304	2304	1	0	34	4	1	3	3	1	1	1	1	0.05883	1	0.5	0	13	32	33	0
9-Apr-13	sub2304	2304	1	0	35	4	1	4	1	6	1	2	1	0.04705	1	0.4	0	14	32	33	0
9-Apr-13	sub2304	2304	1	0	36	4	1	3	3	1	1	1	1	0.43671	1	0.4	1	13	32	51	0
9-Apr-13	sub2304	2304	1	0	37	4	1	1	6	2	1	2	0	0.00981	0	0.7	0	11	40	41	0
9-Apr-13	sub2304	2304	1	0	38	4	1	4	1	6	1	2	1	0.15969	1	0.7	0	14	32	33	0
9-Apr-13	sub2304	2304	1	0	39	4	1	5	2	6	1	2	0	0.10211	0	0.7	0	15	45	46	0
9-Apr-13	sub2304	2304	1	0	40	4	1	2	5	5	1	1	0	0.48168	0	0.7	0	12	40	41	0
9-Apr-13	sub2304	2304	1	0	41	4	1	5	2	6	0	2	1	0.43476	0	0.6	0	15	47	38	0
9-Apr-13	sub2304	2304	1	0	42	4	1	1	6	2	1	2	0	0.42079	0	0.6	0	11	40	41	0
9-Apr-13	sub2304	2304	1	0	43	4	1	1	6	2	1	1	1	0.49112	1	0.6	0	11	30	31	0
9-Apr-13	sub2304	2304	1	0	44	4	1	3	3	1	0	2	1	0.49545	0	0.6	0	13	44	39	0
9-Apr-13	sub2304	2304	1	0	45	4	1	2	5	5	1	1	0	0.48739	0	0.6	0	12	40	41	0
9-Apr-13	sub2304	2304	1	0	46	4	1	5	2	6	1	2	0	0.45999	0	0.6	0	15	45	46	0
9-Apr-13	sub2304	2304	1	0	47	4	1	2	5	5	1	2	1	0.12585	1	0.6	0	12	30	31	0
9-Apr-13	sub2304	2304	1	0	48	4	1	5	2	6	0	1	0	0.45234	1	0.6	0	15	37	48	0
9-Apr-13	sub2304	2304	1	0	49	4	1	6	4	5	0	2	0	0.25295	1	0.6	0	16	37	48	0
9-Apr-13	sub2304	2304	1	0	50	4	1	6	4	5	0	2	0	0.46758	1	0.6	0	16	37	48	0
9-Apr-13	sub2304	2304	1	0	51	4	1	6	4	5	0	1	1	0.42448	0	0.5	0	16	47	38	0
9-Apr-13	sub2304	2304	1	0	52	4	1	3	3	1	0	2	1	0.01878	0	0.5	0	13	44	39	0
9-Apr-13	sub2304	2304	1	0	53	4	1	4	1	6	0	2	0	0.04276	1	0.5	0	14	34	49	0
9-Apr-13	sub2304	2304	1	0	54	4	1	5	2	6	1	1	1	0.01706	1	0.5	0	15	35	36	0
9-Apr-13	sub2304	2304	1	0	55	4	1	1	6	2	1	2	0	0.10371	0	0.5	0	11	40	41	0
9-Apr-13	sub2304	2304	1	0	56	4	1	4	1	6	1	1	0	0.22769	0	0.5	0	14	42	43	0
9-Apr-13	sub2304	2304	1	0	57	4	1	2	5	5	1	2	1	0.43273	1	0.5	0	12	30	31	0
9-Apr-13	sub2304	2304	1	0	58	4	1	3	3	1	1	2	0	0.45129	0	0.5	0	13	42	43	0
9-Apr-13	sub2304	2304	1	0	59	4	1	1	6	2	1	2	0	0.12192	0	0.5	0	11	40	41	0
9-Apr-13	sub2304	2304	1	0	60	4	1	5	2	6	0	1	0	0.35416	1	0.5	0	15	37	48	0
9-Apr-13	sub2304	2304	1	0	61	4	1	3	3	1	1	2	0	0.42766	0	0.5	0	13	42	43	0
9-Apr-13	sub2304	2304	1	0	62	4	1	6	4	5	1	1	0	0.30521	0	0.5	0	16	45	46	0
9-Apr-13	sub2304	2304	1	0	63	4	1	4	1	6	1	2	1	0.45605	1	0.5	0	14	32	33	0
9-Apr-13	sub2304	2304	1	0	64	4	1	3	3	1	1	2	0	0.05625	0	0.5	0	13	42	43	0
9-Apr-13	sub2304	2304	1	0	65	4	1	1	6	2	1	1	1	0.15785	1	0.5	0	11	30	31	0
9-Apr-13	sub2304	2304	1	0	66	4	1	2	5	5	1	2	1	0.24416	1	0.5	0	12	30	31	0
9-Apr-13	sub2304	2304	1	0	67	4	1	4	1	6	1	1	0	0.43339	0	0.5	0	14	42	43	0
9-Apr-13	sub2304	2304	1	0	68	4	1	1	6	2	1	2	0	0.22829	0	0.4	0	11	40	41	0
9-Apr-13	sub2304	2304	1	0	69	4	1	3	3	1	1	2	0	0.10059	0	0.4	0	13	42	43	0
9-Apr-13	sub2304	2304	1	0	70	4	1	4	1	6	1	2	1	0.14135	1	0.4	0	14	32	33	0
9-Apr-13	sub2304	2304	1	0	71	4	1	6	4	5	0	1	1	0.49431	0	0.4	1	16	47	51	0
9-Apr-13	sub2304	2304	1	0	72	4	1	6	4	5	1	1	0	0.49443	0	0.6	0	16	45	46	0
9-Apr-13	sub2304	2304	1	0	73	4	1	2	5	5	1	2	1	0.06411	1	0.6	0	12	30	31	0
9-Apr-13	sub2304	2304	1	0	74	4	1	6	4	5	0	2	0	0.48659	1	0.6	0	16	37	48	0
9-Apr-13	sub2304	2304	1	0	75	4	1	3	3	1	0	1	0	0.13161	1	0.6	0	13	34	49	0
9-Apr-13	sub2304	2304	1	0	76	4	2	2	5	5	1	2	1	0.37582	1	0.5	0	22	60	61	0
9-Apr-13	sub2304	2304	1	0	77	4	2	1	6	2	1	1	1	0.12468	1	0.5	0	21	60	61	0
9-Apr-13	sub2304	2304	1	0	78	4	2	5	2	6	0	2	1	0.48291	0	0.5	0	25	87	68	0
9-Apr-13	sub2304	2304	1	0	79	4	2	6	4	5	0	1	1	0.03107	0	0.5	0	26	87	68	0
9-Apr-13	sub2304	2304	1	0	80	4	2	1	6	2	1	2	0	0.47086	0	0.5	0	21	80	81	0
9-Apr-13	sub2304	2304	1	0	81	4	2	3	3	1	1	1	1	0.00987	1	0.5	0	23	62	63	0
9-Apr-13	sub2304	2304	1	0	82	4	2	6	4	5	0	1	1	0.24102	0	0.5	0	26	87	68	0
9-Apr-13	sub2304	2304	1	0	83	4	2	5	2	6	0	2	1	0.08964	0	0.5	0	25	87	68	0
9-Apr-13	sub2304	2304	1	0	84	4	2	3	3	1	1	2	0	0.1431	0	0.5	0	23	82	83	0
9-Apr-13	sub2304	2304	1	0	85	4	2	4	1	6	1	1	0	0.09251	0	0.5	0	24	82	83	0
9-Apr-13	sub2304	2304	1	0	86	4	2	2	5	5	1	2	1	0.31155	1	0.5	0	22	60	61	0
9-Apr-13	sub2304	2304	1	0	87	4	2	2	5	5	1	2	1	0.40171	1	0.5	0	22	60	61	0
9-Apr-13	sub2304	2304	1	0	88	4	2	1	6	2	1	1	1	0.01537	1	0.5	0	21	60	61	0
9-Apr-13	sub2304	2304	1	0	89	4	2	6	4	5	1	1	0	0.20886	0	0.5	0	26	85	86	0
9-Apr-13	sub2304	2304	1	0	90	4	2	5	2	6	0	2	1	0.42478	0	0.5	0	25	87	68	0
9-Apr-13	sub2304	2304	1	0	91	4	2	1	6	2	1	2	0	0.31208	0	0.5	0	21	80	81	0
9-Apr-13	sub2304	2304	1	0	92	4	2	3	3	1	0	1	0	0.35557	1	0.5	0	23	64	89	0
9-Apr-13	sub2304	2304	1	0	93	4	2	3	3	1	1	2	0	0.2902	0	0.5	0	23	82	83	0
9-Apr-13	sub2304	2304	1	0	94	4	2	4	1	6	1	2	1	0.1825	1	0.5	0	24	62	63	0
9-Apr-13	sub2304	2304	1	0	95	4	2	6	4	5	0	1	1	0.07304	0	0.5	0	26	87	68	0
9-Apr-13	sub2304	2304	1	0	96	4	2	4	1	6	0	2	0	0.45357	1	0.5	0	24	64	89	0
9-Apr-13	sub2304	2304	1	0	97	4	2	6	4	5	0	1	1	0.35879	0	0.5	0	26	87	68	0
9-Apr-13	sub2304	2304	1	0	98	4	2	3	3	1	1	2	0	0.46598	0	0.5	0	23	82	83	0
9-Apr-13	sub2304	2304	1	0	99	4	2	2	5	5	1	1	0	0.0713	0	0.5	0	22	80	81	0
9-Apr-13	sub2304	2304	1	0	100	4	2	2	5	5	1	2	1	0.36893	1	0.5	0	22	60	61	0
9-Apr-13	sub2304	2304	1	0	101	4	2	5	2	6	0	2	1	0.0668	0	0.4	0	25	87	68	0
9-Apr-13	sub2304	2304	1	0	102	4	2	4	1	6	0	2	0	0.07709	1	0.4	0	24	64	89	0
9-Apr-13	sub2304	2304	1	0	103	4	2	1	6	2	1	1	1	0.36739	1	0.4	0	21	60	61	0
9-Apr-13	sub2304	2304	1	0	104	4	2	5	2	6	0	2	1	0.03106	0	0.4	0	25	87	68	0
9-Apr-13	sub2304	2304	1	0	105	4	2	2	5	5	1	0	0	0	0	0.4	1	22	0	51	0
9-Apr-13	sub2304	2304	1	0	106	4	2	5	2	6	0	2	1	0.39575	0	0.5	0	25	87	68	0
9-Apr-13	sub2304	2304	1	0	107	4	2	5	2	6	0	2	1	0.34117	0	0.5	0	25	87	68	0
9-Apr-13	sub2304	2304	1	0	108	4	2	2	5	5	1	1	0	0.39088	0	0.5	0	22	80	81	0
9-Apr-13	sub2304	2304	1	0	109	4	2	6	4	5	0	2	0	0.02552	1	0.5	0	26	67	88	0
9-Apr-13	sub2304	2304	1	0	110	4	2	5	2	6	0	1	0	0.45073	1	0.5	0	25	67	88	0
9-Apr-13	sub2304	2304	1	0	111	4	2	2	5	5	1	2	1	0.26439	1	0.5	0	22	60	61	0
9-Apr-13	sub2304	2304	1	0	112	4	2	3	3	1	1	2	0	0.28267	0	0.5	0	23	82	83	0
9-Apr-13	sub2304	2304	1	0	113	4	2	1	6	2	1	2	0	0.03984	0	0.5	0	21	80	81	0
9-Apr-13	sub2304	2304	1	0	114	4	2	2	5	5	1	1	0	0.07957	0	0.5	0	22	80	81	0
9-Apr-13	sub2304	2304	1	0	115	4	2	6	4	5	1	2	1	0.06234	1	0.5	0	26	65	66	0
9-Apr-13	sub2304	2304	1	0	116	4	2	4	1	6	1	1	0	0.41623	0	0.5	0	24	82	83	0
9-Apr-13	sub2304	2304	1	0	117	4	2	5	2	6	0	2	1	0.41415	0	0.5	0	25	87	68	0
9-Apr-13	sub2304	2304	1	0	118	4	2	3	3	1	1	1	1	0.01904	1	0.5	0	23	62	63	0
9-Apr-13	sub2304	2304	1	0	119	4	2	1	6	2	1	1	1	0.02843	1	0.5	0	21	60	61	0
9-Apr-13	sub2304	2304	1	0	120	4	2	4	1	6	1	2	1	0.0883	1	0.5	0	24	62	63	0
9-Apr-13	sub2304	2304	1	0	121	4	2	4	1	6	1	2	1	0.07511	1	0.5	0	24	62	63	0
9-Apr-13	sub2304	2304	1	0	122	4	2	2	5	5	1	1	0	0.47936	0	0.5	0	22	80	81	0
9-Apr-13	sub2304	2304	1	0	123	4	2	3	3	1	1	1	1	0.1391	1	0.5	0	23	62	63	0
9-Apr-13	sub2304	2304	1	0	124	4	2	5	2	6	0	2	1	0.47848	0	0.5	0	25	87	68	0
9-Apr-13	sub2304	2304	1	0	125	4	2	6	4	5	1	1	0	0.0235	0	0.5	0	26	85	86	0
9-Apr-13	sub2304	2304	1	0	126	4	2	3	3	1	1	2	0	0.02115	0	0.5	0	23	82	83	0
9-Apr-13	sub2304	2304	1	0	127	4	2	5	2	6	0	2	1	0.49955	0	0.5	0	25	87	68	0
9-Apr-13	sub2304	2304	1	0	128	4	2	1	6	2	1	1	1	0.49309	1	0.5	0	21	60	61	0
9-Apr-13	sub2304	2304	1	0	129	4	2	3	3	1	0	1	0	0.42244	1	0.5	0	23	64	89	0
9-Apr-13	sub2304	2304	1	0	130	4	2	4	1	6	1	2	1	0.47117	1	0.5	0	24	62	63	0
9-Apr-13	sub2304	2304	1	0	131	4	2	6	4	5	1	1	0	0.49271	0	0.5	0	26	85	86	0
9-Apr-13	sub2304	2304	1	0	132	4	2	5	2	6	0	2	1	0.46336	0	0.5	0	25	87	68	0
9-Apr-13	sub2304	2304	1	0	133	4	2	3	3	1	1	2	0	0.01749	0	0.5	0	23	82	83	0
9-Apr-13	sub2304	2304	1	0	134	4	2	1	6	2	1	1	1	0.41841	1	0.5	0	21	60	61	0
9-Apr-13	sub2304	2304	1	0	135	4	2	3	3	1	1	1	1	0.42826	1	0.4	1	23	62	51	0
9-Apr-13	sub2304	2304	1	0	136	4	2	1	6	2	1	1	1	0.00461	1	0.5	0	21	60	61	0
9-Apr-13	sub2304	2304	1	0	137	4	2	1	6	2	1	1	1	0.08979	1	0.5	0	21	60	61	0
9-Apr-13	sub2304	2304	1	0	138	4	2	6	4	5	1	2	1	0.0299	1	0.5	0	26	65	66	0
9-Apr-13	sub2304	2304	1	0	139	4	2	5	2	6	0	1	0	0.02298	1	0.5	0	25	67	88	0
9-Apr-13	sub2304	2304	1	0	140	4	2	1	6	2	1	1	1	0.02571	1	0.5	0	21	60	61	0
9-Apr-13	sub2304	2304	1	0	141	4	2	1	6	2	1	1	1	0.12033	1	0.5	0	21	60	61	0
9-Apr-13	sub2304	2304	1	0	142	4	2	2	5	5	1	2	1	0.03964	1	0.5	0	22	60	61	0
9-Apr-13	sub2304	2304	1	0	143	4	2	4	1	6	0	1	1	0.00944	0	0.5	0	24	84	69	0
9-Apr-13	sub2304	2304	1	0	144	4	2	2	5	5	1	2	1	0.10093	1	0.5	0	22	60	61	0
9-Apr-13	sub2304	2304	1	0	145	4	2	6	4	5	0	1	1	0.14553	0	0.5	0	26	87	68	0
9-Apr-13	sub2304	2304	1	0	146	4	2	4	1	6	1	2	1	0.03732	1	0.5	0	24	62	63	0
9-Apr-13	sub2304	2304	1	0	147	4	2	4	1	6	1	2	1	0.04106	1	0.5	0	24	62	63	0
9-Apr-13	sub2304	2304	1	0	148	4	2	4	1	6	1	2	1	0.0171	1	0.5	0	24	62	63	0
9-Apr-13	sub2304	2304	1	0	149	4	2	6	4	5	1	1	0	0.06021	0	0.5	0	26	85	86	0
9-Apr-13	sub2304	2304	1	0	150	4	2	4	1	6	1	2	1	0.42703	1	0.5	0	24	62	63	0
9-Apr-13	sub2304	2304	1	0	1	5	1	2	2	3	1	2	1	0.33521	1	0.6	0	12	30	31	0
9-Apr-13	sub2304	2304	1	0	2	5	1	4	1	3	1	1	0	0.41707	0	0.3	1	14	42	51	0
9-Apr-13	sub2304	2304	1	0	3	5	1	1	5	4	1	2	0	0.41912	0	0.9	0	11	40	41	0
9-Apr-13	sub2304	2304	1	0	4	5	1	5	4	4	0	1	0	0.40019	1	0.9	0	15	37	48	0
9-Apr-13	sub2304	2304	1	0	5	5	1	5	4	4	0	2	1	0.31166	0	0.9	0	15	47	38	0
9-Apr-13	sub2304	2304	1	0	6	5	1	2	2	3	1	2	1	0.43817	1	0.9	0	12	30	31	0
9-Apr-13	sub2304	2304	1	0	7	5	1	3	3	4	1	1	1	0.43839	1	0.9	0	13	32	33	0
9-Apr-13	sub2304	2304	1	0	8	5	1	6	6	3	0	2	0	0.40565	1	0.9	0	16	37	48	0
9-Apr-13	sub2304	2304	1	0	9	5	1	5	4	4	0	2	1	0.48296	0	0.9	0	15	47	38	0
9-Apr-13	sub2304	2304	1	0	10	5	1	3	3	4	1	1	1	0.06059	1	0.9	0	13	32	33	0
9-Apr-13	sub2304	2304	1	0	11	5	1	5	4	4	1	1	1	0.03331	1	0.9	0	15	35	36	0
9-Apr-13	sub2304	2304	1	0	12	5	1	6	6	3	1	2	1	0.01502	1	0.9	0	16	35	36	0
9-Apr-13	sub2304	2304	1	0	13	5	1	1	5	4	1	1	1	0.10852	1	0.9	0	11	30	31	0
9-Apr-13	sub2304	2304	1	0	14	5	1	4	1	3	0	2	0	0.13434	1	0.9	0	14	34	49	0
9-Apr-13	sub2304	2304	1	0	15	5	1	5	4	4	1	2	0	0.42737	0	0.9	0	15	45	46	0
9-Apr-13	sub2304	2304	1	0	16	5	1	6	6	3	1	1	0	0.00503	0	0.8	0	16	45	46	0
9-Apr-13	sub2304	2304	1	0	17	5	1	3	3	4	1	2	0	0.37741	0	0.8	0	13	42	43	0
9-Apr-13	sub2304	2304	1	0	18	5	1	3	3	4	1	1	1	0.47419	1	0.7	0	13	32	33	0
9-Apr-13	sub2304	2304	1	0	19	5	1	3	3	4	1	1	1	0.01932	1	0.7	0	13	32	33	0
9-Apr-13	sub2304	2304	1	0	20	5	1	2	2	3	1	2	1	0.07081	1	0.7	0	12	30	31	0
9-Apr-13	sub2304	2304	1	0	21	5	1	6	6	3	1	2	1	0.04094	1	0.6	0	16	35	36	0
9-Apr-13	sub2304	2304	1	0	22	5	1	1	5	4	1	2	0	0.46371	0	0.6	0	11	40	41	0
9-Apr-13	sub2304	2304	1	0	23	5	1	4	1	3	1	1	0	0.01151	0	0.6	0	14	42	43	0
9-Apr-13	sub2304	2304	1	0	24	5	1	1	5	4	1	2	0	0.46588	0	0.6	0	11	40	41	0
9-Apr-13	sub2304	2304	1	0	25	5	1	5	4	4	1	2	0	0.19532	0	0.6	0	15	45	46	0
9-Apr-13	sub2304	2304	1	0	26	5	1	1	5	4	1	1	1	0.35282	1	0.5	0	11	30	31	0
9-Apr-13	sub2304	2304	1	0	27	5	1	5	4	4	0	1	0	0.41499	1	0.5	0	15	37	48	0
9-Apr-13	sub2304	2304	1	0	28	5	1	4	1	3	0	2	0	0.01875	1	0.5	0	14	34	49	0
9-Apr-13	sub2304	2304	1	0	29	5	1	2	2	3	1	2	1	0.41494	1	0.5	0	12	30	31	0
9-Apr-13	sub2304	2304	1	0	30	5	1	3	3	4	1	1	1	0.46736	1	0.5	0	13	32	33	0
9-Apr-13	sub2304	2304	1	0	31	5	1	6	6	3	0	2	0	0.49408	1	0.5	0	16	37	48	0
9-Apr-13	sub2304	2304	1	0	32	5	1	6	6	3	0	1	1	0.47083	0	0.5	0	16	47	38	0
9-Apr-13	sub2304	2304	1	0	33	5	1	5	4	4	1	1	1	0.06848	1	0.5	0	15	35	36	0
9-Apr-13	sub2304	2304	1	0	34	5	1	1	5	4	1	1	1	0.17192	1	0.5	0	11	30	31	0
9-Apr-13	sub2304	2304	1	0	35	5	1	4	1	3	1	2	1	0.1136	1	0.4	0	14	32	33	0
9-Apr-13	sub2304	2304	1	0	36	5	1	5	4	4	1	2	0	0.06429	0	0.4	0	15	45	46	0
9-Apr-13	sub2304	2304	1	0	37	5	1	1	5	4	1	1	1	0.37357	1	0.4	0	11	30	31	0
9-Apr-13	sub2304	2304	1	0	38	5	1	4	1	3	1	2	1	0.0608	1	0.4	0	14	32	33	0
9-Apr-13	sub2304	2304	1	0	39	5	1	1	5	4	1	1	1	0.35369	1	0.4	0	11	30	31	0
9-Apr-13	sub2304	2304	1	0	40	5	1	5	4	4	1	1	1	0.16079	1	0.4	0	15	35	36	0
9-Apr-13	sub2304	2304	1	0	41	5	1	2	2	3	1	2	1	0.47178	1	0.4	1	12	30	51	0
9-Apr-13	sub2304	2304	1	0	42	5	1	1	5	4	1	1	1	0.0687	1	0.6	0	11	30	31	0
9-Apr-13	sub2304	2304	1	0	43	5	1	1	5	4	1	1	1	0.00721	1	0.6	0	11	30	31	0
9-Apr-13	sub2304	2304	1	0	44	5	1	3	3	4	1	1	1	0.09199	1	0.6	0	13	32	33	0
9-Apr-13	sub2304	2304	1	0	45	5	1	4	1	3	1	2	1	0.46489	1	0.6	0	14	32	33	0
9-Apr-13	sub2304	2304	1	0	46	5	1	3	3	4	1	1	1	0.2673	1	0.6	0	13	32	33	0
9-Apr-13	sub2304	2304	1	0	47	5	1	5	4	4	0	1	0	0.42683	1	0.6	0	15	37	48	0
9-Apr-13	sub2304	2304	1	0	48	5	1	3	3	4	0	1	0	0.02914	1	0.6	0	13	34	49	0
9-Apr-13	sub2304	2304	1	0	49	5	1	2	2	3	1	2	1	0.01755	1	0.6	0	12	30	31	0
9-Apr-13	sub2304	2304	1	0	50	5	1	3	3	4	1	2	0	0.05201	0	0.6	0	13	42	43	0
9-Apr-13	sub2304	2304	1	0	51	5	1	2	2	3	1	2	1	0.07996	1	0.5	0	12	30	31	0
9-Apr-13	sub2304	2304	1	0	52	5	1	6	6	3	1	2	1	0.02504	1	0.5	0	16	35	36	0
9-Apr-13	sub2304	2304	1	0	53	5	1	6	6	3	0	2	0	0.48786	1	0.5	0	16	37	48	0
9-Apr-13	sub2304	2304	1	0	54	5	1	3	3	4	0	1	0	0.03265	1	0.5	0	13	34	49	0
9-Apr-13	sub2304	2304	1	0	55	5	1	1	5	4	1	2	0	0.45446	0	0.5	0	11	40	41	0
9-Apr-13	sub2304	2304	1	0	56	5	1	5	4	4	1	1	1	0.35775	1	0.5	0	15	35	36	0
9-Apr-13	sub2304	2304	1	0	57	5	1	6	6	3	1	2	1	0.49068	1	0.5	0	16	35	36	0
9-Apr-13	sub2304	2304	1	0	58	5	1	2	2	3	1	2	1	0.13716	1	0.5	0	12	30	31	0
9-Apr-13	sub2304	2304	1	0	59	5	1	4	1	3	1	1	0	0.41187	0	0.5	0	14	42	43	0
9-Apr-13	sub2304	2304	1	0	60	5	1	2	2	3	1	2	1	0.05205	1	0.5	0	12	30	31	0
9-Apr-13	sub2304	2304	1	0	61	5	1	6	6	3	0	2	0	0.08226	1	0.5	0	16	37	48	0
9-Apr-13	sub2304	2304	1	0	62	5	1	1	5	4	1	1	1	0.18087	1	0.5	0	11	30	31	0
9-Apr-13	sub2304	2304	1	0	63	5	1	4	1	3	1	2	1	0.45721	1	0.5	0	14	32	33	0
9-Apr-13	sub2304	2304	1	0	64	5	1	6	6	3	0	2	0	0.44682	1	0.5	0	16	37	48	0
9-Apr-13	sub2304	2304	1	0	65	5	1	3	3	4	1	1	1	0.02611	1	0.5	0	13	32	33	0
9-Apr-13	sub2304	2304	1	0	66	5	1	2	2	3	1	2	1	0.47912	1	0.5	0	12	30	31	0
9-Apr-13	sub2304	2304	1	0	67	5	1	4	1	3	1	2	1	0.46672	1	0.5	0	14	32	33	0
9-Apr-13	sub2304	2304	1	0	68	5	1	2	2	3	1	2	1	0.07561	1	0.4	0	12	30	31	0
9-Apr-13	sub2304	2304	1	0	69	5	1	6	6	3	0	2	0	0.10319	1	0.4	0	16	37	48	0
9-Apr-13	sub2304	2304	1	0	70	5	1	3	3	4	0	1	0	0.07719	1	0.4	0	13	34	49	0
9-Apr-13	sub2304	2304	1	0	71	5	1	6	6	3	1	2	1	0.0284	1	0.4	0	16	35	36	0
9-Apr-13	sub2304	2304	1	0	72	5	1	2	2	3	1	2	1	0.06785	1	0.4	0	12	30	31	0
9-Apr-13	sub2304	2304	1	0	73	5	1	4	1	3	1	2	1	0.0663	1	0.4	0	14	32	33	0
9-Apr-13	sub2304	2304	1	0	74	5	1	2	2	3	1	2	1	0.48471	1	0.4	1	12	30	51	0
9-Apr-13	sub2304	2304	1	0	75	5	1	4	1	3	1	2	1	0.00408	1	0.6	0	14	32	33	0
9-Apr-13	sub2304	2304	1	0	76	5	2	3	3	4	0	2	1	0.43741	0	0.5	0	23	84	69	0
9-Apr-13	sub2304	2304	1	0	77	5	2	3	3	4	0	2	1	0.01005	0	0.5	0	23	84	69	0
9-Apr-13	sub2304	2304	1	0	78	5	2	6	6	3	1	2	1	0.07235	1	0.5	0	26	65	66	0
9-Apr-13	sub2304	2304	1	0	79	5	2	1	5	4	1	1	1	0.11431	1	0.5	0	21	60	61	0
9-Apr-13	sub2304	2304	1	0	80	5	2	2	2	3	1	2	1	0.03176	1	0.5	0	22	60	61	0
9-Apr-13	sub2304	2304	1	0	81	5	2	3	3	4	1	1	1	0.08501	1	0.5	0	23	62	63	0
9-Apr-13	sub2304	2304	1	0	82	5	2	5	4	4	0	1	0	0.02191	1	0.5	0	25	67	88	0
9-Apr-13	sub2304	2304	1	0	83	5	2	6	6	3	1	2	1	0.0406	1	0.5	0	26	65	66	0
9-Apr-13	sub2304	2304	1	0	84	5	2	5	4	4	0	2	1	0.00931	0	0.5	0	25	87	68	0
9-Apr-13	sub2304	2304	1	0	85	5	2	1	5	4	1	2	0	0.42519	0	0.5	0	21	80	81	0
9-Apr-13	sub2304	2304	1	0	86	5	2	3	3	4	1	2	0	0.06858	0	0.5	0	23	82	83	0
9-Apr-13	sub2304	2304	1	0	87	5	2	1	5	4	1	1	1	0.1647	1	0.5	0	21	60	61	0
9-Apr-13	sub2304	2304	1	0	88	5	2	6	6	3	0	2	0	0.00209	1	0.5	0	26	67	88	0
9-Apr-13	sub2304	2304	1	0	89	5	2	2	2	3	1	2	1	0.0416	1	0.5	0	22	60	61	0
9-Apr-13	sub2304	2304	1	0	90	5	2	4	1	3	1	2	1	0.06613	1	0.5	0	24	62	63	0
9-Apr-13	sub2304	2304	1	0	91	5	2	4	1	3	1	2	1	0.49985	1	0.5	0	24	62	63	0
9-Apr-13	sub2304	2304	1	0	92	5	2	5	4	4	0	1	0	0.01298	1	0.5	0	25	67	88	0
9-Apr-13	sub2304	2304	1	0	93	5	2	5	4	4	0	2	1	0.0879	0	0.5	0	25	87	68	0
9-Apr-13	sub2304	2304	1	0	94	5	2	3	3	4	1	2	0	0.07629	0	0.5	0	23	82	83	0
9-Apr-13	sub2304	2304	1	0	95	5	2	1	5	4	1	1	1	0.10552	1	0.5	0	21	60	61	0
9-Apr-13	sub2304	2304	1	0	96	5	2	3	3	4	1	2	0	0.12502	0	0.5	0	23	82	83	0
9-Apr-13	sub2304	2304	1	0	97	5	2	3	3	4	1	1	1	0.4361	1	0.5	0	23	62	63	0
9-Apr-13	sub2304	2304	1	0	98	5	2	3	3	4	1	1	1	0.46376	1	0.5	0	23	62	63	0
9-Apr-13	sub2304	2304	1	0	99	5	2	6	6	3	0	2	0	0.48254	1	0.5	0	26	67	88	0
9-Apr-13	sub2304	2304	1	0	100	5	2	4	1	3	1	2	1	0.05357	1	0.5	0	24	62	63	0
9-Apr-13	sub2304	2304	1	0	101	5	2	2	2	3	1	2	1	0.06462	1	0.4	0	22	60	61	0
9-Apr-13	sub2304	2304	1	0	102	5	2	5	4	4	0	1	0	0.06259	1	0.4	0	25	67	88	0
9-Apr-13	sub2304	2304	1	0	103	5	2	6	6	3	0	1	1	0.07727	0	0.4	0	26	87	68	0
9-Apr-13	sub2304	2304	1	0	104	5	2	2	2	3	1	2	1	0.08488	1	0.4	0	22	60	61	0
9-Apr-13	sub2304	2304	1	0	105	5	2	5	4	4	0	1	0	0.00614	1	0.4	0	25	67	88	0
9-Apr-13	sub2304	2304	1	0	106	5	2	5	4	4	0	2	1	0.06988	0	0.4	0	25	87	68	0
9-Apr-13	sub2304	2304	1	0	107	5	2	1	5	4	1	1	1	0.03322	1	0.4	0	21	60	61	0
9-Apr-13	sub2304	2304	1	0	108	5	2	5	4	4	0	2	1	0.08068	0	0.4	0	25	87	68	0
9-Apr-13	sub2304	2304	1	0	109	5	2	2	2	3	1	2	1	0.01842	1	0.4	0	22	60	61	0
9-Apr-13	sub2304	2304	1	0	110	5	2	1	5	4	1	2	0	0.06224	0	0.4	0	21	80	81	0
9-Apr-13	sub2304	2304	1	0	111	5	2	2	2	3	1	2	1	0.49934	1	0.4	1	22	60	51	0
9-Apr-13	sub2304	2304	1	0	112	5	2	4	1	3	1	2	1	0.03198	1	0.5	0	24	62	63	0
9-Apr-13	sub2304	2304	1	0	113	5	2	2	2	3	1	2	1	0.08316	1	0.5	0	22	60	61	0
9-Apr-13	sub2304	2304	1	0	114	5	2	4	1	3	1	1	0	0.0086	0	0.5	0	24	82	83	0
9-Apr-13	sub2304	2304	1	0	115	5	2	4	1	3	1	2	1	0.43898	1	0.5	0	24	62	63	0
9-Apr-13	sub2304	2304	1	0	116	5	2	4	1	3	0	2	0	0.42617	1	0.5	0	24	64	89	0
9-Apr-13	sub2304	2304	1	0	117	5	2	4	1	3	1	1	0	0.13703	0	0.5	0	24	82	83	0
9-Apr-13	sub2304	2304	1	0	118	5	2	1	5	4	1	1	1	0.16654	1	0.5	0	21	60	61	0
9-Apr-13	sub2304	2304	1	0	119	5	2	1	5	4	1	2	0	0.10277	0	0.5	0	21	80	81	0
9-Apr-13	sub2304	2304	1	0	120	5	2	5	4	4	0	1	0	0.02814	1	0.5	0	25	67	88	0
9-Apr-13	sub2304	2304	1	0	121	5	2	4	1	3	0	2	0	0.04668	1	0.5	0	24	64	89	0
9-Apr-13	sub2304	2304	1	0	122	5	2	3	3	4	1	2	0	0.14351	0	0.5	0	23	82	83	0
9-Apr-13	sub2304	2304	1	0	123	5	2	6	6	3	0	1	1	0.40734	0	0.5	0	26	87	68	0
9-Apr-13	sub2304	2304	1	0	124	5	2	1	5	4	1	2	0	0.28045	0	0.5	0	21	80	81	0
9-Apr-13	sub2304	2304	1	0	125	5	2	1	5	4	1	1	1	0.08709	1	0.5	0	21	60	61	0
9-Apr-13	sub2304	2304	1	0	126	5	2	3	3	4	1	2	0	0.16054	0	0.5	0	23	82	83	0
9-Apr-13	sub2304	2304	1	0	127	5	2	4	1	3	0	2	0	0.03048	1	0.5	0	24	64	89	0
9-Apr-13	sub2304	2304	1	0	128	5	2	6	6	3	1	2	1	0.06527	1	0.5	0	26	65	66	0
9-Apr-13	sub2304	2304	1	0	129	5	2	6	6	3	1	2	1	0.00874	1	0.5	0	26	65	66	0
9-Apr-13	sub2304	2304	1	0	130	5	2	4	1	3	1	1	0	0.0769	0	0.5	0	24	82	83	0
9-Apr-13	sub2304	2304	1	0	131	5	2	6	6	3	1	2	1	0.43944	1	0.5	0	26	65	66	0
9-Apr-13	sub2304	2304	1	0	132	5	2	2	2	3	1	2	1	0.48217	1	0.5	0	22	60	61	0
9-Apr-13	sub2304	2304	1	0	133	5	2	6	6	3	1	2	1	0.49608	1	0.5	0	26	65	66	0
9-Apr-13	sub2304	2304	1	0	134	5	2	2	2	3	1	2	1	0.41319	1	0.5	0	22	60	61	0
9-Apr-13	sub2304	2304	1	0	135	5	2	2	2	3	1	2	1	0.42362	1	0.4	1	22	60	51	0
9-Apr-13	sub2304	2304	1	0	136	5	2	5	4	4	0	1	0	0.03112	1	0.5	0	25	67	88	0
9-Apr-13	sub2304	2304	1	0	137	5	2	3	3	4	1	2	0	0.12995	0	0.5	0	23	82	83	0
9-Apr-13	sub2304	2304	1	0	138	5	2	5	4	4	0	1	0	0.09849	1	0.5	0	25	67	88	0
9-Apr-13	sub2304	2304	1	0	139	5	2	6	6	3	0	2	0	0.4404	1	0.5	0	26	67	88	0
9-Apr-13	sub2304	2304	1	0	140	5	2	5	4	4	0	1	0	0.49145	1	0.5	0	25	67	88	0
9-Apr-13	sub2304	2304	1	0	141	5	2	1	5	4	1	2	0	0.37638	0	0.5	0	21	80	81	0
9-Apr-13	sub2304	2304	1	0	142	5	2	2	2	3	1	2	1	0.46956	1	0.5	0	22	60	61	0
9-Apr-13	sub2304	2304	1	0	143	5	2	4	1	3	1	2	1	0.04201	1	0.5	0	24	62	63	0
9-Apr-13	sub2304	2304	1	0	144	5	2	4	1	3	1	1	0	0.13328	0	0.5	0	24	82	83	0
9-Apr-13	sub2304	2304	1	0	145	5	2	1	5	4	1	2	0	0.18937	0	0.5	0	21	80	81	0
9-Apr-13	sub2304	2304	1	0	146	5	2	3	3	4	1	2	0	0.42763	0	0.5	0	23	82	83	0
9-Apr-13	sub2304	2304	1	0	147	5	2	1	5	4	1	2	0	0.03864	0	0.5	0	21	80	81	0
9-Apr-13	sub2304	2304	1	0	148	5	2	5	4	4	0	1	0	0.38519	1	0.5	0	25	67	88	0
9-Apr-13	sub2304	2304	1	0	149	5	2	2	2	3	1	2	1	0.43689	1	0.5	0	22	60	61	0
9-Apr-13	sub2304	2304	1	0	150	5	2	6	6	3	0	2	0	0.00816	1	0.5	0	26	67	88	0
9-Apr-13	sub2304	2304	1	0	1	6	1	6	6	5	1	2	1	0.08213	1	0.6	0	16	35	36	0
9-Apr-13	sub2304	2304	1	0	2	6	1	2	1	2	1	1	0	0.39485	0	0.3	1	12	40	51	0
9-Apr-13	sub2304	2304	1	0	3	6	1	1	3	2	1	2	0	0.30849	0	0.9	0	11	40	41	0
9-Apr-13	sub2304	2304	1	0	4	6	1	2	1	2	1	2	1	0.42365	1	0.9	0	12	30	31	0
9-Apr-13	sub2304	2304	1	0	5	6	1	4	2	2	1	1	0	0.03838	0	0.9	0	14	42	43	0
9-Apr-13	sub2304	2304	1	0	6	6	1	3	4	3	0	2	1	0.45764	0	0.9	0	13	44	39	0
9-Apr-13	sub2304	2304	1	0	7	6	1	3	4	3	1	2	0	0.44594	0	0.9	0	13	42	43	0
9-Apr-13	sub2304	2304	1	0	8	6	1	1	3	2	1	2	0	0.42087	0	0.9	0	11	40	41	0
9-Apr-13	sub2304	2304	1	0	9	6	1	2	1	2	1	2	1	0.05068	1	0.9	0	12	30	31	0
9-Apr-13	sub2304	2304	1	0	10	6	1	3	4	3	1	1	1	0.17096	1	0.9	0	13	32	33	0
9-Apr-13	sub2304	2304	1	0	11	6	1	4	2	2	1	1	0	0.09191	0	0.9	0	14	42	43	0
9-Apr-13	sub2304	2304	1	0	12	6	1	6	6	5	0	2	0	0.00869	1	0.9	0	16	37	48	0
9-Apr-13	sub2304	2304	1	0	13	6	1	4	2	2	1	2	1	0.46969	1	0.9	0	14	32	33	0
9-Apr-13	sub2304	2304	1	0	14	6	1	6	6	5	1	1	0	0.47606	0	0.9	0	16	45	46	0
9-Apr-13	sub2304	2304	1	0	15	6	1	6	6	5	0	2	0	0.3751	1	0.9	0	16	37	48	0
9-Apr-13	sub2304	2304	1	0	16	6	1	5	5	3	0	1	0	0.33927	1	0.8	0	15	37	48	0
9-Apr-13	sub2304	2304	1	0	17	6	1	1	3	2	1	2	0	0.37635	0	0.8	0	11	40	41	0
9-Apr-13	sub2304	2304	1	0	18	6	1	4	2	2	0	1	1	0.25239	0	0.7	0	14	44	39	0
9-Apr-13	sub2304	2304	1	0	19	6	1	5	5	3	1	1	1	0.41183	1	0.7	0	15	35	36	0
9-Apr-13	sub2304	2304	1	0	20	6	1	1	3	2	1	1	1	0.40966	1	0.7	0	11	30	31	0
9-Apr-13	sub2304	2304	1	0	21	6	1	1	3	2	1	1	1	0.3902	1	0.6	0	11	30	31	0
9-Apr-13	sub2304	2304	1	0	22	6	1	5	5	3	1	2	0	0.44968	0	0.6	0	15	45	46	0
9-Apr-13	sub2304	2304	1	0	23	6	1	6	6	5	1	1	0	0.46532	0	0.6	0	16	45	46	0
9-Apr-13	sub2304	2304	1	0	24	6	1	3	4	3	1	1	1	0.15739	1	0.6	0	13	32	33	0
9-Apr-13	sub2304	2304	1	0	25	6	1	6	6	5	0	1	1	0.45838	0	0.6	0	16	47	38	0
9-Apr-13	sub2304	2304	1	0	26	6	1	2	1	2	1	1	0	0.39043	0	0.5	0	12	40	41	0
9-Apr-13	sub2304	2304	1	0	27	6	1	2	1	2	1	2	1	0.08797	1	0.5	0	12	30	31	0
9-Apr-13	sub2304	2304	1	0	28	6	1	4	2	2	1	1	0	0.47355	0	0.5	0	14	42	43	0
9-Apr-13	sub2304	2304	1	0	29	6	1	3	4	3	1	0	0	0	0	0.5	1	13	0	51	0
9-Apr-13	sub2304	2304	1	0	30	6	1	2	1	2	1	1	0	0.43417	0	0.8	0	12	40	41	0
9-Apr-13	sub2304	2304	1	0	31	6	1	1	3	2	1	1	1	0.10422	1	0.8	0	11	30	31	0
9-Apr-13	sub2304	2304	1	0	32	6	1	5	5	3	1	2	0	0.08747	0	0.8	0	15	45	46	0
9-Apr-13	sub2304	2304	1	0	33	6	1	5	5	3	0	1	0	0.41133	1	0.8	0	15	37	48	0
9-Apr-13	sub2304	2304	1	0	34	6	1	4	2	2	0	1	1	0.08526	0	0.8	0	14	44	39	0
9-Apr-13	sub2304	2304	1	0	35	6	1	4	2	2	1	1	0	0.4969	0	0.7	0	14	42	43	0
9-Apr-13	sub2304	2304	1	0	36	6	1	3	4	3	0	1	0	0.08836	1	0.7	0	13	34	49	0
9-Apr-13	sub2304	2304	1	0	37	6	1	2	1	2	1	2	1	0.07879	1	0.7	0	12	30	31	0
9-Apr-13	sub2304	2304	1	0	38	6	1	4	2	2	1	2	1	0.06892	1	0.7	0	14	32	33	0
9-Apr-13	sub2304	2304	1	0	39	6	1	1	3	2	1	1	1	0.12601	1	0.7	0	11	30	31	0
9-Apr-13	sub2304	2304	1	0	40	6	1	4	2	2	1	2	1	0.04961	1	0.7	0	14	32	33	0
9-Apr-13	sub2304	2304	1	0	41	6	1	1	3	2	1	1	1	0.46279	1	0.6	0	11	30	31	0
9-Apr-13	sub2304	2304	1	0	42	6	1	3	4	3	1	2	0	0.12645	0	0.6	0	13	42	43	0
9-Apr-13	sub2304	2304	1	0	43	6	1	5	5	3	1	2	0	0.22285	0	0.6	0	15	45	46	0
9-Apr-13	sub2304	2304	1	0	44	6	1	1	3	2	1	1	1	0.06054	1	0.6	0	11	30	31	0
9-Apr-13	sub2304	2304	1	0	45	6	1	3	4	3	1	1	1	0.45262	1	0.6	0	13	32	33	0
9-Apr-13	sub2304	2304	1	0	46	6	1	3	4	3	1	1	1	0.36611	1	0.6	0	13	32	33	0
9-Apr-13	sub2304	2304	1	0	47	6	1	4	2	2	1	1	0	0.4141	0	0.6	0	14	42	43	0
9-Apr-13	sub2304	2304	1	0	48	6	1	3	4	3	1	1	1	0.25334	1	0.6	0	13	32	33	0
9-Apr-13	sub2304	2304	1	0	49	6	1	6	6	5	0	2	0	0.04889	1	0.6	0	16	37	48	0
9-Apr-13	sub2304	2304	1	0	50	6	1	1	3	2	1	1	1	0.43	1	0.6	0	11	30	31	0
9-Apr-13	sub2304	2304	1	0	51	6	1	2	1	2	1	1	0	0.40592	0	0.5	0	12	40	41	0
9-Apr-13	sub2304	2304	1	0	52	6	1	4	2	2	1	1	0	0.0482	0	0.5	0	14	42	43	0
9-Apr-13	sub2304	2304	1	0	53	6	1	6	6	5	1	2	1	0.06086	1	0.5	0	16	35	36	0
9-Apr-13	sub2304	2304	1	0	54	6	1	3	4	3	1	1	1	0.48522	1	0.5	0	13	32	33	0
9-Apr-13	sub2304	2304	1	0	55	6	1	5	5	3	1	1	1	0.4018	1	0.5	0	15	35	36	0
9-Apr-13	sub2304	2304	1	0	56	6	1	5	5	3	0	1	0	0.0411	1	0.5	0	15	37	48	0
9-Apr-13	sub2304	2304	1	0	57	6	1	3	4	3	1	1	1	0.1668	1	0.5	0	13	32	33	0
9-Apr-13	sub2304	2304	1	0	58	6	1	6	6	5	0	2	0	0.13681	1	0.5	0	16	37	48	0
9-Apr-13	sub2304	2304	1	0	59	6	1	3	4	3	0	1	0	0.32182	1	0.5	0	13	34	49	0
9-Apr-13	sub2304	2304	1	0	60	6	1	5	5	3	0	2	1	0.36849	0	0.5	0	15	47	38	0
9-Apr-13	sub2304	2304	1	0	61	6	1	6	6	5	1	1	0	0.12127	0	0.5	0	16	45	46	0
9-Apr-13	sub2304	2304	1	0	62	6	1	5	5	3	1	2	0	0.46597	0	0.5	0	15	45	46	0
9-Apr-13	sub2304	2304	1	0	63	6	1	2	1	2	1	2	1	0.09764	1	0.5	0	12	30	31	0
9-Apr-13	sub2304	2304	1	0	64	6	1	2	1	2	1	2	1	0.42938	1	0.5	0	12	30	31	0
9-Apr-13	sub2304	2304	1	0	65	6	1	4	2	2	1	1	0	0.04204	0	0.5	0	14	42	43	0
9-Apr-13	sub2304	2304	1	0	66	6	1	5	5	3	0	2	1	0.23438	0	0.5	0	15	47	38	0
9-Apr-13	sub2304	2304	1	0	67	6	1	1	3	2	1	2	0	0.49378	0	0.5	0	11	40	41	0
9-Apr-13	sub2304	2304	1	0	68	6	1	5	5	3	0	2	1	0.00621	0	0.4	0	15	47	38	0
9-Apr-13	sub2304	2304	1	0	69	6	1	6	6	5	0	2	0	0.02927	1	0.4	0	16	37	48	0
9-Apr-13	sub2304	2304	1	0	70	6	1	2	1	2	1	2	1	0.06808	1	0.4	0	12	30	31	0
9-Apr-13	sub2304	2304	1	0	71	6	1	2	1	2	1	2	1	0.02839	1	0.4	0	12	30	31	0
9-Apr-13	sub2304	2304	1	0	72	6	1	2	1	2	1	2	1	0.48337	1	0.4	1	12	30	51	0
9-Apr-13	sub2304	2304	1	0	73	6	1	6	6	5	1	1	0	0.48302	0	0.6	0	16	45	46	0
9-Apr-13	sub2304	2304	1	0	74	6	1	1	3	2	1	2	0	0.39624	0	0.6	0	11	40	41	0
9-Apr-13	sub2304	2304	1	0	75	6	1	6	6	5	1	1	0	0.47609	0	0.6	0	16	45	46	0
9-Apr-13	sub2304	2304	1	0	76	6	2	1	3	2	1	1	1	0.11283	1	0.5	0	21	60	61	0
9-Apr-13	sub2304	2304	1	0	77	6	2	1	3	2	1	1	1	0.03668	1	0.5	0	21	60	61	0
9-Apr-13	sub2304	2304	1	0	78	6	2	2	1	2	1	2	1	0.07242	1	0.5	0	22	60	61	0
9-Apr-13	sub2304	2304	1	0	79	6	2	4	2	2	1	1	0	0.2285	0	0.5	0	24	82	83	0
9-Apr-13	sub2304	2304	1	0	80	6	2	4	2	2	1	2	1	0.49568	1	0.5	0	24	62	63	0
9-Apr-13	sub2304	2304	1	0	81	6	2	6	6	5	0	2	0	0.24477	1	0.5	0	26	67	88	0
9-Apr-13	sub2304	2304	1	0	82	6	2	5	5	3	0	1	0	0.16576	1	0.5	0	25	67	88	0
9-Apr-13	sub2304	2304	1	0	83	6	2	3	4	3	1	2	0	0.23975	0	0.5	0	23	82	83	0
9-Apr-13	sub2304	2304	1	0	84	6	2	3	4	3	1	1	1	0.25492	1	0.5	0	23	62	63	0
9-Apr-13	sub2304	2304	1	0	85	6	2	2	1	2	1	2	1	0.48632	1	0.5	0	22	60	61	0
9-Apr-13	sub2304	2304	1	0	86	6	2	3	4	3	1	1	1	0.10498	1	0.5	0	23	62	63	0
9-Apr-13	sub2304	2304	1	0	87	6	2	3	4	3	1	1	1	0.47534	1	0.5	0	23	62	63	0
9-Apr-13	sub2304	2304	1	0	88	6	2	6	6	5	1	2	1	0.03305	1	0.5	0	26	65	66	0
9-Apr-13	sub2304	2304	1	0	89	6	2	4	2	2	1	1	0	0.01571	0	0.5	0	24	82	83	0
9-Apr-13	sub2304	2304	1	0	90	6	2	5	5	3	0	1	0	0.0604	1	0.5	0	25	67	88	0
9-Apr-13	sub2304	2304	1	0	91	6	2	3	4	3	0	2	1	0.00117	0	0.5	0	23	84	69	0
9-Apr-13	sub2304	2304	1	0	92	6	2	4	2	2	1	2	1	0.4316	1	0.5	0	24	62	63	0
9-Apr-13	sub2304	2304	1	0	93	6	2	6	6	5	1	2	1	0.43655	1	0.5	0	26	65	66	0
9-Apr-13	sub2304	2304	1	0	94	6	2	5	5	3	0	2	1	0.44574	0	0.5	0	25	87	68	0
9-Apr-13	sub2304	2304	1	0	95	6	2	4	2	2	0	2	0	0.02357	1	0.5	0	24	64	89	0
9-Apr-13	sub2304	2304	1	0	96	6	2	5	5	3	0	2	1	0.0514	0	0.5	0	25	87	68	0
9-Apr-13	sub2304	2304	1	0	97	6	2	2	1	2	1	2	1	0.06446	1	0.5	0	22	60	61	0
9-Apr-13	sub2304	2304	1	0	98	6	2	2	1	2	1	2	1	0.4538	1	0.5	0	22	60	61	0
9-Apr-13	sub2304	2304	1	0	99	6	2	2	1	2	1	1	0	0.45683	0	0.5	0	22	80	81	0
9-Apr-13	sub2304	2304	1	0	100	6	2	5	5	3	0	2	1	0.49304	0	0.5	0	25	87	68	0
9-Apr-13	sub2304	2304	1	0	101	6	2	1	3	2	1	1	1	0.08677	1	0.4	0	21	60	61	0
9-Apr-13	sub2304	2304	1	0	102	6	2	4	2	2	1	2	1	0.01551	1	0.4	0	24	62	63	0
9-Apr-13	sub2304	2304	1	0	103	6	2	4	2	2	1	2	1	0.02746	1	0.4	0	24	62	63	0
9-Apr-13	sub2304	2304	1	0	104	6	2	5	5	3	0	2	1	0.08549	0	0.4	0	25	87	68	0
9-Apr-13	sub2304	2304	1	0	105	6	2	6	6	5	0	2	0	0.12593	1	0.4	0	26	67	88	0
9-Apr-13	sub2304	2304	1	0	106	6	2	2	1	2	1	2	1	0.04198	1	0.4	0	22	60	61	0
9-Apr-13	sub2304	2304	1	0	107	6	2	6	6	5	0	1	1	0.45743	0	0.4	1	26	87	51	0
9-Apr-13	sub2304	2304	1	0	108	6	2	1	3	2	1	1	1	0.06544	1	0.5	0	21	60	61	0
9-Apr-13	sub2304	2304	1	0	109	6	2	3	4	3	1	1	1	0.2033	1	0.5	0	23	62	63	0
9-Apr-13	sub2304	2304	1	0	110	6	2	4	2	2	1	2	1	0.00343	1	0.5	0	24	62	63	0
9-Apr-13	sub2304	2304	1	0	111	6	2	2	1	2	1	2	1	0.41969	1	0.5	0	22	60	61	0
9-Apr-13	sub2304	2304	1	0	112	6	2	3	4	3	1	1	1	0.04199	1	0.5	0	23	62	63	0
9-Apr-13	sub2304	2304	1	0	113	6	2	2	1	2	1	2	1	0.42642	1	0.5	0	22	60	61	0
9-Apr-13	sub2304	2304	1	0	114	6	2	3	4	3	1	1	1	0.46677	1	0.5	0	23	62	63	0
9-Apr-13	sub2304	2304	1	0	115	6	2	3	4	3	0	1	0	0.07913	1	0.5	0	23	64	89	0
9-Apr-13	sub2304	2304	1	0	116	6	2	2	1	2	1	2	1	0.4975	1	0.5	0	22	60	61	0
9-Apr-13	sub2304	2304	1	0	117	6	2	1	3	2	1	1	1	0.08268	1	0.5	0	21	60	61	0
9-Apr-13	sub2304	2304	1	0	118	6	2	1	3	2	1	1	1	0.04953	1	0.5	0	21	60	61	0
9-Apr-13	sub2304	2304	1	0	119	6	2	5	5	3	0	2	1	0.47803	0	0.5	0	25	87	68	0
9-Apr-13	sub2304	2304	1	0	120	6	2	5	5	3	0	2	1	0.44416	0	0.5	0	25	87	68	0
9-Apr-13	sub2304	2304	1	0	121	6	2	3	4	3	1	1	1	0.00169	1	0.5	0	23	62	63	0
9-Apr-13	sub2304	2304	1	0	122	6	2	6	6	5	0	2	0	0.10336	1	0.5	0	26	67	88	0
9-Apr-13	sub2304	2304	1	0	123	6	2	6	6	5	1	1	0	0.16597	0	0.5	0	26	85	86	0
9-Apr-13	sub2304	2304	1	0	124	6	2	3	4	3	1	2	0	0.44616	0	0.5	0	23	82	83	0
9-Apr-13	sub2304	2304	1	0	125	6	2	6	6	5	1	1	0	0.40808	0	0.5	0	26	85	86	0
9-Apr-13	sub2304	2304	1	0	126	6	2	2	1	2	1	2	1	0.44831	1	0.5	0	22	60	61	0
9-Apr-13	sub2304	2304	1	0	127	6	2	5	5	3	0	1	0	0.02792	1	0.5	0	25	67	88	0
9-Apr-13	sub2304	2304	1	0	128	6	2	5	5	3	0	2	1	0.4359	0	0.5	0	25	87	68	0
9-Apr-13	sub2304	2304	1	0	129	6	2	4	2	2	0	2	0	0.03049	1	0.5	0	24	64	89	0
9-Apr-13	sub2304	2304	1	0	130	6	2	5	5	3	0	2	1	0.09244	0	0.5	0	25	87	68	0
9-Apr-13	sub2304	2304	1	0	131	6	2	2	1	2	1	2	1	0.00114	1	0.5	0	22	60	61	0
9-Apr-13	sub2304	2304	1	0	132	6	2	4	2	2	0	2	0	0.08114	1	0.5	0	24	64	89	0
9-Apr-13	sub2304	2304	1	0	133	6	2	6	6	5	1	2	1	0.11967	1	0.5	0	26	65	66	0
9-Apr-13	sub2304	2304	1	0	134	6	2	2	1	2	1	2	1	0.11223	1	0.5	0	22	60	61	0
9-Apr-13	sub2304	2304	1	0	135	6	2	6	6	5	0	2	0	0.47091	1	0.4	1	26	67	51	0
9-Apr-13	sub2304	2304	1	0	136	6	2	1	3	2	1	1	1	0.067	1	0.5	0	21	60	61	0
9-Apr-13	sub2304	2304	1	0	137	6	2	5	5	3	0	2	1	0.17937	0	0.5	0	25	87	68	0
9-Apr-13	sub2304	2304	1	0	138	6	2	1	3	2	1	2	0	0.11207	0	0.5	0	21	80	81	0
9-Apr-13	sub2304	2304	1	0	139	6	2	6	6	5	0	2	0	0.47169	1	0.5	0	26	67	88	0
9-Apr-13	sub2304	2304	1	0	140	6	2	4	2	2	1	1	0	0.49548	0	0.5	0	24	82	83	0
9-Apr-13	sub2304	2304	1	0	141	6	2	1	3	2	1	2	0	0.49934	0	0.5	0	21	80	81	0
9-Apr-13	sub2304	2304	1	0	142	6	2	1	3	2	1	1	1	0.135	1	0.5	0	21	60	61	0
9-Apr-13	sub2304	2304	1	0	143	6	2	1	3	2	1	1	1	0.02857	1	0.5	0	21	60	61	0
9-Apr-13	sub2304	2304	1	0	144	6	2	3	4	3	1	2	0	0.18572	0	0.5	0	23	82	83	0
9-Apr-13	sub2304	2304	1	0	145	6	2	1	3	2	1	1	1	0.42047	1	0.5	0	21	60	61	0
9-Apr-13	sub2304	2304	1	0	146	6	2	1	3	2	1	1	1	0.46458	1	0.5	0	21	60	61	0
9-Apr-13	sub2304	2304	1	0	147	6	2	4	2	2	1	2	1	0.03317	1	0.5	0	24	62	63	0
9-Apr-13	sub2304	2304	1	0	148	6	2	4	2	2	1	2	1	0.44109	1	0.5	0	24	62	63	0
9-Apr-13	sub2304	2304	1	0	149	6	2	6	6	5	1	1	0	0.08104	0	0.5	0	26	85	86	0
9-Apr-13	sub2304	2304	1	0	150	6	2	5	5	3	0	2	1	0.06258	0	0.5	0	25	87	68	0
