Date 	 Name 	 ID 	 Gender 	 Appearance 	 Trial 	 Block 	 Bin 	 Condition 	 Category 	 Number 	 Valid 	 Keypress 	 Correct 	 RT 	 Realcorrect 	 Deadline 	 Timeout 	 Stimtrigger 	 Resptrigger 	 Fedtrigger 	WithinTime
10-Apr-13	2305	2305	2	0	1	1	1	1	4	1	1	0	0	0	0	0.6	1	11	0	51	0
10-Apr-13	2305	2305	2	0	2	1	1	3	3	3	1	0	0	0	0	0.9	1	13	0	51	0
10-Apr-13	2305	2305	2	0	3	1	1	6	6	3	1	0	0	0	0	0.9	1	16	0	51	0
10-Apr-13	2305	2305	2	0	4	1	1	6	6	3	0	0	0	0	0	0.9	1	16	0	51	0
10-Apr-13	2305	2305	2	0	5	1	1	1	4	1	1	0	0	0	0	0.9	1	11	0	51	0
10-Apr-13	2305	2305	2	0	6	1	1	5	5	1	1	1	1	0.27634	1	0.9	0	15	35	36	0
10-Apr-13	2305	2305	2	0	7	1	1	5	5	1	0	1	0	0.10057	1	0.9	0	15	37	48	0
10-Apr-13	2305	2305	2	0	8	1	1	1	4	1	1	2	0	0.02959	0	0.9	0	11	40	41	0
10-Apr-13	2305	2305	2	0	9	1	1	2	2	4	1	1	0	0.03	0	0.9	0	12	40	41	0
10-Apr-13	2305	2305	2	0	10	1	1	4	1	3	1	2	1	0.40876	1	0.9	0	14	32	33	0
10-Apr-13	2305	2305	2	0	11	1	1	6	6	3	0	1	1	0.49912	0	0.9	0	16	47	38	0
10-Apr-13	2305	2305	2	0	12	1	1	2	2	4	1	2	1	0.48045	1	0.9	0	12	30	31	0
10-Apr-13	2305	2305	2	0	13	1	1	4	1	3	0	2	0	0.42143	1	0.9	0	14	34	49	0
10-Apr-13	2305	2305	2	0	14	1	1	2	2	4	1	2	1	0.48457	1	0.9	0	12	30	31	0
10-Apr-13	2305	2305	2	0	15	1	1	3	3	3	0	1	0	0.07222	1	0.9	0	13	34	49	0
10-Apr-13	2305	2305	2	0	16	1	1	3	3	3	0	2	1	0.04971	0	0.9	0	13	44	39	0
10-Apr-13	2305	2305	2	0	17	1	1	2	2	4	1	2	1	0.20327	1	0.9	0	12	30	31	0
10-Apr-13	2305	2305	2	0	18	1	1	3	3	3	1	1	1	0.42741	1	0.9	0	13	32	33	0
10-Apr-13	2305	2305	2	0	19	1	1	6	6	3	0	1	1	0.26116	0	0.9	0	16	47	38	0
10-Apr-13	2305	2305	2	0	20	1	1	1	4	1	1	2	0	0.08409	0	0.9	0	11	40	41	0
10-Apr-13	2305	2305	2	0	21	1	1	1	4	1	1	1	1	0.11806	1	0.9	0	11	30	31	0
10-Apr-13	2305	2305	2	0	22	1	1	4	1	3	1	2	1	0.12112	1	0.9	0	14	32	33	0
10-Apr-13	2305	2305	2	0	23	1	1	1	4	1	1	2	0	0.0066	0	0.9	0	11	40	41	0
10-Apr-13	2305	2305	2	0	24	1	1	3	3	3	0	2	1	0.36709	0	0.9	0	13	44	39	0
10-Apr-13	2305	2305	2	0	25	1	1	4	1	3	1	2	1	0.44508	1	0.9	0	14	32	33	0
10-Apr-13	2305	2305	2	0	26	1	1	4	1	3	1	2	1	0.4967	1	0.9	0	14	32	33	0
10-Apr-13	2305	2305	2	0	27	1	1	6	6	3	0	1	1	0.08005	0	0.9	0	16	47	38	0
10-Apr-13	2305	2305	2	0	28	1	1	6	6	3	0	1	1	0.04618	0	0.9	0	16	47	38	0
10-Apr-13	2305	2305	2	0	29	1	1	3	3	3	1	1	1	0.03336	1	0.9	0	13	32	33	0
10-Apr-13	2305	2305	2	0	30	1	1	6	6	3	0	1	1	0.03739	0	0.9	0	16	47	38	0
10-Apr-13	2305	2305	2	0	31	1	1	5	5	1	1	1	1	0.436	1	0.9	0	15	35	36	0
10-Apr-13	2305	2305	2	0	32	1	1	5	5	1	0	1	0	0.46491	1	0.9	0	15	37	48	0
10-Apr-13	2305	2305	2	0	33	1	1	2	2	4	1	2	1	0.04168	1	0.9	0	12	30	31	0
10-Apr-13	2305	2305	2	0	34	1	1	1	4	1	1	1	1	0.47902	1	0.9	0	11	30	31	0
10-Apr-13	2305	2305	2	0	35	1	1	5	5	1	1	1	1	0.07453	1	0.9	0	15	35	36	0
10-Apr-13	2305	2305	2	0	36	1	1	2	2	4	1	2	1	0.09509	1	0.9	0	12	30	31	0
10-Apr-13	2305	2305	2	0	37	1	1	5	5	1	0	1	0	0.03613	1	0.9	0	15	37	48	0
10-Apr-13	2305	2305	2	0	38	1	1	5	5	1	1	1	1	0.4527	1	0.9	0	15	35	36	0
10-Apr-13	2305	2305	2	0	39	1	1	6	6	3	1	2	1	0.2782	1	0.9	0	16	35	36	0
10-Apr-13	2305	2305	2	0	40	1	1	5	5	1	0	2	1	0.45694	0	0.9	0	15	47	38	0
10-Apr-13	2305	2305	2	0	41	1	1	6	6	3	1	2	1	0.3842	1	0.9	0	16	35	36	0
10-Apr-13	2305	2305	2	0	42	1	1	1	4	1	1	1	1	0.07634	1	0.9	0	11	30	31	0
10-Apr-13	2305	2305	2	0	43	1	1	6	6	3	1	1	0	0.21158	0	0.9	0	16	45	46	0
10-Apr-13	2305	2305	2	0	44	1	1	5	5	1	1	1	1	0.01272	1	0.9	0	15	35	36	0
10-Apr-13	2305	2305	2	0	45	1	1	1	4	1	1	1	1	0.09695	1	0.9	0	11	30	31	0
10-Apr-13	2305	2305	2	0	46	1	1	5	5	1	0	1	0	0.47619	1	0.9	0	15	37	48	0
10-Apr-13	2305	2305	2	0	47	1	1	3	3	3	1	1	1	0.4553	1	0.9	0	13	32	33	0
10-Apr-13	2305	2305	2	0	48	1	1	2	2	4	1	1	0	0.41572	0	0.9	0	12	40	41	0
10-Apr-13	2305	2305	2	0	49	1	1	4	1	3	1	2	1	0.02377	1	0.9	0	14	32	33	0
10-Apr-13	2305	2305	2	0	50	1	1	4	1	3	1	1	0	0.07798	0	0.9	0	14	42	43	0
10-Apr-13	2305	2305	2	0	51	1	1	3	3	3	1	1	1	0.10588	1	0.9	0	13	32	33	0
10-Apr-13	2305	2305	2	0	52	1	1	3	3	3	1	1	1	0.44826	1	0.9	0	13	32	33	0
10-Apr-13	2305	2305	2	0	53	1	1	4	1	3	1	2	1	0.03932	1	0.9	0	14	32	33	0
10-Apr-13	2305	2305	2	0	54	1	1	4	1	3	0	2	0	0.4857	1	0.9	0	14	34	49	0
10-Apr-13	2305	2305	2	0	55	1	1	1	4	1	1	2	0	0.18977	0	0.9	0	11	40	41	0
10-Apr-13	2305	2305	2	0	56	1	1	3	3	3	1	1	1	0.45805	1	0.9	0	13	32	33	0
10-Apr-13	2305	2305	2	0	57	1	1	6	6	3	1	1	0	0.15657	0	0.9	0	16	45	46	0
10-Apr-13	2305	2305	2	0	58	1	1	4	1	3	1	2	1	0.04703	1	0.9	0	14	32	33	0
10-Apr-13	2305	2305	2	0	59	1	1	1	4	1	1	1	1	0.10381	1	0.9	0	11	30	31	0
10-Apr-13	2305	2305	2	0	60	1	1	5	5	1	1	1	1	0.06909	1	0.9	0	15	35	36	0
10-Apr-13	2305	2305	2	0	61	1	1	5	5	1	1	1	1	0.47134	1	0.9	0	15	35	36	0
10-Apr-13	2305	2305	2	0	62	1	1	6	6	3	0	2	0	0.22091	1	0.9	0	16	37	48	0
10-Apr-13	2305	2305	2	0	63	1	1	2	2	4	1	2	1	0.09756	1	0.9	0	12	30	31	0
10-Apr-13	2305	2305	2	0	64	1	1	4	1	3	1	2	1	0.00345	1	0.9	0	14	32	33	0
10-Apr-13	2305	2305	2	0	65	1	1	3	3	3	1	2	0	0.47111	0	0.9	0	13	42	43	0
10-Apr-13	2305	2305	2	0	66	1	1	4	1	3	1	2	1	0.35621	1	0.9	0	14	32	33	0
10-Apr-13	2305	2305	2	0	67	1	1	2	2	4	1	2	1	0.43734	1	0.9	0	12	30	31	0
10-Apr-13	2305	2305	2	0	68	1	1	3	3	3	1	1	1	0.05312	1	0.9	0	13	32	33	0
10-Apr-13	2305	2305	2	0	69	1	1	2	2	4	1	2	1	0.49399	1	0.9	0	12	30	31	0
10-Apr-13	2305	2305	2	0	70	1	1	2	2	4	1	2	1	0.4348	1	0.9	0	12	30	31	0
10-Apr-13	2305	2305	2	0	71	1	1	2	2	4	1	2	1	0.04662	1	0.9	0	12	30	31	0
10-Apr-13	2305	2305	2	0	72	1	1	6	6	3	1	1	0	0.49553	0	0.9	0	16	45	46	0
10-Apr-13	2305	2305	2	0	73	1	1	1	4	1	1	2	0	0.4389	0	0.8	0	11	40	41	0
10-Apr-13	2305	2305	2	0	74	1	1	3	3	3	1	1	1	0.16544	1	0.8	0	13	32	33	0
10-Apr-13	2305	2305	2	0	75	1	1	2	2	4	1	2	1	0.43229	1	0.8	0	12	30	31	0
10-Apr-13	2305	2305	2	0	1	2	1	3	5	6	0	1	0	0.03366	1	0.6	0	13	34	49	0
10-Apr-13	2305	2305	2	0	2	2	1	2	6	6	1	1	0	0.23571	0	0.3	0	12	40	41	0
10-Apr-13	2305	2305	2	0	3	2	1	5	3	4	0	1	0	0.00992	1	0.3	0	15	37	48	0
10-Apr-13	2305	2305	2	0	4	2	1	1	4	6	1	1	1	0.46007	1	0.3	1	11	30	51	0
10-Apr-13	2305	2305	2	0	5	2	1	4	2	2	1	1	0	0.26179	0	0.9	0	14	42	43	0
10-Apr-13	2305	2305	2	0	6	2	1	4	2	2	1	2	1	0.03054	1	0.9	0	14	32	33	0
10-Apr-13	2305	2305	2	0	7	2	1	5	3	4	1	2	0	0.11085	0	0.9	0	15	45	46	0
10-Apr-13	2305	2305	2	0	8	2	1	2	6	6	1	2	1	0.10816	1	0.9	0	12	30	31	0
10-Apr-13	2305	2305	2	0	9	2	1	1	4	6	1	1	1	0.08906	1	0.9	0	11	30	31	0
10-Apr-13	2305	2305	2	0	10	2	1	2	6	6	1	2	1	0.14749	1	0.9	0	12	30	31	0
10-Apr-13	2305	2305	2	0	11	2	1	5	3	4	0	2	1	0.07827	0	0.9	0	15	47	38	0
10-Apr-13	2305	2305	2	0	12	2	1	3	5	6	1	2	0	0.1597	0	0.9	0	13	42	43	0
10-Apr-13	2305	2305	2	0	13	2	1	6	1	4	1	2	1	0.07984	1	0.9	0	16	35	36	0
10-Apr-13	2305	2305	2	0	14	2	1	1	4	6	1	1	1	0.07778	1	0.9	0	11	30	31	0
10-Apr-13	2305	2305	2	0	15	2	1	6	1	4	0	2	0	0.45777	1	0.9	0	16	37	48	0
10-Apr-13	2305	2305	2	0	16	2	1	6	1	4	0	1	1	0.47451	0	0.8	0	16	47	38	0
10-Apr-13	2305	2305	2	0	17	2	1	2	6	6	1	2	1	0.45639	1	0.8	0	12	30	31	0
10-Apr-13	2305	2305	2	0	18	2	1	6	1	4	0	1	1	0.23941	0	0.7	0	16	47	38	0
10-Apr-13	2305	2305	2	0	19	2	1	2	6	6	1	2	1	0.43568	1	0.7	0	12	30	31	0
10-Apr-13	2305	2305	2	0	20	2	1	5	3	4	1	1	1	0.47779	1	0.7	0	15	35	36	0
10-Apr-13	2305	2305	2	0	21	2	1	5	3	4	1	1	1	0.13867	1	0.6	0	15	35	36	0
10-Apr-13	2305	2305	2	0	22	2	1	2	6	6	1	2	1	0.44685	1	0.6	0	12	30	31	0
10-Apr-13	2305	2305	2	0	23	2	1	4	2	2	0	2	0	0.05634	1	0.6	0	14	34	49	0
10-Apr-13	2305	2305	2	0	24	2	1	4	2	2	1	1	0	0.46064	0	0.6	0	14	42	43	0
10-Apr-13	2305	2305	2	0	25	2	1	5	3	4	1	2	0	0.38205	0	0.6	0	15	45	46	0
10-Apr-13	2305	2305	2	0	26	2	1	6	1	4	1	1	0	0.08291	0	0.5	0	16	45	46	0
10-Apr-13	2305	2305	2	0	27	2	1	3	5	6	1	2	0	0.44151	0	0.5	0	13	42	43	0
10-Apr-13	2305	2305	2	0	28	2	1	5	3	4	0	1	0	0.04868	1	0.5	0	15	37	48	0
10-Apr-13	2305	2305	2	0	29	2	1	4	2	2	1	2	1	0.13651	1	0.5	0	14	32	33	0
10-Apr-13	2305	2305	2	0	30	2	1	5	3	4	1	1	1	0.03563	1	0.5	0	15	35	36	0
10-Apr-13	2305	2305	2	0	31	2	1	6	1	4	0	1	1	0.22728	0	0.5	0	16	47	38	0
10-Apr-13	2305	2305	2	0	32	2	1	6	1	4	1	1	0	0.4922	0	0.5	0	16	45	46	0
10-Apr-13	2305	2305	2	0	33	2	1	6	1	4	0	1	1	0.45379	0	0.5	0	16	47	38	0
10-Apr-13	2305	2305	2	0	34	2	1	6	1	4	0	1	1	0.37738	0	0.5	0	16	47	38	0
10-Apr-13	2305	2305	2	0	35	2	1	2	6	6	1	2	1	0.03556	1	0.4	0	12	30	31	0
10-Apr-13	2305	2305	2	0	36	2	1	4	2	2	1	0	0	0	0	0.4	1	14	0	51	0
10-Apr-13	2305	2305	2	0	37	2	1	1	4	6	1	1	1	0.3172	1	0.7	0	11	30	31	0
10-Apr-13	2305	2305	2	0	38	2	1	1	4	6	1	1	1	0.40323	1	0.7	0	11	30	31	0
10-Apr-13	2305	2305	2	0	39	2	1	3	5	6	1	1	1	0.30282	1	0.7	0	13	32	33	0
10-Apr-13	2305	2305	2	0	40	2	1	5	3	4	0	1	0	0.42398	1	0.7	0	15	37	48	0
10-Apr-13	2305	2305	2	0	41	2	1	6	1	4	1	2	1	0.00481	1	0.6	0	16	35	36	0
10-Apr-13	2305	2305	2	0	42	2	1	4	2	2	1	2	1	0.44878	1	0.6	0	14	32	33	0
10-Apr-13	2305	2305	2	0	43	2	1	1	4	6	1	1	1	0.11232	1	0.6	0	11	30	31	0
10-Apr-13	2305	2305	2	0	44	2	1	3	5	6	1	2	0	0.39855	0	0.6	0	13	42	43	0
10-Apr-13	2305	2305	2	0	45	2	1	1	4	6	1	1	1	0.28303	1	0.6	0	11	30	31	0
10-Apr-13	2305	2305	2	0	46	2	1	2	6	6	1	1	0	0.25439	0	0.6	0	12	40	41	0
10-Apr-13	2305	2305	2	0	47	2	1	4	2	2	1	2	1	0.12244	1	0.6	0	14	32	33	0
10-Apr-13	2305	2305	2	0	48	2	1	5	3	4	1	1	1	0.42428	1	0.6	0	15	35	36	0
10-Apr-13	2305	2305	2	0	49	2	1	3	5	6	1	2	0	0.00775	0	0.6	0	13	42	43	0
10-Apr-13	2305	2305	2	0	50	2	1	2	6	6	1	1	0	0.41141	0	0.6	0	12	40	41	0
10-Apr-13	2305	2305	2	0	51	2	1	4	2	2	1	1	0	0.35551	0	0.5	0	14	42	43	0
10-Apr-13	2305	2305	2	0	52	2	1	2	6	6	1	2	1	0.29588	1	0.5	0	12	30	31	0
10-Apr-13	2305	2305	2	0	53	2	1	1	4	6	1	1	1	0.00869	1	0.5	0	11	30	31	0
10-Apr-13	2305	2305	2	0	54	2	1	1	4	6	1	1	1	0.49653	1	0.5	0	11	30	31	0
10-Apr-13	2305	2305	2	0	55	2	1	2	6	6	1	2	1	0.38895	1	0.5	0	12	30	31	0
10-Apr-13	2305	2305	2	0	56	2	1	6	1	4	1	2	1	0.01473	1	0.5	0	16	35	36	0
10-Apr-13	2305	2305	2	0	57	2	1	3	5	6	1	2	0	0.01647	0	0.5	0	13	42	43	0
10-Apr-13	2305	2305	2	0	58	2	1	2	6	6	1	2	1	0.11469	1	0.5	0	12	30	31	0
10-Apr-13	2305	2305	2	0	59	2	1	5	3	4	1	1	1	0.47376	1	0.5	0	15	35	36	0
10-Apr-13	2305	2305	2	0	60	2	1	3	5	6	0	1	0	0.42989	1	0.5	0	13	34	49	0
10-Apr-13	2305	2305	2	0	61	2	1	3	5	6	1	1	1	0.02353	1	0.5	0	13	32	33	0
10-Apr-13	2305	2305	2	0	62	2	1	2	6	6	1	2	1	0.44663	1	0.5	0	12	30	31	0
10-Apr-13	2305	2305	2	0	63	2	1	1	4	6	1	1	1	0.05644	1	0.5	0	11	30	31	0
10-Apr-13	2305	2305	2	0	64	2	1	3	5	6	1	1	1	0.1272	1	0.5	0	13	32	33	0
10-Apr-13	2305	2305	2	0	65	2	1	4	2	2	0	2	0	0.20064	1	0.5	0	14	34	49	0
10-Apr-13	2305	2305	2	0	66	2	1	1	4	6	1	1	1	0.4529	1	0.5	0	11	30	31	0
10-Apr-13	2305	2305	2	0	67	2	1	4	2	2	1	1	0	0.41999	0	0.5	0	14	42	43	0
10-Apr-13	2305	2305	2	0	68	2	1	6	1	4	0	1	1	0.04087	0	0.4	0	16	47	38	0
10-Apr-13	2305	2305	2	0	69	2	1	5	3	4	0	1	0	0.4283	1	0.4	1	15	37	51	0
10-Apr-13	2305	2305	2	0	70	2	1	6	1	4	1	1	0	0.25604	0	0.6	0	16	45	46	0
10-Apr-13	2305	2305	2	0	71	2	1	3	5	6	1	1	1	0.11418	1	0.6	0	13	32	33	0
10-Apr-13	2305	2305	2	0	72	2	1	1	4	6	1	1	1	0.03727	1	0.6	0	11	30	31	0
10-Apr-13	2305	2305	2	0	73	2	1	4	2	2	1	1	0	0.15501	0	0.6	0	14	42	43	0
10-Apr-13	2305	2305	2	0	74	2	1	3	5	6	1	1	1	0.41387	1	0.6	0	13	32	33	0
10-Apr-13	2305	2305	2	0	75	2	1	3	5	6	0	1	0	0.39717	1	0.6	0	13	34	49	0
10-Apr-13	2305	2305	2	0	76	2	2	6	1	4	1	1	0	0.05846	0	0.5	0	26	85	86	0
10-Apr-13	2305	2305	2	0	77	2	2	2	6	6	1	2	1	0.41005	1	0.5	0	22	60	61	0
10-Apr-13	2305	2305	2	0	78	2	2	1	4	6	1	1	1	0.46968	1	0.5	0	21	60	61	0
10-Apr-13	2305	2305	2	0	79	2	2	6	1	4	0	2	0	0.43896	1	0.5	0	26	67	88	0
10-Apr-13	2305	2305	2	0	80	2	2	1	4	6	1	1	1	0.48893	1	0.5	0	21	60	61	0
10-Apr-13	2305	2305	2	0	81	2	2	1	4	6	1	1	1	0.49355	1	0.5	0	21	60	61	0
10-Apr-13	2305	2305	2	0	82	2	2	2	6	6	1	2	1	0.03313	1	0.5	0	22	60	61	0
10-Apr-13	2305	2305	2	0	83	2	2	2	6	6	1	2	1	0.27253	1	0.5	0	22	60	61	0
10-Apr-13	2305	2305	2	0	84	2	2	5	3	4	0	1	0	0.03093	1	0.5	0	25	67	88	0
10-Apr-13	2305	2305	2	0	85	2	2	4	2	2	1	2	1	0.42647	1	0.5	0	24	62	63	0
10-Apr-13	2305	2305	2	0	86	2	2	4	2	2	1	1	0	0.48848	0	0.5	0	24	82	83	0
10-Apr-13	2305	2305	2	0	87	2	2	3	5	6	0	1	0	0.05077	1	0.5	0	23	64	89	0
10-Apr-13	2305	2305	2	0	88	2	2	3	5	6	1	2	0	0.43142	0	0.5	0	23	82	83	0
10-Apr-13	2305	2305	2	0	89	2	2	3	5	6	1	2	0	0.31277	0	0.5	0	23	82	83	0
10-Apr-13	2305	2305	2	0	90	2	2	3	5	6	0	1	0	0.30312	1	0.5	0	23	64	89	0
10-Apr-13	2305	2305	2	0	91	2	2	5	3	4	0	1	0	0.19775	1	0.5	0	25	67	88	0
10-Apr-13	2305	2305	2	0	92	2	2	5	3	4	0	2	1	0.36123	0	0.5	0	25	87	68	0
10-Apr-13	2305	2305	2	0	93	2	2	2	6	6	1	1	0	0.17645	0	0.5	0	22	80	81	0
10-Apr-13	2305	2305	2	0	94	2	2	1	4	6	1	1	1	0.01265	1	0.5	0	21	60	61	0
10-Apr-13	2305	2305	2	0	95	2	2	3	5	6	1	2	0	0.18625	0	0.5	0	23	82	83	0
10-Apr-13	2305	2305	2	0	96	2	2	4	2	2	0	2	0	0.40672	1	0.5	0	24	64	89	0
10-Apr-13	2305	2305	2	0	97	2	2	6	1	4	1	1	0	0.09017	0	0.5	0	26	85	86	0
10-Apr-13	2305	2305	2	0	98	2	2	6	1	4	0	1	1	0.42949	0	0.5	0	26	87	68	0
10-Apr-13	2305	2305	2	0	99	2	2	4	2	2	1	2	1	0.44459	1	0.5	0	24	62	63	0
10-Apr-13	2305	2305	2	0	100	2	2	1	4	6	1	1	1	0.48135	1	0.5	0	21	60	61	0
10-Apr-13	2305	2305	2	0	101	2	2	6	1	4	1	2	1	0.38098	1	0.4	0	26	65	66	0
10-Apr-13	2305	2305	2	0	102	2	2	6	1	4	1	1	0	0.43706	0	0.4	1	26	85	51	0
10-Apr-13	2305	2305	2	0	103	2	2	1	4	6	1	1	1	0.48852	1	0.5	0	21	60	61	0
10-Apr-13	2305	2305	2	0	104	2	2	2	6	6	1	2	1	0.4088	1	0.5	0	22	60	61	0
10-Apr-13	2305	2305	2	0	105	2	2	5	3	4	0	1	0	0.45076	1	0.5	0	25	67	88	0
10-Apr-13	2305	2305	2	0	106	2	2	2	6	6	1	2	1	0.35985	1	0.5	0	22	60	61	0
10-Apr-13	2305	2305	2	0	107	2	2	2	6	6	1	2	1	0.4022	1	0.5	0	22	60	61	0
10-Apr-13	2305	2305	2	0	108	2	2	4	2	2	0	2	0	0.39969	1	0.5	0	24	64	89	0
10-Apr-13	2305	2305	2	0	109	2	2	4	2	2	1	2	1	0.37911	1	0.5	0	24	62	63	0
10-Apr-13	2305	2305	2	0	110	2	2	3	5	6	1	1	1	0.04414	1	0.5	0	23	62	63	0
10-Apr-13	2305	2305	2	0	111	2	2	1	4	6	1	1	1	0.11167	1	0.5	0	21	60	61	0
10-Apr-13	2305	2305	2	0	112	2	2	5	3	4	0	2	1	0.33213	0	0.5	0	25	87	68	0
10-Apr-13	2305	2305	2	0	113	2	2	3	5	6	1	2	0	0.08786	0	0.5	0	23	82	83	0
10-Apr-13	2305	2305	2	0	114	2	2	4	2	2	1	1	0	0.09524	0	0.5	0	24	82	83	0
10-Apr-13	2305	2305	2	0	115	2	2	6	1	4	0	1	1	0.00693	0	0.5	0	26	87	68	0
10-Apr-13	2305	2305	2	0	116	2	2	2	6	6	1	2	1	0.01637	1	0.5	0	22	60	61	0
10-Apr-13	2305	2305	2	0	117	2	2	4	2	2	1	1	0	0.35623	0	0.5	0	24	82	83	0
10-Apr-13	2305	2305	2	0	118	2	2	2	6	6	1	2	1	0.00344	1	0.5	0	22	60	61	0
10-Apr-13	2305	2305	2	0	119	2	2	5	3	4	0	2	1	0.08558	0	0.5	0	25	87	68	0
10-Apr-13	2305	2305	2	0	120	2	2	6	1	4	1	2	1	0.04973	1	0.5	0	26	65	66	0
10-Apr-13	2305	2305	2	0	121	2	2	3	5	6	1	2	0	0.41452	0	0.5	0	23	82	83	0
10-Apr-13	2305	2305	2	0	122	2	2	2	6	6	1	2	1	0.31587	1	0.5	0	22	60	61	0
10-Apr-13	2305	2305	2	0	123	2	2	1	4	6	1	2	0	0.36496	0	0.5	0	21	80	81	0
10-Apr-13	2305	2305	2	0	124	2	2	4	2	2	0	2	0	0.42286	1	0.5	0	24	64	89	0
10-Apr-13	2305	2305	2	0	125	2	2	5	3	4	0	1	0	0.2796	1	0.5	0	25	67	88	0
10-Apr-13	2305	2305	2	0	126	2	2	1	4	6	1	2	0	0.36079	0	0.5	0	21	80	81	0
10-Apr-13	2305	2305	2	0	127	2	2	1	4	6	1	1	1	0.3585	1	0.5	0	21	60	61	0
10-Apr-13	2305	2305	2	0	128	2	2	5	3	4	0	1	0	0.34689	1	0.5	0	25	67	88	0
10-Apr-13	2305	2305	2	0	129	2	2	5	3	4	0	1	0	0.40301	1	0.5	0	25	67	88	0
10-Apr-13	2305	2305	2	0	130	2	2	4	2	2	1	2	1	0.08954	1	0.5	0	24	62	63	0
10-Apr-13	2305	2305	2	0	131	2	2	5	3	4	0	2	1	0.46846	0	0.5	0	25	87	68	0
10-Apr-13	2305	2305	2	0	132	2	2	6	1	4	0	1	1	0.43488	0	0.5	0	26	87	68	0
10-Apr-13	2305	2305	2	0	133	2	2	6	1	4	0	2	0	0.06576	1	0.5	0	26	67	88	0
10-Apr-13	2305	2305	2	0	134	2	2	3	5	6	1	2	0	0.46553	0	0.5	0	23	82	83	0
10-Apr-13	2305	2305	2	0	135	2	2	1	4	6	1	2	0	0.28152	0	0.4	0	21	80	81	0
10-Apr-13	2305	2305	2	0	136	2	2	5	3	4	0	2	1	0.10232	0	0.4	0	25	87	68	0
10-Apr-13	2305	2305	2	0	137	2	2	5	3	4	0	2	1	0.45146	0	0.4	1	25	87	51	0
10-Apr-13	2305	2305	2	0	138	2	2	3	5	6	1	2	0	0.00287	0	0.5	0	23	82	83	0
10-Apr-13	2305	2305	2	0	139	2	2	2	6	6	1	2	1	0.04268	1	0.5	0	22	60	61	0
10-Apr-13	2305	2305	2	0	140	2	2	3	5	6	1	2	0	0.43682	0	0.5	0	23	82	83	0
10-Apr-13	2305	2305	2	0	141	2	2	2	6	6	1	2	1	0.08361	1	0.5	0	22	60	61	0
10-Apr-13	2305	2305	2	0	142	2	2	6	1	4	1	2	1	0.10188	1	0.5	0	26	65	66	0
10-Apr-13	2305	2305	2	0	143	2	2	6	1	4	0	2	0	0.00611	1	0.5	0	26	67	88	0
10-Apr-13	2305	2305	2	0	144	2	2	4	2	2	1	1	0	0.13683	0	0.5	0	24	82	83	0
10-Apr-13	2305	2305	2	0	145	2	2	5	3	4	0	2	1	0.0148	0	0.5	0	25	87	68	0
10-Apr-13	2305	2305	2	0	146	2	2	4	2	2	1	2	1	0.4743	1	0.5	0	24	62	63	0
10-Apr-13	2305	2305	2	0	147	2	2	4	2	2	1	2	1	0.40378	1	0.5	0	24	62	63	0
10-Apr-13	2305	2305	2	0	148	2	2	1	4	6	1	1	1	0.03952	1	0.5	0	21	60	61	0
10-Apr-13	2305	2305	2	0	149	2	2	3	5	6	1	2	0	0.1882	0	0.5	0	23	82	83	0
10-Apr-13	2305	2305	2	0	150	2	2	1	4	6	1	2	0	0.23769	0	0.5	0	21	80	81	0
10-Apr-13	2305	2305	2	0	1	3	1	6	2	3	0	2	0	0.48615	1	0.6	0	16	37	48	0
10-Apr-13	2305	2305	2	0	2	3	1	4	6	4	1	2	1	0.06182	1	0.3	0	14	32	33	0
10-Apr-13	2305	2305	2	0	3	3	1	2	1	1	1	1	0	0.07974	0	0.3	0	12	40	41	0
10-Apr-13	2305	2305	2	0	4	3	1	1	4	5	1	1	1	0.1647	1	0.3	0	11	30	31	0
10-Apr-13	2305	2305	2	0	5	3	1	6	2	3	0	2	0	0.05414	1	0.3	0	16	37	48	0
10-Apr-13	2305	2305	2	0	6	3	1	6	2	3	0	1	1	0.49609	0	0.3	1	16	47	51	0
10-Apr-13	2305	2305	2	0	7	3	1	2	1	1	1	2	1	0.06876	1	0.9	0	12	30	31	0
10-Apr-13	2305	2305	2	0	8	3	1	2	1	1	1	2	1	0.02826	1	0.9	0	12	30	31	0
10-Apr-13	2305	2305	2	0	9	3	1	2	1	1	1	2	1	0.42767	1	0.9	0	12	30	31	0
10-Apr-13	2305	2305	2	0	10	3	1	3	5	5	1	1	1	0.48049	1	0.9	0	13	32	33	0
10-Apr-13	2305	2305	2	0	11	3	1	3	5	5	1	1	1	0.05908	1	0.9	0	13	32	33	0
10-Apr-13	2305	2305	2	0	12	3	1	4	6	4	1	1	0	0.38934	0	0.9	0	14	42	43	0
10-Apr-13	2305	2305	2	0	13	3	1	1	4	5	1	1	1	0.4983	1	0.9	0	11	30	31	0
10-Apr-13	2305	2305	2	0	14	3	1	6	2	3	0	1	1	0.08279	0	0.9	0	16	47	38	0
10-Apr-13	2305	2305	2	0	15	3	1	6	2	3	1	1	0	0.4191	0	0.9	0	16	45	46	0
10-Apr-13	2305	2305	2	0	16	3	1	1	4	5	1	1	1	0.42033	1	0.8	0	11	30	31	0
10-Apr-13	2305	2305	2	0	17	3	1	5	3	2	1	1	1	0.08138	1	0.8	0	15	35	36	0
10-Apr-13	2305	2305	2	0	18	3	1	1	4	5	1	1	1	0.4758	1	0.7	0	11	30	31	0
10-Apr-13	2305	2305	2	0	19	3	1	5	3	2	1	1	1	0.38468	1	0.7	0	15	35	36	0
10-Apr-13	2305	2305	2	0	20	3	1	4	6	4	1	2	1	0.12149	1	0.7	0	14	32	33	0
10-Apr-13	2305	2305	2	0	21	3	1	1	4	5	1	1	1	0.48495	1	0.6	0	11	30	31	0
10-Apr-13	2305	2305	2	0	22	3	1	3	5	5	1	1	1	0.0755	1	0.6	0	13	32	33	0
10-Apr-13	2305	2305	2	0	23	3	1	3	5	5	1	1	1	0.42745	1	0.6	0	13	32	33	0
10-Apr-13	2305	2305	2	0	24	3	1	5	3	2	0	1	0	0.27812	1	0.6	0	15	37	48	0
10-Apr-13	2305	2305	2	0	25	3	1	3	5	5	1	1	1	0.42525	1	0.6	0	13	32	33	0
10-Apr-13	2305	2305	2	0	26	3	1	2	1	1	1	1	0	0.40072	0	0.5	0	12	40	41	0
10-Apr-13	2305	2305	2	0	27	3	1	1	4	5	1	1	1	0.48429	1	0.5	0	11	30	31	0
10-Apr-13	2305	2305	2	0	28	3	1	6	2	3	1	2	1	0.06053	1	0.5	0	16	35	36	0
10-Apr-13	2305	2305	2	0	29	3	1	3	5	5	1	1	1	0.46263	1	0.5	0	13	32	33	0
10-Apr-13	2305	2305	2	0	30	3	1	5	3	2	1	1	1	0.49209	1	0.5	0	15	35	36	0
10-Apr-13	2305	2305	2	0	31	3	1	1	4	5	1	1	1	0.43023	1	0.5	0	11	30	31	0
10-Apr-13	2305	2305	2	0	32	3	1	4	6	4	1	2	1	0.0072	1	0.5	0	14	32	33	0
10-Apr-13	2305	2305	2	0	33	3	1	5	3	2	0	1	0	0.06531	1	0.5	0	15	37	48	0
10-Apr-13	2305	2305	2	0	34	3	1	2	1	1	1	2	1	0.04718	1	0.5	0	12	30	31	0
10-Apr-13	2305	2305	2	0	35	3	1	2	1	1	1	2	1	0.0747	1	0.4	0	12	30	31	0
10-Apr-13	2305	2305	2	0	36	3	1	5	3	2	1	0	0	0	0	0.4	1	15	0	51	0
10-Apr-13	2305	2305	2	0	37	3	1	5	3	2	1	1	1	0.37309	1	0.7	0	15	35	36	0
10-Apr-13	2305	2305	2	0	38	3	1	3	5	5	1	1	1	0.00783	1	0.7	0	13	32	33	0
10-Apr-13	2305	2305	2	0	39	3	1	1	4	5	1	1	1	0.0247	1	0.7	0	11	30	31	0
10-Apr-13	2305	2305	2	0	40	3	1	2	1	1	1	2	1	0.05838	1	0.7	0	12	30	31	0
10-Apr-13	2305	2305	2	0	41	3	1	6	2	3	0	1	1	0.48609	0	0.6	0	16	47	38	0
10-Apr-13	2305	2305	2	0	42	3	1	1	4	5	1	1	1	0.41387	1	0.6	0	11	30	31	0
10-Apr-13	2305	2305	2	0	43	3	1	4	6	4	1	2	1	0.07064	1	0.6	0	14	32	33	0
10-Apr-13	2305	2305	2	0	44	3	1	3	5	5	1	1	1	0.4176	1	0.6	0	13	32	33	0
10-Apr-13	2305	2305	2	0	45	3	1	4	6	4	0	1	1	0.41953	0	0.6	0	14	44	39	0
10-Apr-13	2305	2305	2	0	46	3	1	1	4	5	1	1	1	0.28663	1	0.6	0	11	30	31	0
10-Apr-13	2305	2305	2	0	47	3	1	4	6	4	1	2	1	0.15675	1	0.6	0	14	32	33	0
10-Apr-13	2305	2305	2	0	48	3	1	6	2	3	1	1	0	0.40813	0	0.6	0	16	45	46	0
10-Apr-13	2305	2305	2	0	49	3	1	5	3	2	0	1	0	0.45764	1	0.6	0	15	37	48	0
10-Apr-13	2305	2305	2	0	50	3	1	2	1	1	1	1	0	0.4431	0	0.6	0	12	40	41	0
10-Apr-13	2305	2305	2	0	51	3	1	6	2	3	0	1	1	0.01458	0	0.5	0	16	47	38	0
10-Apr-13	2305	2305	2	0	52	3	1	6	2	3	0	1	1	0.06455	0	0.5	0	16	47	38	0
10-Apr-13	2305	2305	2	0	53	3	1	4	6	4	1	2	1	0.0112	1	0.5	0	14	32	33	0
10-Apr-13	2305	2305	2	0	54	3	1	3	5	5	1	1	1	0.12342	1	0.5	0	13	32	33	0
10-Apr-13	2305	2305	2	0	55	3	1	2	1	1	1	2	1	0.05082	1	0.5	0	12	30	31	0
10-Apr-13	2305	2305	2	0	56	3	1	4	6	4	1	2	1	0.0698	1	0.5	0	14	32	33	0
10-Apr-13	2305	2305	2	0	57	3	1	5	3	2	0	1	0	0.48021	1	0.5	0	15	37	48	0
10-Apr-13	2305	2305	2	0	58	3	1	3	5	5	0	1	0	0.38966	1	0.5	0	13	34	49	0
10-Apr-13	2305	2305	2	0	59	3	1	1	4	5	1	2	0	0.45576	0	0.5	0	11	40	41	0
10-Apr-13	2305	2305	2	0	60	3	1	5	3	2	1	1	1	0.45945	1	0.5	0	15	35	36	0
10-Apr-13	2305	2305	2	0	61	3	1	2	1	1	1	2	1	0.4829	1	0.5	0	12	30	31	0
10-Apr-13	2305	2305	2	0	62	3	1	5	3	2	0	1	0	0.12395	1	0.5	0	15	37	48	0
10-Apr-13	2305	2305	2	0	63	3	1	5	3	2	0	1	0	0.02166	1	0.5	0	15	37	48	0
10-Apr-13	2305	2305	2	0	64	3	1	2	1	1	1	2	1	0.49765	1	0.5	0	12	30	31	0
10-Apr-13	2305	2305	2	0	65	3	1	1	4	5	1	1	1	0.42937	1	0.5	0	11	30	31	0
10-Apr-13	2305	2305	2	0	66	3	1	6	2	3	1	2	1	0.08402	1	0.5	0	16	35	36	0
10-Apr-13	2305	2305	2	0	67	3	1	3	5	5	0	1	0	0.14138	1	0.5	0	13	34	49	0
10-Apr-13	2305	2305	2	0	68	3	1	2	1	1	1	1	0	0.25688	0	0.4	0	12	40	41	0
10-Apr-13	2305	2305	2	0	69	3	1	6	2	3	1	2	1	0.4563	1	0.4	1	16	35	51	0
10-Apr-13	2305	2305	2	0	70	3	1	3	5	5	1	1	1	0.47896	1	0.6	0	13	32	33	0
10-Apr-13	2305	2305	2	0	71	3	1	3	5	5	0	1	0	0.46115	1	0.6	0	13	34	49	0
10-Apr-13	2305	2305	2	0	72	3	1	6	2	3	1	1	0	0.41525	0	0.6	0	16	45	46	0
10-Apr-13	2305	2305	2	0	73	3	1	4	6	4	0	2	0	0.06302	1	0.6	0	14	34	49	0
10-Apr-13	2305	2305	2	0	74	3	1	4	6	4	1	2	1	0.44151	1	0.6	0	14	32	33	0
10-Apr-13	2305	2305	2	0	75	3	1	4	6	4	1	2	1	0.47413	1	0.6	0	14	32	33	0
10-Apr-13	2305	2305	2	0	76	3	2	1	4	5	1	1	1	0.49135	1	0.5	0	21	60	61	0
10-Apr-13	2305	2305	2	0	77	3	2	2	1	1	1	2	1	0.48565	1	0.5	0	22	60	61	0
10-Apr-13	2305	2305	2	0	78	3	2	2	1	1	1	2	1	0.02208	1	0.5	0	22	60	61	0
10-Apr-13	2305	2305	2	0	79	3	2	2	1	1	1	2	1	0.42432	1	0.5	0	22	60	61	0
10-Apr-13	2305	2305	2	0	80	3	2	6	2	3	0	2	0	0.07847	1	0.5	0	26	67	88	0
10-Apr-13	2305	2305	2	0	81	3	2	5	3	2	0	1	0	0.02188	1	0.5	0	25	67	88	0
10-Apr-13	2305	2305	2	0	82	3	2	6	2	3	0	2	0	0.01531	1	0.5	0	26	67	88	0
10-Apr-13	2305	2305	2	0	83	3	2	3	5	5	1	1	1	0.35231	1	0.5	0	23	62	63	0
10-Apr-13	2305	2305	2	0	84	3	2	6	2	3	1	1	0	0.38685	0	0.5	0	26	85	86	0
10-Apr-13	2305	2305	2	0	85	3	2	6	2	3	1	2	1	0.48357	1	0.5	0	26	65	66	0
10-Apr-13	2305	2305	2	0	86	3	2	5	3	2	0	1	0	0.37976	1	0.5	0	25	67	88	0
10-Apr-13	2305	2305	2	0	87	3	2	2	1	1	1	2	1	0.03742	1	0.5	0	22	60	61	0
10-Apr-13	2305	2305	2	0	88	3	2	4	6	4	1	2	1	0.03989	1	0.5	0	24	62	63	0
10-Apr-13	2305	2305	2	0	89	3	2	2	1	1	1	2	1	0.45781	1	0.5	0	22	60	61	0
10-Apr-13	2305	2305	2	0	90	3	2	5	3	2	0	2	1	0.29403	0	0.5	0	25	87	68	0
10-Apr-13	2305	2305	2	0	91	3	2	4	6	4	1	2	1	0.0703	1	0.5	0	24	62	63	0
10-Apr-13	2305	2305	2	0	92	3	2	1	4	5	1	1	1	0.00365	1	0.5	0	21	60	61	0
10-Apr-13	2305	2305	2	0	93	3	2	1	4	5	1	1	1	0.4473	1	0.5	0	21	60	61	0
10-Apr-13	2305	2305	2	0	94	3	2	3	5	5	1	1	1	0.09232	1	0.5	0	23	62	63	0
10-Apr-13	2305	2305	2	0	95	3	2	3	5	5	1	1	1	0.07108	1	0.5	0	23	62	63	0
10-Apr-13	2305	2305	2	0	96	3	2	3	5	5	1	1	1	0.35763	1	0.5	0	23	62	63	0
10-Apr-13	2305	2305	2	0	97	3	2	4	6	4	1	2	1	0.4646	1	0.5	0	24	62	63	0
10-Apr-13	2305	2305	2	0	98	3	2	5	3	2	0	1	0	0.46803	1	0.5	0	25	67	88	0
10-Apr-13	2305	2305	2	0	99	3	2	3	5	5	1	1	1	0.35071	1	0.5	0	23	62	63	0
10-Apr-13	2305	2305	2	0	100	3	2	1	4	5	1	1	1	0.38518	1	0.5	0	21	60	61	0
10-Apr-13	2305	2305	2	0	101	3	2	3	5	5	0	1	0	0.01444	1	0.4	0	23	64	89	0
10-Apr-13	2305	2305	2	0	102	3	2	5	3	2	0	1	0	0.04962	1	0.4	0	25	67	88	0
10-Apr-13	2305	2305	2	0	103	3	2	3	5	5	0	1	0	0.45486	1	0.4	1	23	64	51	0
10-Apr-13	2305	2305	2	0	104	3	2	3	5	5	1	1	1	0.402	1	0.5	0	23	62	63	0
10-Apr-13	2305	2305	2	0	105	3	2	2	1	1	1	2	1	0.01073	1	0.5	0	22	60	61	0
10-Apr-13	2305	2305	2	0	106	3	2	6	2	3	0	2	0	0.07481	1	0.5	0	26	67	88	0
10-Apr-13	2305	2305	2	0	107	3	2	6	2	3	1	2	1	0.46678	1	0.5	0	26	65	66	0
10-Apr-13	2305	2305	2	0	108	3	2	2	1	1	1	2	1	0.03094	1	0.5	0	22	60	61	0
10-Apr-13	2305	2305	2	0	109	3	2	4	6	4	1	2	1	0.49452	1	0.5	0	24	62	63	0
10-Apr-13	2305	2305	2	0	110	3	2	4	6	4	0	2	0	0.06309	1	0.5	0	24	64	89	0
10-Apr-13	2305	2305	2	0	111	3	2	2	1	1	1	2	1	0.12211	1	0.5	0	22	60	61	0
10-Apr-13	2305	2305	2	0	112	3	2	6	2	3	1	2	1	0.18691	1	0.5	0	26	65	66	0
10-Apr-13	2305	2305	2	0	113	3	2	1	4	5	1	1	1	0.45682	1	0.5	0	21	60	61	0
10-Apr-13	2305	2305	2	0	114	3	2	6	2	3	0	1	1	0.3157	0	0.5	0	26	87	68	0
10-Apr-13	2305	2305	2	0	115	3	2	1	4	5	1	1	1	0.45114	1	0.5	0	21	60	61	0
10-Apr-13	2305	2305	2	0	116	3	2	2	1	1	1	2	1	0.02195	1	0.5	0	22	60	61	0
10-Apr-13	2305	2305	2	0	117	3	2	4	6	4	1	2	1	0.39777	1	0.5	0	24	62	63	0
10-Apr-13	2305	2305	2	0	118	3	2	5	3	2	0	1	0	0.47646	1	0.5	0	25	67	88	0
10-Apr-13	2305	2305	2	0	119	3	2	3	5	5	1	1	1	0.31158	1	0.5	0	23	62	63	0
10-Apr-13	2305	2305	2	0	120	3	2	6	2	3	0	2	0	0.08763	1	0.5	0	26	67	88	0
10-Apr-13	2305	2305	2	0	121	3	2	5	3	2	0	2	1	0.39107	0	0.5	0	25	87	68	0
10-Apr-13	2305	2305	2	0	122	3	2	1	4	5	1	1	1	0.27799	1	0.5	0	21	60	61	0
10-Apr-13	2305	2305	2	0	123	3	2	1	4	5	1	1	1	0.38731	1	0.5	0	21	60	61	0
10-Apr-13	2305	2305	2	0	124	3	2	4	6	4	1	1	0	0.38421	0	0.5	0	24	82	83	0
10-Apr-13	2305	2305	2	0	125	3	2	4	6	4	1	0	0	0	0	0.5	1	24	0	51	0
10-Apr-13	2305	2305	2	0	126	3	2	2	1	1	1	2	1	0.45841	1	0.5	0	22	60	61	0
10-Apr-13	2305	2305	2	0	127	3	2	4	6	4	0	2	0	0.10578	1	0.5	0	24	64	89	0
10-Apr-13	2305	2305	2	0	128	3	2	3	5	5	1	1	1	0.0182	1	0.5	0	23	62	63	0
10-Apr-13	2305	2305	2	0	129	3	2	1	4	5	1	1	1	0.14827	1	0.5	0	21	60	61	0
10-Apr-13	2305	2305	2	0	130	3	2	5	3	2	0	2	1	0.44836	0	0.5	0	25	87	68	0
10-Apr-13	2305	2305	2	0	131	3	2	4	6	4	0	1	1	0.38338	0	0.5	0	24	84	69	0
10-Apr-13	2305	2305	2	0	132	3	2	5	3	2	0	1	0	0.39436	1	0.5	0	25	67	88	0
10-Apr-13	2305	2305	2	0	133	3	2	4	6	4	1	1	0	0.38004	0	0.5	0	24	82	83	0
10-Apr-13	2305	2305	2	0	134	3	2	1	4	5	1	1	1	0.37207	1	0.5	0	21	60	61	0
10-Apr-13	2305	2305	2	0	135	3	2	1	4	5	1	1	1	0.48467	1	0.5	0	21	60	61	0
10-Apr-13	2305	2305	2	0	136	3	2	2	1	1	1	2	1	0.00034	1	0.5	0	22	60	61	0
10-Apr-13	2305	2305	2	0	137	3	2	4	6	4	1	2	1	0.02664	1	0.5	0	24	62	63	0
10-Apr-13	2305	2305	2	0	138	3	2	5	3	2	0	1	0	0.07859	1	0.5	0	25	67	88	0
10-Apr-13	2305	2305	2	0	139	3	2	1	4	5	1	1	1	0.25646	1	0.5	0	21	60	61	0
10-Apr-13	2305	2305	2	0	140	3	2	5	3	2	0	2	1	0.35656	0	0.5	0	25	87	68	0
10-Apr-13	2305	2305	2	0	141	3	2	6	2	3	1	2	1	0.03273	1	0.5	0	26	65	66	0
10-Apr-13	2305	2305	2	0	142	3	2	6	2	3	1	2	1	0.47788	1	0.5	0	26	65	66	0
10-Apr-13	2305	2305	2	0	143	3	2	5	3	2	0	1	0	0.12653	1	0.5	0	25	67	88	0
10-Apr-13	2305	2305	2	0	144	3	2	5	3	2	0	2	1	0.41025	0	0.5	0	25	87	68	0
10-Apr-13	2305	2305	2	0	145	3	2	2	1	1	1	1	0	0.37774	0	0.5	0	22	80	81	0
10-Apr-13	2305	2305	2	0	146	3	2	3	5	5	1	1	1	0.0309	1	0.5	0	23	62	63	0
10-Apr-13	2305	2305	2	0	147	3	2	6	2	3	0	2	0	0.01773	1	0.5	0	26	67	88	0
10-Apr-13	2305	2305	2	0	148	3	2	4	6	4	1	2	1	0.40242	1	0.5	0	24	62	63	0
10-Apr-13	2305	2305	2	0	149	3	2	3	5	5	1	1	1	0.45812	1	0.5	0	23	62	63	0
10-Apr-13	2305	2305	2	0	150	3	2	1	4	5	1	1	1	0.02004	1	0.5	0	21	60	61	0
10-Apr-13	2305	2305	2	0	1	4	1	4	4	4	1	1	0	0.32746	0	0.6	0	14	42	43	0
10-Apr-13	2305	2305	2	0	2	4	1	4	4	4	1	2	1	0.47681	1	0.3	1	14	32	51	0
10-Apr-13	2305	2305	2	0	3	4	1	5	3	1	1	1	1	0.41493	1	0.9	0	15	35	36	0
10-Apr-13	2305	2305	2	0	4	4	1	5	3	1	1	1	1	0.41239	1	0.9	0	15	35	36	0
10-Apr-13	2305	2305	2	0	5	4	1	2	2	6	1	2	1	0.48951	1	0.9	0	12	30	31	0
10-Apr-13	2305	2305	2	0	6	4	1	5	3	1	0	1	0	0.38629	1	0.9	0	15	37	48	0
10-Apr-13	2305	2305	2	0	7	4	1	3	6	2	1	1	1	0.01466	1	0.9	0	13	32	33	0
10-Apr-13	2305	2305	2	0	8	4	1	4	4	4	1	2	1	0.03263	1	0.9	0	14	32	33	0
10-Apr-13	2305	2305	2	0	9	4	1	6	1	5	0	2	0	0.06438	1	0.9	0	16	37	48	0
10-Apr-13	2305	2305	2	0	10	4	1	2	2	6	1	2	1	0.03962	1	0.9	0	12	30	31	0
10-Apr-13	2305	2305	2	0	11	4	1	6	1	5	1	1	0	0.32519	0	0.9	0	16	45	46	0
10-Apr-13	2305	2305	2	0	12	4	1	5	3	1	0	1	0	0.37657	1	0.9	0	15	37	48	0
10-Apr-13	2305	2305	2	0	13	4	1	1	5	4	1	2	0	0.49626	0	0.9	0	11	40	41	0
10-Apr-13	2305	2305	2	0	14	4	1	3	6	2	1	1	1	0.37775	1	0.9	0	13	32	33	0
10-Apr-13	2305	2305	2	0	15	4	1	4	4	4	0	2	0	0.04479	1	0.9	0	14	34	49	0
10-Apr-13	2305	2305	2	0	16	4	1	1	5	4	1	2	0	0.06391	0	0.8	0	11	40	41	0
10-Apr-13	2305	2305	2	0	17	4	1	6	1	5	1	1	0	0.04356	0	0.8	0	16	45	46	0
10-Apr-13	2305	2305	2	0	18	4	1	1	5	4	1	1	1	0.45536	1	0.7	0	11	30	31	0
10-Apr-13	2305	2305	2	0	19	4	1	4	4	4	1	2	1	0.44363	1	0.7	0	14	32	33	0
10-Apr-13	2305	2305	2	0	20	4	1	5	3	1	1	1	1	0.01235	1	0.7	0	15	35	36	0
10-Apr-13	2305	2305	2	0	21	4	1	1	5	4	1	2	0	0.45115	0	0.6	0	11	40	41	0
10-Apr-13	2305	2305	2	0	22	4	1	2	2	6	1	2	1	0.48299	1	0.6	0	12	30	31	0
10-Apr-13	2305	2305	2	0	23	4	1	5	3	1	1	2	0	0.32305	0	0.6	0	15	45	46	0
10-Apr-13	2305	2305	2	0	24	4	1	4	4	4	1	1	0	0.23333	0	0.6	0	14	42	43	0
10-Apr-13	2305	2305	2	0	25	4	1	2	2	6	1	2	1	0.43232	1	0.6	0	12	30	31	0
10-Apr-13	2305	2305	2	0	26	4	1	2	2	6	1	2	1	0.44868	1	0.5	0	12	30	31	0
10-Apr-13	2305	2305	2	0	27	4	1	4	4	4	1	2	1	0.08171	1	0.5	0	14	32	33	0
10-Apr-13	2305	2305	2	0	28	4	1	3	6	2	1	1	1	0.47778	1	0.5	0	13	32	33	0
10-Apr-13	2305	2305	2	0	29	4	1	1	5	4	1	2	0	0.45416	0	0.5	0	11	40	41	0
10-Apr-13	2305	2305	2	0	30	4	1	6	1	5	0	1	1	0.46772	0	0.5	0	16	47	38	0
10-Apr-13	2305	2305	2	0	31	4	1	1	5	4	1	1	1	0.40894	1	0.5	0	11	30	31	0
10-Apr-13	2305	2305	2	0	32	4	1	2	2	6	1	2	1	0.03248	1	0.5	0	12	30	31	0
10-Apr-13	2305	2305	2	0	33	4	1	4	4	4	0	2	0	0.0563	1	0.5	0	14	34	49	0
10-Apr-13	2305	2305	2	0	34	4	1	6	1	5	0	2	0	0.38574	1	0.5	0	16	37	48	0
10-Apr-13	2305	2305	2	0	35	4	1	2	2	6	1	2	1	0.08384	1	0.4	0	12	30	31	0
10-Apr-13	2305	2305	2	0	36	4	1	4	4	4	1	2	1	0.06596	1	0.4	0	14	32	33	0
10-Apr-13	2305	2305	2	0	37	4	1	2	2	6	1	2	1	0.03992	1	0.4	0	12	30	31	0
10-Apr-13	2305	2305	2	0	38	4	1	5	3	1	0	1	0	0.4557	1	0.4	1	15	37	51	0
10-Apr-13	2305	2305	2	0	39	4	1	2	2	6	1	2	1	0.44931	1	0.7	0	12	30	31	0
10-Apr-13	2305	2305	2	0	40	4	1	3	6	2	1	1	1	0.467	1	0.7	0	13	32	33	0
10-Apr-13	2305	2305	2	0	41	4	1	1	5	4	1	2	0	0.46404	0	0.6	0	11	40	41	0
10-Apr-13	2305	2305	2	0	42	4	1	6	1	5	0	1	1	0.08351	0	0.6	0	16	47	38	0
10-Apr-13	2305	2305	2	0	43	4	1	6	1	5	0	1	1	0.14784	0	0.6	0	16	47	38	0
10-Apr-13	2305	2305	2	0	44	4	1	3	6	2	1	1	1	0.01143	1	0.6	0	13	32	33	0
10-Apr-13	2305	2305	2	0	45	4	1	2	2	6	1	2	1	0.41906	1	0.6	0	12	30	31	0
10-Apr-13	2305	2305	2	0	46	4	1	1	5	4	1	2	0	0.39587	0	0.6	0	11	40	41	0
10-Apr-13	2305	2305	2	0	47	4	1	1	5	4	1	2	0	0.41425	0	0.6	0	11	40	41	0
10-Apr-13	2305	2305	2	0	48	4	1	3	6	2	1	1	1	0.03733	1	0.6	0	13	32	33	0
10-Apr-13	2305	2305	2	0	49	4	1	1	5	4	1	1	1	0.38146	1	0.6	0	11	30	31	0
10-Apr-13	2305	2305	2	0	50	4	1	5	3	1	1	1	1	0.4752	1	0.6	0	15	35	36	0
10-Apr-13	2305	2305	2	0	51	4	1	2	2	6	1	2	1	0.01205	1	0.5	0	12	30	31	0
10-Apr-13	2305	2305	2	0	52	4	1	6	1	5	1	1	0	0.09663	0	0.5	0	16	45	46	0
10-Apr-13	2305	2305	2	0	53	4	1	2	2	6	1	2	1	0.0669	1	0.5	0	12	30	31	0
10-Apr-13	2305	2305	2	0	54	4	1	5	3	1	0	2	1	0.37717	0	0.5	0	15	47	38	0
10-Apr-13	2305	2305	2	0	55	4	1	4	4	4	1	1	0	0.2993	0	0.5	0	14	42	43	0
10-Apr-13	2305	2305	2	0	56	4	1	2	2	6	1	2	1	0.28645	1	0.5	0	12	30	31	0
10-Apr-13	2305	2305	2	0	57	4	1	1	5	4	1	2	0	0.28038	0	0.5	0	11	40	41	0
10-Apr-13	2305	2305	2	0	58	4	1	3	6	2	0	1	0	0.48137	1	0.5	0	13	34	49	0
10-Apr-13	2305	2305	2	0	59	4	1	3	6	2	1	1	1	0.41304	1	0.5	0	13	32	33	0
10-Apr-13	2305	2305	2	0	60	4	1	6	1	5	1	0	0	0	0	0.5	1	16	0	51	0
10-Apr-13	2305	2305	2	0	61	4	1	3	6	2	0	1	0	0.48324	1	0.6	0	13	34	49	0
10-Apr-13	2305	2305	2	0	62	4	1	5	3	1	1	1	1	0.36633	1	0.6	0	15	35	36	0
10-Apr-13	2305	2305	2	0	63	4	1	1	5	4	1	2	0	0.33615	0	0.6	0	11	40	41	0
10-Apr-13	2305	2305	2	0	64	4	1	3	6	2	1	2	0	0.43228	0	0.6	0	13	42	43	0
10-Apr-13	2305	2305	2	0	65	4	1	4	4	4	1	1	0	0.26826	0	0.6	0	14	42	43	0
10-Apr-13	2305	2305	2	0	66	4	1	3	6	2	1	1	1	0.42936	1	0.6	0	13	32	33	0
10-Apr-13	2305	2305	2	0	67	4	1	5	3	1	0	1	0	0.42207	1	0.6	0	15	37	48	0
10-Apr-13	2305	2305	2	0	68	4	1	6	1	5	0	1	1	0.02096	0	0.6	0	16	47	38	0
10-Apr-13	2305	2305	2	0	69	4	1	6	1	5	1	1	0	0.05644	0	0.6	0	16	45	46	0
10-Apr-13	2305	2305	2	0	70	4	1	6	1	5	0	1	1	0.45545	0	0.6	0	16	47	38	0
10-Apr-13	2305	2305	2	0	71	4	1	4	4	4	1	2	1	0.36531	1	0.6	0	14	32	33	0
10-Apr-13	2305	2305	2	0	72	4	1	6	1	5	0	1	1	0.45794	0	0.6	0	16	47	38	0
10-Apr-13	2305	2305	2	0	73	4	1	3	6	2	0	1	0	0.05235	1	0.6	0	13	34	49	0
10-Apr-13	2305	2305	2	0	74	4	1	5	3	1	1	2	0	0.07701	0	0.6	0	15	45	46	0
10-Apr-13	2305	2305	2	0	75	4	1	3	6	2	1	2	0	0.44711	0	0.6	0	13	42	43	0
10-Apr-13	2305	2305	2	0	76	4	2	5	3	1	0	1	0	0.28685	1	0.5	0	25	67	88	0
10-Apr-13	2305	2305	2	0	77	4	2	3	6	2	1	1	1	0.42849	1	0.5	0	23	62	63	0
10-Apr-13	2305	2305	2	0	78	4	2	6	1	5	1	1	0	0.05237	0	0.5	0	26	85	86	0
10-Apr-13	2305	2305	2	0	79	4	2	3	6	2	1	1	1	0.42892	1	0.5	0	23	62	63	0
10-Apr-13	2305	2305	2	0	80	4	2	6	1	5	1	2	1	0.43374	1	0.5	0	26	65	66	0
10-Apr-13	2305	2305	2	0	81	4	2	2	2	6	1	2	1	0.48844	1	0.5	0	22	60	61	0
10-Apr-13	2305	2305	2	0	82	4	2	1	5	4	1	1	1	0.39899	1	0.5	0	21	60	61	0
10-Apr-13	2305	2305	2	0	83	4	2	1	5	4	1	1	1	0.45576	1	0.5	0	21	60	61	0
10-Apr-13	2305	2305	2	0	84	4	2	3	6	2	0	1	0	0.49235	1	0.5	0	23	64	89	0
10-Apr-13	2305	2305	2	0	85	4	2	1	5	4	1	1	1	0.44038	1	0.5	0	21	60	61	0
10-Apr-13	2305	2305	2	0	86	4	2	5	3	1	0	2	1	0.06224	0	0.5	0	25	87	68	0
10-Apr-13	2305	2305	2	0	87	4	2	3	6	2	1	2	0	0.05155	0	0.5	0	23	82	83	0
10-Apr-13	2305	2305	2	0	88	4	2	3	6	2	1	1	1	0.4231	1	0.5	0	23	62	63	0
10-Apr-13	2305	2305	2	0	89	4	2	1	5	4	1	1	1	0.44966	1	0.5	0	21	60	61	0
10-Apr-13	2305	2305	2	0	90	4	2	6	1	5	0	1	1	0.00131	0	0.5	0	26	87	68	0
10-Apr-13	2305	2305	2	0	91	4	2	2	2	6	1	2	1	0.49436	1	0.5	0	22	60	61	0
10-Apr-13	2305	2305	2	0	92	4	2	6	1	5	1	2	1	0.4336	1	0.5	0	26	65	66	0
10-Apr-13	2305	2305	2	0	93	4	2	1	5	4	1	1	1	0.27441	1	0.5	0	21	60	61	0
10-Apr-13	2305	2305	2	0	94	4	2	1	5	4	1	1	1	0.07967	1	0.5	0	21	60	61	0
10-Apr-13	2305	2305	2	0	95	4	2	4	4	4	1	1	0	0.39087	0	0.5	0	24	82	83	0
10-Apr-13	2305	2305	2	0	96	4	2	5	3	1	0	1	0	0.38614	1	0.5	0	25	67	88	0
10-Apr-13	2305	2305	2	0	97	4	2	2	2	6	1	2	1	0.39132	1	0.5	0	22	60	61	0
10-Apr-13	2305	2305	2	0	98	4	2	5	3	1	0	2	1	0.43343	0	0.5	0	25	87	68	0
10-Apr-13	2305	2305	2	0	99	4	2	1	5	4	1	1	1	0.45293	1	0.5	0	21	60	61	0
10-Apr-13	2305	2305	2	0	100	4	2	6	1	5	1	2	1	0.10295	1	0.5	0	26	65	66	0
10-Apr-13	2305	2305	2	0	101	4	2	6	1	5	0	1	1	0.44771	0	0.4	1	26	87	51	0
10-Apr-13	2305	2305	2	0	102	4	2	5	3	1	0	1	0	0.46159	1	0.5	0	25	67	88	0
10-Apr-13	2305	2305	2	0	103	4	2	4	4	4	1	2	1	0.4453	1	0.5	0	24	62	63	0
10-Apr-13	2305	2305	2	0	104	4	2	1	5	4	1	2	0	0.44557	0	0.5	0	21	80	81	0
10-Apr-13	2305	2305	2	0	105	4	2	2	2	6	1	2	1	0.43892	1	0.5	0	22	60	61	0
10-Apr-13	2305	2305	2	0	106	4	2	2	2	6	1	2	1	0.47748	1	0.5	0	22	60	61	0
10-Apr-13	2305	2305	2	0	107	4	2	2	2	6	1	2	1	0.41474	1	0.5	0	22	60	61	0
10-Apr-13	2305	2305	2	0	108	4	2	4	4	4	1	1	0	0.44865	0	0.5	0	24	82	83	0
10-Apr-13	2305	2305	2	0	109	4	2	2	2	6	1	2	1	0.47394	1	0.5	0	22	60	61	0
10-Apr-13	2305	2305	2	0	110	4	2	5	3	1	0	1	0	0.44694	1	0.5	0	25	67	88	0
10-Apr-13	2305	2305	2	0	111	4	2	4	4	4	1	2	1	0.34127	1	0.5	0	24	62	63	0
10-Apr-13	2305	2305	2	0	112	4	2	4	4	4	0	2	0	0.01386	1	0.5	0	24	64	89	0
10-Apr-13	2305	2305	2	0	113	4	2	6	1	5	0	1	1	0.04276	0	0.5	0	26	87	68	0
10-Apr-13	2305	2305	2	0	114	4	2	2	2	6	1	2	1	0.48613	1	0.5	0	22	60	61	0
10-Apr-13	2305	2305	2	0	115	4	2	5	3	1	0	1	0	0.49386	1	0.5	0	25	67	88	0
10-Apr-13	2305	2305	2	0	116	4	2	4	4	4	0	2	0	0.02686	1	0.5	0	24	64	89	0
10-Apr-13	2305	2305	2	0	117	4	2	4	4	4	0	2	0	0.40995	1	0.5	0	24	64	89	0
10-Apr-13	2305	2305	2	0	118	4	2	5	3	1	0	1	0	0.44752	1	0.5	0	25	67	88	0
10-Apr-13	2305	2305	2	0	119	4	2	6	1	5	1	1	0	0.05743	0	0.5	0	26	85	86	0
10-Apr-13	2305	2305	2	0	120	4	2	4	4	4	1	1	0	0.47452	0	0.5	0	24	82	83	0
10-Apr-13	2305	2305	2	0	121	4	2	4	4	4	1	2	1	0.41694	1	0.5	0	24	62	63	0
10-Apr-13	2305	2305	2	0	122	4	2	2	2	6	1	2	1	0.48034	1	0.5	0	22	60	61	0
10-Apr-13	2305	2305	2	0	123	4	2	3	6	2	0	1	0	0.48769	1	0.5	0	23	64	89	0
10-Apr-13	2305	2305	2	0	124	4	2	5	3	1	0	2	1	0.0912	0	0.5	0	25	87	68	0
10-Apr-13	2305	2305	2	0	125	4	2	5	3	1	0	2	1	0.38777	0	0.5	0	25	87	68	0
10-Apr-13	2305	2305	2	0	126	4	2	5	3	1	0	2	1	0.37846	0	0.5	0	25	87	68	0
10-Apr-13	2305	2305	2	0	127	4	2	6	1	5	1	2	1	0.39784	1	0.5	0	26	65	66	0
10-Apr-13	2305	2305	2	0	128	4	2	5	3	1	0	2	1	0.44581	0	0.5	0	25	87	68	0
10-Apr-13	2305	2305	2	0	129	4	2	6	1	5	0	2	0	0.44351	1	0.5	0	26	67	88	0
10-Apr-13	2305	2305	2	0	130	4	2	4	4	4	1	2	1	0.08165	1	0.5	0	24	62	63	0
10-Apr-13	2305	2305	2	0	131	4	2	2	2	6	1	2	1	0.41076	1	0.5	0	22	60	61	0
10-Apr-13	2305	2305	2	0	132	4	2	3	6	2	1	2	0	0.43201	0	0.5	0	23	82	83	0
10-Apr-13	2305	2305	2	0	133	4	2	4	4	4	1	2	1	0.01287	1	0.5	0	24	62	63	0
10-Apr-13	2305	2305	2	0	134	4	2	3	6	2	1	2	0	0.46891	0	0.5	0	23	82	83	0
10-Apr-13	2305	2305	2	0	135	4	2	2	2	6	1	2	1	0.38318	1	0.4	0	22	60	61	0
10-Apr-13	2305	2305	2	0	136	4	2	1	5	4	1	2	0	0.49653	0	0.4	1	21	80	51	0
10-Apr-13	2305	2305	2	0	137	4	2	4	4	4	1	2	1	0.36504	1	0.5	0	24	62	63	0
10-Apr-13	2305	2305	2	0	138	4	2	6	1	5	0	1	1	0.08327	0	0.5	0	26	87	68	0
10-Apr-13	2305	2305	2	0	139	4	2	3	6	2	1	1	1	0.04013	1	0.5	0	23	62	63	0
10-Apr-13	2305	2305	2	0	140	4	2	1	5	4	1	1	1	0.00362	1	0.5	0	21	60	61	0
10-Apr-13	2305	2305	2	0	141	4	2	3	6	2	1	1	1	0.42067	1	0.5	0	23	62	63	0
10-Apr-13	2305	2305	2	0	142	4	2	4	4	4	1	2	1	0.02226	1	0.5	0	24	62	63	0
10-Apr-13	2305	2305	2	0	143	4	2	2	2	6	1	1	0	0.43459	0	0.5	0	22	80	81	0
10-Apr-13	2305	2305	2	0	144	4	2	5	3	1	0	1	0	0.12774	1	0.5	0	25	67	88	0
10-Apr-13	2305	2305	2	0	145	4	2	1	5	4	1	2	0	0.42102	0	0.5	0	21	80	81	0
10-Apr-13	2305	2305	2	0	146	4	2	1	5	4	1	1	1	0.43138	1	0.5	0	21	60	61	0
10-Apr-13	2305	2305	2	0	147	4	2	1	5	4	1	1	1	0.41509	1	0.5	0	21	60	61	0
10-Apr-13	2305	2305	2	0	148	4	2	6	1	5	0	1	1	0.09347	0	0.5	0	26	87	68	0
10-Apr-13	2305	2305	2	0	149	4	2	3	6	2	1	1	1	0.4873	1	0.5	0	23	62	63	0
10-Apr-13	2305	2305	2	0	150	4	2	3	6	2	1	1	1	0.42273	1	0.5	0	23	62	63	0
10-Apr-13	2305	2305	2	0	1	5	1	4	6	1	0	2	0	0.48241	1	0.6	0	14	34	49	0
10-Apr-13	2305	2305	2	0	2	5	1	2	5	2	1	2	1	0.41865	1	0.3	1	12	30	51	0
10-Apr-13	2305	2305	2	0	3	5	1	3	2	1	1	1	1	0.31452	1	0.9	0	13	32	33	0
10-Apr-13	2305	2305	2	0	4	5	1	5	1	6	1	2	0	0.39711	0	0.9	0	15	45	46	0
10-Apr-13	2305	2305	2	0	5	5	1	5	1	6	1	1	1	0.43278	1	0.9	0	15	35	36	0
10-Apr-13	2305	2305	2	0	6	5	1	3	2	1	1	1	1	0.42808	1	0.9	0	13	32	33	0
10-Apr-13	2305	2305	2	0	7	5	1	1	3	6	1	1	1	0.41353	1	0.9	0	11	30	31	0
10-Apr-13	2305	2305	2	0	8	5	1	2	5	2	1	1	0	0.02069	0	0.9	0	12	40	41	0
10-Apr-13	2305	2305	2	0	9	5	1	1	3	6	1	1	1	0.42327	1	0.9	0	11	30	31	0
10-Apr-13	2305	2305	2	0	10	5	1	1	3	6	1	1	1	0.42322	1	0.9	0	11	30	31	0
10-Apr-13	2305	2305	2	0	11	5	1	6	4	2	0	1	1	0.40962	0	0.9	0	16	47	38	0
10-Apr-13	2305	2305	2	0	12	5	1	5	1	6	1	1	1	0.44841	1	0.9	0	15	35	36	0
10-Apr-13	2305	2305	2	0	13	5	1	2	5	2	1	1	0	0.37706	0	0.9	0	12	40	41	0
10-Apr-13	2305	2305	2	0	14	5	1	3	2	1	1	1	1	0.01139	1	0.9	0	13	32	33	0
10-Apr-13	2305	2305	2	0	15	5	1	6	4	2	0	2	0	0.11218	1	0.9	0	16	37	48	0
10-Apr-13	2305	2305	2	0	16	5	1	6	4	2	0	1	1	0.31529	0	0.8	0	16	47	38	0
10-Apr-13	2305	2305	2	0	17	5	1	5	1	6	0	1	0	0.17815	1	0.8	0	15	37	48	0
10-Apr-13	2305	2305	2	0	18	5	1	3	2	1	1	1	1	0.34181	1	0.7	0	13	32	33	0
10-Apr-13	2305	2305	2	0	19	5	1	5	1	6	1	1	1	0.08046	1	0.7	0	15	35	36	0
10-Apr-13	2305	2305	2	0	20	5	1	4	6	1	1	1	0	0.4422	0	0.7	0	14	42	43	0
10-Apr-13	2305	2305	2	0	21	5	1	4	6	1	1	2	1	0.04545	1	0.6	0	14	32	33	0
10-Apr-13	2305	2305	2	0	22	5	1	4	6	1	1	2	1	0.3887	1	0.6	0	14	32	33	0
10-Apr-13	2305	2305	2	0	23	5	1	2	5	2	1	2	1	0.4099	1	0.6	0	12	30	31	0
10-Apr-13	2305	2305	2	0	24	5	1	3	2	1	1	1	1	0.45935	1	0.6	0	13	32	33	0
10-Apr-13	2305	2305	2	0	25	5	1	4	6	1	0	2	0	0.49579	1	0.6	0	14	34	49	0
10-Apr-13	2305	2305	2	0	26	5	1	2	5	2	1	1	0	0.47391	0	0.5	0	12	40	41	0
10-Apr-13	2305	2305	2	0	27	5	1	2	5	2	1	2	1	0.00126	1	0.5	0	12	30	31	0
10-Apr-13	2305	2305	2	0	28	5	1	6	4	2	1	1	0	0.01411	0	0.5	0	16	45	46	0
10-Apr-13	2305	2305	2	0	29	5	1	1	3	6	1	1	1	0.06227	1	0.5	0	11	30	31	0
10-Apr-13	2305	2305	2	0	30	5	1	5	1	6	0	1	0	0.08908	1	0.5	0	15	37	48	0
10-Apr-13	2305	2305	2	0	31	5	1	6	4	2	0	1	1	0.40322	0	0.5	0	16	47	38	0
10-Apr-13	2305	2305	2	0	32	5	1	3	2	1	0	1	0	0.36985	1	0.5	0	13	34	49	0
10-Apr-13	2305	2305	2	0	33	5	1	2	5	2	1	1	0	0.38076	0	0.5	0	12	40	41	0
10-Apr-13	2305	2305	2	0	34	5	1	3	2	1	1	2	0	0.39728	0	0.5	0	13	42	43	0
10-Apr-13	2305	2305	2	0	35	5	1	6	4	2	0	0	0	0	0	0.4	1	16	0	51	0
10-Apr-13	2305	2305	2	0	36	5	1	5	1	6	1	1	1	0.41623	1	0.7	0	15	35	36	0
10-Apr-13	2305	2305	2	0	37	5	1	5	1	6	0	1	0	0.43292	1	0.7	0	15	37	48	0
10-Apr-13	2305	2305	2	0	38	5	1	6	4	2	1	1	0	0.38421	0	0.7	0	16	45	46	0
10-Apr-13	2305	2305	2	0	39	5	1	3	2	1	0	1	0	0.07091	1	0.7	0	13	34	49	0
10-Apr-13	2305	2305	2	0	40	5	1	4	6	1	1	2	1	0.40674	1	0.7	0	14	32	33	0
10-Apr-13	2305	2305	2	0	41	5	1	1	3	6	1	1	1	0.00222	1	0.6	0	11	30	31	0
10-Apr-13	2305	2305	2	0	42	5	1	4	6	1	1	2	1	0.12293	1	0.6	0	14	32	33	0
10-Apr-13	2305	2305	2	0	43	5	1	5	1	6	1	1	1	0.00855	1	0.6	0	15	35	36	0
10-Apr-13	2305	2305	2	0	44	5	1	2	5	2	1	2	1	0.00645	1	0.6	0	12	30	31	0
10-Apr-13	2305	2305	2	0	45	5	1	3	2	1	1	1	1	0.02237	1	0.6	0	13	32	33	0
10-Apr-13	2305	2305	2	0	46	5	1	4	6	1	1	2	1	0.46613	1	0.6	0	14	32	33	0
10-Apr-13	2305	2305	2	0	47	5	1	6	4	2	1	2	1	0.44457	1	0.6	0	16	35	36	0
10-Apr-13	2305	2305	2	0	48	5	1	6	4	2	0	2	0	0.35472	1	0.6	0	16	37	48	0
10-Apr-13	2305	2305	2	0	49	5	1	1	3	6	1	2	0	0.34076	0	0.6	0	11	40	41	0
10-Apr-13	2305	2305	2	0	50	5	1	1	3	6	1	1	1	0.25823	1	0.6	0	11	30	31	0
10-Apr-13	2305	2305	2	0	51	5	1	2	5	2	1	1	0	0.25497	0	0.5	0	12	40	41	0
10-Apr-13	2305	2305	2	0	52	5	1	6	4	2	0	2	0	0.15458	1	0.5	0	16	37	48	0
10-Apr-13	2305	2305	2	0	53	5	1	1	3	6	1	2	0	0.36536	0	0.5	0	11	40	41	0
10-Apr-13	2305	2305	2	0	54	5	1	3	2	1	1	1	1	0.02314	1	0.5	0	13	32	33	0
10-Apr-13	2305	2305	2	0	55	5	1	3	2	1	0	1	0	0.48263	1	0.5	0	13	34	49	0
10-Apr-13	2305	2305	2	0	56	5	1	4	6	1	1	2	1	0.48482	1	0.5	0	14	32	33	0
10-Apr-13	2305	2305	2	0	57	5	1	6	4	2	1	1	0	0.40052	0	0.5	0	16	45	46	0
10-Apr-13	2305	2305	2	0	58	5	1	1	3	6	1	1	1	0.49177	1	0.5	0	11	30	31	0
10-Apr-13	2305	2305	2	0	59	5	1	5	1	6	0	1	0	0.15919	1	0.5	0	15	37	48	0
10-Apr-13	2305	2305	2	0	60	5	1	2	5	2	1	2	1	0.48784	1	0.5	0	12	30	31	0
10-Apr-13	2305	2305	2	0	61	5	1	3	2	1	1	2	0	0.40378	0	0.5	0	13	42	43	0
10-Apr-13	2305	2305	2	0	62	5	1	2	5	2	1	2	1	0.42401	1	0.5	0	12	30	31	0
10-Apr-13	2305	2305	2	0	63	5	1	2	5	2	1	1	0	0.33488	0	0.5	0	12	40	41	0
10-Apr-13	2305	2305	2	0	64	5	1	1	3	6	1	1	1	0.44928	1	0.5	0	11	30	31	0
10-Apr-13	2305	2305	2	0	65	5	1	5	1	6	1	1	1	0.49922	1	0.5	0	15	35	36	0
10-Apr-13	2305	2305	2	0	66	5	1	4	6	1	1	2	1	0.13948	1	0.5	0	14	32	33	0
10-Apr-13	2305	2305	2	0	67	5	1	6	4	2	1	2	1	0.03882	1	0.5	0	16	35	36	0
10-Apr-13	2305	2305	2	0	68	5	1	1	3	6	1	1	1	0.01405	1	0.4	0	11	30	31	0
10-Apr-13	2305	2305	2	0	69	5	1	4	6	1	1	2	1	0.32682	1	0.4	0	14	32	33	0
10-Apr-13	2305	2305	2	0	70	5	1	3	2	1	1	1	1	0.05246	1	0.4	0	13	32	33	0
10-Apr-13	2305	2305	2	0	71	5	1	1	3	6	1	1	1	0.05315	1	0.4	0	11	30	31	0
10-Apr-13	2305	2305	2	0	72	5	1	5	1	6	0	1	0	0.45155	1	0.4	1	15	37	51	0
10-Apr-13	2305	2305	2	0	73	5	1	4	6	1	1	2	1	0.49161	1	0.6	0	14	32	33	0
10-Apr-13	2305	2305	2	0	74	5	1	2	5	2	1	1	0	0.40853	0	0.6	0	12	40	41	0
10-Apr-13	2305	2305	2	0	75	5	1	6	4	2	0	1	1	0.42738	0	0.6	0	16	47	38	0
10-Apr-13	2305	2305	2	0	76	5	2	3	2	1	0	1	0	0.4661	1	0.5	0	23	64	89	0
10-Apr-13	2305	2305	2	0	77	5	2	2	5	2	1	2	1	0.45098	1	0.5	0	22	60	61	0
10-Apr-13	2305	2305	2	0	78	5	2	3	2	1	1	1	1	0.00276	1	0.5	0	23	62	63	0
10-Apr-13	2305	2305	2	0	79	5	2	1	3	6	1	2	0	0.38936	0	0.5	0	21	80	81	0
10-Apr-13	2305	2305	2	0	80	5	2	3	2	1	1	1	1	0.03132	1	0.5	0	23	62	63	0
10-Apr-13	2305	2305	2	0	81	5	2	4	6	1	1	2	1	0.42327	1	0.5	0	24	62	63	0
10-Apr-13	2305	2305	2	0	82	5	2	5	1	6	0	1	0	0.4603	1	0.5	0	25	67	88	0
10-Apr-13	2305	2305	2	0	83	5	2	2	5	2	1	2	1	0.46923	1	0.5	0	22	60	61	0
10-Apr-13	2305	2305	2	0	84	5	2	5	1	6	0	1	0	0.35316	1	0.5	0	25	67	88	0
10-Apr-13	2305	2305	2	0	85	5	2	5	1	6	0	1	0	0.45192	1	0.5	0	25	67	88	0
10-Apr-13	2305	2305	2	0	86	5	2	4	6	1	1	2	1	0.47634	1	0.5	0	24	62	63	0
10-Apr-13	2305	2305	2	0	87	5	2	4	6	1	1	2	1	0.3934	1	0.5	0	24	62	63	0
10-Apr-13	2305	2305	2	0	88	5	2	5	1	6	0	1	0	0.46319	1	0.5	0	25	67	88	0
10-Apr-13	2305	2305	2	0	89	5	2	1	3	6	1	1	1	0.43925	1	0.5	0	21	60	61	0
10-Apr-13	2305	2305	2	0	90	5	2	2	5	2	1	2	1	0.41363	1	0.5	0	22	60	61	0
10-Apr-13	2305	2305	2	0	91	5	2	4	6	1	1	2	1	0.45565	1	0.5	0	24	62	63	0
10-Apr-13	2305	2305	2	0	92	5	2	2	5	2	1	2	1	0.41116	1	0.5	0	22	60	61	0
10-Apr-13	2305	2305	2	0	93	5	2	1	3	6	1	1	1	0.45002	1	0.5	0	21	60	61	0
10-Apr-13	2305	2305	2	0	94	5	2	2	5	2	1	2	1	0.40624	1	0.5	0	22	60	61	0
10-Apr-13	2305	2305	2	0	95	5	2	3	2	1	0	1	0	0.43633	1	0.5	0	23	64	89	0
10-Apr-13	2305	2305	2	0	96	5	2	2	5	2	1	2	1	0.36758	1	0.5	0	22	60	61	0
10-Apr-13	2305	2305	2	0	97	5	2	6	4	2	0	1	1	0.0184	0	0.5	0	26	87	68	0
10-Apr-13	2305	2305	2	0	98	5	2	3	2	1	1	2	0	0.01618	0	0.5	0	23	82	83	0
10-Apr-13	2305	2305	2	0	99	5	2	3	2	1	1	1	1	0.45429	1	0.5	0	23	62	63	0
10-Apr-13	2305	2305	2	0	100	5	2	4	6	1	1	2	1	0.43039	1	0.5	0	24	62	63	0
10-Apr-13	2305	2305	2	0	101	5	2	4	6	1	0	2	0	0.35417	1	0.4	0	24	64	89	0
10-Apr-13	2305	2305	2	0	102	5	2	6	4	2	1	2	1	0.36475	1	0.4	0	26	65	66	0
10-Apr-13	2305	2305	2	0	103	5	2	2	5	2	1	2	1	0.3453	1	0.4	0	22	60	61	0
10-Apr-13	2305	2305	2	0	104	5	2	5	1	6	0	2	1	0.37221	0	0.4	0	25	87	68	0
10-Apr-13	2305	2305	2	0	105	5	2	1	3	6	1	2	0	0.35867	0	0.4	0	21	80	81	0
10-Apr-13	2305	2305	2	0	106	5	2	1	3	6	1	2	0	0.30917	0	0.4	0	21	80	81	0
10-Apr-13	2305	2305	2	0	107	5	2	6	4	2	1	2	1	0.43612	1	0.4	1	26	65	51	0
10-Apr-13	2305	2305	2	0	108	5	2	3	2	1	1	2	0	0.39805	0	0.5	0	23	82	83	0
10-Apr-13	2305	2305	2	0	109	5	2	6	4	2	1	2	1	0.37357	1	0.5	0	26	65	66	0
10-Apr-13	2305	2305	2	0	110	5	2	4	6	1	1	2	1	0.43697	1	0.5	0	24	62	63	0
10-Apr-13	2305	2305	2	0	111	5	2	2	5	2	1	2	1	0.01715	1	0.5	0	22	60	61	0
10-Apr-13	2305	2305	2	0	112	5	2	2	5	2	1	2	1	0.44451	1	0.5	0	22	60	61	0
10-Apr-13	2305	2305	2	0	113	5	2	1	3	6	1	1	1	0.43612	1	0.5	0	21	60	61	0
10-Apr-13	2305	2305	2	0	114	5	2	6	4	2	1	2	1	0.44277	1	0.5	0	26	65	66	0
10-Apr-13	2305	2305	2	0	115	5	2	5	1	6	0	1	0	0.4849	1	0.5	0	25	67	88	0
10-Apr-13	2305	2305	2	0	116	5	2	4	6	1	1	2	1	0.25712	1	0.5	0	24	62	63	0
10-Apr-13	2305	2305	2	0	117	5	2	6	4	2	0	2	0	0.00713	1	0.5	0	26	67	88	0
10-Apr-13	2305	2305	2	0	118	5	2	3	2	1	1	1	1	0.0341	1	0.5	0	23	62	63	0
10-Apr-13	2305	2305	2	0	119	5	2	4	6	1	0	2	0	0.42572	1	0.5	0	24	64	89	0
10-Apr-13	2305	2305	2	0	120	5	2	5	1	6	0	1	0	0.13984	1	0.5	0	25	67	88	0
10-Apr-13	2305	2305	2	0	121	5	2	1	3	6	1	1	1	0.03584	1	0.5	0	21	60	61	0
10-Apr-13	2305	2305	2	0	122	5	2	3	2	1	1	2	0	0.43905	0	0.5	0	23	82	83	0
10-Apr-13	2305	2305	2	0	123	5	2	6	4	2	0	2	0	0.39723	1	0.5	0	26	67	88	0
10-Apr-13	2305	2305	2	0	124	5	2	5	1	6	0	1	0	0.04276	1	0.5	0	25	67	88	0
10-Apr-13	2305	2305	2	0	125	5	2	5	1	6	0	1	0	0.1025	1	0.5	0	25	67	88	0
10-Apr-13	2305	2305	2	0	126	5	2	1	3	6	1	1	1	0.07488	1	0.5	0	21	60	61	0
10-Apr-13	2305	2305	2	0	127	5	2	6	4	2	0	2	0	0.01347	1	0.5	0	26	67	88	0
10-Apr-13	2305	2305	2	0	128	5	2	3	2	1	1	2	0	0.40166	0	0.5	0	23	82	83	0
10-Apr-13	2305	2305	2	0	129	5	2	6	4	2	1	2	1	0.46931	1	0.5	0	26	65	66	0
10-Apr-13	2305	2305	2	0	130	5	2	4	6	1	1	2	1	0.46804	1	0.5	0	24	62	63	0
10-Apr-13	2305	2305	2	0	131	5	2	1	3	6	1	1	1	0.45287	1	0.5	0	21	60	61	0
10-Apr-13	2305	2305	2	0	132	5	2	4	6	1	1	2	1	0.42696	1	0.5	0	24	62	63	0
10-Apr-13	2305	2305	2	0	133	5	2	3	2	1	1	1	1	0.49219	1	0.5	0	23	62	63	0
10-Apr-13	2305	2305	2	0	134	5	2	5	1	6	0	2	1	0.37126	0	0.5	0	25	87	68	0
10-Apr-13	2305	2305	2	0	135	5	2	4	6	1	1	2	1	0.49991	1	0.4	1	24	62	51	0
10-Apr-13	2305	2305	2	0	136	5	2	2	5	2	1	2	1	0.29826	1	0.5	0	22	60	61	0
10-Apr-13	2305	2305	2	0	137	5	2	5	1	6	0	2	1	0.29415	0	0.5	0	25	87	68	0
10-Apr-13	2305	2305	2	0	138	5	2	4	6	1	0	2	0	0.35659	1	0.5	0	24	64	89	0
10-Apr-13	2305	2305	2	0	139	5	2	6	4	2	0	2	0	0.01433	1	0.5	0	26	67	88	0
10-Apr-13	2305	2305	2	0	140	5	2	6	4	2	1	1	0	0.46751	0	0.5	0	26	85	86	0
10-Apr-13	2305	2305	2	0	141	5	2	1	3	6	1	1	1	0.49063	1	0.5	0	21	60	61	0
10-Apr-13	2305	2305	2	0	142	5	2	3	2	1	1	0	0	0	0	0.5	1	23	0	51	0
10-Apr-13	2305	2305	2	0	143	5	2	1	3	6	1	1	1	0.49789	1	0.6	0	21	60	61	0
10-Apr-13	2305	2305	2	0	144	5	2	2	5	2	1	2	1	0.42384	1	0.6	0	22	60	61	0
10-Apr-13	2305	2305	2	0	145	5	2	6	4	2	0	2	0	0.01742	1	0.6	0	26	67	88	0
10-Apr-13	2305	2305	2	0	146	5	2	5	1	6	0	1	0	0.11244	1	0.6	0	25	67	88	0
10-Apr-13	2305	2305	2	0	147	5	2	5	1	6	0	2	1	0.48624	0	0.6	0	25	87	68	0
10-Apr-13	2305	2305	2	0	148	5	2	1	3	6	1	1	1	0.3717	1	0.6	0	21	60	61	0
10-Apr-13	2305	2305	2	0	149	5	2	1	3	6	1	1	1	0.006	1	0.6	0	21	60	61	0
10-Apr-13	2305	2305	2	0	150	5	2	2	5	2	1	2	1	0.04421	1	0.6	0	22	60	61	0
10-Apr-13	2305	2305	2	0	1	6	1	1	5	3	1	2	0	0.11347	0	0.6	0	11	40	41	0
10-Apr-13	2305	2305	2	0	2	6	1	2	1	2	1	2	1	0.02262	1	0.3	0	12	30	31	0
10-Apr-13	2305	2305	2	0	3	6	1	3	4	3	0	2	1	0.0534	0	0.3	0	13	44	39	0
10-Apr-13	2305	2305	2	0	4	6	1	2	1	2	1	2	1	0.1839	1	0.3	0	12	30	31	0
10-Apr-13	2305	2305	2	0	5	6	1	3	4	3	1	2	0	0.47504	0	0.3	1	13	42	51	0
10-Apr-13	2305	2305	2	0	6	6	1	3	4	3	1	2	0	0.3819	0	0.9	0	13	42	43	0
10-Apr-13	2305	2305	2	0	7	6	1	2	1	2	1	2	1	0.29807	1	0.9	0	12	30	31	0
10-Apr-13	2305	2305	2	0	8	6	1	5	6	5	0	2	1	0.01686	0	0.9	0	15	47	38	0
10-Apr-13	2305	2305	2	0	9	6	1	1	5	3	1	1	1	0.49603	1	0.9	0	11	30	31	0
10-Apr-13	2305	2305	2	0	10	6	1	4	3	5	1	1	0	0.01996	0	0.9	0	14	42	43	0
10-Apr-13	2305	2305	2	0	11	6	1	4	3	5	1	2	1	0.12208	1	0.9	0	14	32	33	0
10-Apr-13	2305	2305	2	0	12	6	1	1	5	3	1	1	1	0.44054	1	0.9	0	11	30	31	0
10-Apr-13	2305	2305	2	0	13	6	1	1	5	3	1	1	1	0.09847	1	0.9	0	11	30	31	0
10-Apr-13	2305	2305	2	0	14	6	1	2	1	2	1	2	1	0.00484	1	0.9	0	12	30	31	0
10-Apr-13	2305	2305	2	0	15	6	1	6	2	5	0	2	0	0.47971	1	0.9	0	16	37	48	0
10-Apr-13	2305	2305	2	0	16	6	1	6	2	5	1	1	0	0.42257	0	0.8	0	16	45	46	0
10-Apr-13	2305	2305	2	0	17	6	1	1	5	3	1	1	1	0.41092	1	0.8	0	11	30	31	0
10-Apr-13	2305	2305	2	0	18	6	1	3	4	3	1	1	1	0.38783	1	0.7	0	13	32	33	0
10-Apr-13	2305	2305	2	0	19	6	1	6	2	5	0	1	1	0.44806	0	0.7	0	16	47	38	0
10-Apr-13	2305	2305	2	0	20	6	1	3	4	3	1	1	1	0.46281	1	0.7	0	13	32	33	0
10-Apr-13	2305	2305	2	0	21	6	1	1	5	3	1	1	1	0.49793	1	0.6	0	11	30	31	0
10-Apr-13	2305	2305	2	0	22	6	1	6	2	5	0	2	0	0.2102	1	0.6	0	16	37	48	0
10-Apr-13	2305	2305	2	0	23	6	1	1	5	3	1	1	1	0.46519	1	0.6	0	11	30	31	0
10-Apr-13	2305	2305	2	0	24	6	1	4	3	5	1	1	0	0.4192	0	0.6	0	14	42	43	0
10-Apr-13	2305	2305	2	0	25	6	1	5	6	5	1	2	0	0.07977	0	0.6	0	15	45	46	0
10-Apr-13	2305	2305	2	0	26	6	1	3	4	3	0	2	1	0.08438	0	0.5	0	13	44	39	0
10-Apr-13	2305	2305	2	0	27	6	1	4	3	5	1	1	0	0.31358	0	0.5	0	14	42	43	0
10-Apr-13	2305	2305	2	0	28	6	1	6	2	5	1	1	0	0.37338	0	0.5	0	16	45	46	0
10-Apr-13	2305	2305	2	0	29	6	1	1	5	3	1	1	1	0.36704	1	0.5	0	11	30	31	0
10-Apr-13	2305	2305	2	0	30	6	1	3	4	3	1	0	0	0	0	0.5	1	13	0	51	0
10-Apr-13	2305	2305	2	0	31	6	1	6	2	5	1	2	1	0.2081	1	0.8	0	16	35	36	0
10-Apr-13	2305	2305	2	0	32	6	1	5	6	5	1	2	0	0.43009	0	0.8	0	15	45	46	0
10-Apr-13	2305	2305	2	0	33	6	1	4	3	5	0	1	1	0.36589	0	0.8	0	14	44	39	0
10-Apr-13	2305	2305	2	0	34	6	1	4	3	5	1	1	0	0.24282	0	0.8	0	14	42	43	0
10-Apr-13	2305	2305	2	0	35	6	1	3	4	3	1	1	1	0.38825	1	0.7	0	13	32	33	0
10-Apr-13	2305	2305	2	0	36	6	1	1	5	3	1	1	1	0.41723	1	0.7	0	11	30	31	0
10-Apr-13	2305	2305	2	0	37	6	1	6	2	5	0	2	0	0.02224	1	0.7	0	16	37	48	0
10-Apr-13	2305	2305	2	0	38	6	1	1	5	3	1	1	1	0.44711	1	0.7	0	11	30	31	0
10-Apr-13	2305	2305	2	0	39	6	1	1	5	3	1	1	1	0.38286	1	0.7	0	11	30	31	0
10-Apr-13	2305	2305	2	0	40	6	1	2	1	2	1	2	1	0.47359	1	0.7	0	12	30	31	0
10-Apr-13	2305	2305	2	0	41	6	1	6	2	5	0	1	1	0.00121	0	0.6	0	16	47	38	0
10-Apr-13	2305	2305	2	0	42	6	1	1	5	3	1	1	1	0.42951	1	0.6	0	11	30	31	0
10-Apr-13	2305	2305	2	0	43	6	1	2	1	2	1	2	1	0.36437	1	0.6	0	12	30	31	0
10-Apr-13	2305	2305	2	0	44	6	1	2	1	2	1	2	1	0.44892	1	0.6	0	12	30	31	0
10-Apr-13	2305	2305	2	0	45	6	1	4	3	5	1	1	0	0.05149	0	0.6	0	14	42	43	0
10-Apr-13	2305	2305	2	0	46	6	1	3	4	3	1	1	1	0.45739	1	0.6	0	13	32	33	0
10-Apr-13	2305	2305	2	0	47	6	1	5	6	5	1	2	0	0.45975	0	0.6	0	15	45	46	0
10-Apr-13	2305	2305	2	0	48	6	1	3	4	3	1	1	1	0.38571	1	0.6	0	13	32	33	0
10-Apr-13	2305	2305	2	0	49	6	1	6	2	5	0	1	1	0.43194	0	0.6	0	16	47	38	0
10-Apr-13	2305	2305	2	0	50	6	1	5	6	5	0	1	0	0.02546	1	0.6	0	15	37	48	0
10-Apr-13	2305	2305	2	0	51	6	1	5	6	5	0	1	0	0.4205	1	0.5	0	15	37	48	0
10-Apr-13	2305	2305	2	0	52	6	1	4	3	5	1	2	1	0.21388	1	0.5	0	14	32	33	0
10-Apr-13	2305	2305	2	0	53	6	1	6	2	5	0	2	0	0.39994	1	0.5	0	16	37	48	0
10-Apr-13	2305	2305	2	0	54	6	1	2	1	2	1	2	1	0.39404	1	0.5	0	12	30	31	0
10-Apr-13	2305	2305	2	0	55	6	1	4	3	5	0	2	0	0.42408	1	0.5	0	14	34	49	0
10-Apr-13	2305	2305	2	0	56	6	1	6	2	5	1	2	1	0.47253	1	0.5	0	16	35	36	0
10-Apr-13	2305	2305	2	0	57	6	1	3	4	3	1	2	0	0.10948	0	0.5	0	13	42	43	0
10-Apr-13	2305	2305	2	0	58	6	1	4	3	5	1	2	1	0.47178	1	0.5	0	14	32	33	0
10-Apr-13	2305	2305	2	0	59	6	1	5	6	5	1	1	1	0.03431	1	0.5	0	15	35	36	0
10-Apr-13	2305	2305	2	0	60	6	1	3	4	3	0	1	0	0.42982	1	0.5	0	13	34	49	0
10-Apr-13	2305	2305	2	0	61	6	1	3	4	3	1	1	1	0.38127	1	0.5	0	13	32	33	0
10-Apr-13	2305	2305	2	0	62	6	1	5	6	5	1	2	0	0.41844	0	0.5	0	15	45	46	0
10-Apr-13	2305	2305	2	0	63	6	1	5	6	5	0	1	0	0.35095	1	0.5	0	15	37	48	0
10-Apr-13	2305	2305	2	0	64	6	1	2	1	2	1	1	0	0.4172	0	0.5	0	12	40	41	0
10-Apr-13	2305	2305	2	0	65	6	1	5	6	5	1	1	1	0.11743	1	0.5	0	15	35	36	0
10-Apr-13	2305	2305	2	0	66	6	1	6	2	5	1	1	0	0.15493	0	0.5	0	16	45	46	0
10-Apr-13	2305	2305	2	0	67	6	1	2	1	2	1	2	1	0.34856	1	0.5	0	12	30	31	0
10-Apr-13	2305	2305	2	0	68	6	1	2	1	2	1	2	1	0.4152	1	0.4	1	12	30	51	0
10-Apr-13	2305	2305	2	0	69	6	1	2	1	2	1	2	1	0.27774	1	0.6	0	12	30	31	0
10-Apr-13	2305	2305	2	0	70	6	1	5	6	5	0	2	1	0.26085	0	0.6	0	15	47	38	0
10-Apr-13	2305	2305	2	0	71	6	1	5	6	5	1	2	0	0.40559	0	0.6	0	15	45	46	0
10-Apr-13	2305	2305	2	0	72	6	1	2	1	2	1	2	1	0.43572	1	0.6	0	12	30	31	0
10-Apr-13	2305	2305	2	0	73	6	1	4	3	5	1	2	1	0.07125	1	0.6	0	14	32	33	0
10-Apr-13	2305	2305	2	0	74	6	1	6	2	5	0	1	1	0.26662	0	0.6	0	16	47	38	0
10-Apr-13	2305	2305	2	0	75	6	1	4	3	5	1	2	1	0.44925	1	0.6	0	14	32	33	0
10-Apr-13	2305	2305	2	0	76	6	2	3	4	3	1	2	0	0.41127	0	0.5	0	23	82	83	0
10-Apr-13	2305	2305	2	0	77	6	2	1	5	3	1	2	0	0.26369	0	0.5	0	21	80	81	0
10-Apr-13	2305	2305	2	0	78	6	2	4	3	5	0	2	0	0.32298	1	0.5	0	24	64	89	0
10-Apr-13	2305	2305	2	0	79	6	2	1	5	3	1	1	1	0.35254	1	0.5	0	21	60	61	0
10-Apr-13	2305	2305	2	0	80	6	2	6	2	5	0	2	0	0.48592	1	0.5	0	26	67	88	0
10-Apr-13	2305	2305	2	0	81	6	2	5	6	5	0	2	1	0.47853	0	0.5	0	25	87	68	0
10-Apr-13	2305	2305	2	0	82	6	2	2	1	2	1	1	0	0.36993	0	0.5	0	22	80	81	0
10-Apr-13	2305	2305	2	0	83	6	2	4	3	5	1	1	0	0.05137	0	0.5	0	24	82	83	0
10-Apr-13	2305	2305	2	0	84	6	2	3	4	3	1	1	1	0.48825	1	0.5	0	23	62	63	0
10-Apr-13	2305	2305	2	0	85	6	2	3	4	3	1	1	1	0.09811	1	0.5	0	23	62	63	0
10-Apr-13	2305	2305	2	0	86	6	2	3	4	3	1	1	1	0.43181	1	0.5	0	23	62	63	0
10-Apr-13	2305	2305	2	0	87	6	2	5	6	5	0	2	1	0.47511	0	0.5	0	25	87	68	0
10-Apr-13	2305	2305	2	0	88	6	2	1	5	3	1	2	0	0.2489	0	0.5	0	21	80	81	0
10-Apr-13	2305	2305	2	0	89	6	2	4	3	5	1	2	1	0.40762	1	0.5	0	24	62	63	0
10-Apr-13	2305	2305	2	0	90	6	2	2	1	2	1	1	0	0.3771	0	0.5	0	22	80	81	0
10-Apr-13	2305	2305	2	0	91	6	2	2	1	2	1	2	1	0.36731	1	0.5	0	22	60	61	0
10-Apr-13	2305	2305	2	0	92	6	2	6	2	5	1	2	1	0.36459	1	0.5	0	26	65	66	0
10-Apr-13	2305	2305	2	0	93	6	2	4	3	5	1	1	0	0.37701	0	0.5	0	24	82	83	0
10-Apr-13	2305	2305	2	0	94	6	2	5	6	5	0	1	0	0.45461	1	0.5	0	25	67	88	0
10-Apr-13	2305	2305	2	0	95	6	2	5	6	5	0	2	1	0.03936	0	0.5	0	25	87	68	0
10-Apr-13	2305	2305	2	0	96	6	2	2	1	2	1	2	1	0.49043	1	0.5	0	22	60	61	0
10-Apr-13	2305	2305	2	0	97	6	2	5	6	5	0	2	1	0.43098	0	0.5	0	25	87	68	0
10-Apr-13	2305	2305	2	0	98	6	2	3	4	3	1	1	1	0.41574	1	0.5	0	23	62	63	0
10-Apr-13	2305	2305	2	0	99	6	2	2	1	2	1	2	1	0.45532	1	0.5	0	22	60	61	0
10-Apr-13	2305	2305	2	0	100	6	2	2	1	2	1	2	1	0.40126	1	0.5	0	22	60	61	0
10-Apr-13	2305	2305	2	0	101	6	2	2	1	2	1	2	1	0.41348	1	0.4	1	22	60	51	0
10-Apr-13	2305	2305	2	0	102	6	2	5	6	5	0	1	0	0.02407	1	0.5	0	25	67	88	0
10-Apr-13	2305	2305	2	0	103	6	2	3	4	3	1	2	0	0.37047	0	0.5	0	23	82	83	0
10-Apr-13	2305	2305	2	0	104	6	2	2	1	2	1	2	1	0.13611	1	0.5	0	22	60	61	0
10-Apr-13	2305	2305	2	0	105	6	2	1	5	3	1	1	1	0.04284	1	0.5	0	21	60	61	0
10-Apr-13	2305	2305	2	0	106	6	2	2	1	2	1	2	1	0.36267	1	0.5	0	22	60	61	0
10-Apr-13	2305	2305	2	0	107	6	2	1	5	3	1	2	0	0.29179	0	0.5	0	21	80	81	0
10-Apr-13	2305	2305	2	0	108	6	2	1	5	3	1	1	1	0.43779	1	0.5	0	21	60	61	0
10-Apr-13	2305	2305	2	0	109	6	2	4	3	5	1	2	1	0.119	1	0.5	0	24	62	63	0
10-Apr-13	2305	2305	2	0	110	6	2	3	4	3	1	1	1	0.46587	1	0.5	0	23	62	63	0
10-Apr-13	2305	2305	2	0	111	6	2	5	6	5	0	2	1	0.43656	0	0.5	0	25	87	68	0
10-Apr-13	2305	2305	2	0	112	6	2	5	6	5	0	2	1	0.46841	0	0.5	0	25	87	68	0
10-Apr-13	2305	2305	2	0	113	6	2	6	2	5	0	2	0	0.079	1	0.5	0	26	67	88	0
10-Apr-13	2305	2305	2	0	114	6	2	6	2	5	0	1	1	0.06446	0	0.5	0	26	87	68	0
10-Apr-13	2305	2305	2	0	115	6	2	1	5	3	1	1	1	0.47391	1	0.5	0	21	60	61	0
10-Apr-13	2305	2305	2	0	116	6	2	2	1	2	1	2	1	0.29864	1	0.5	0	22	60	61	0
10-Apr-13	2305	2305	2	0	117	6	2	1	5	3	1	2	0	0.3629	0	0.5	0	21	80	81	0
10-Apr-13	2305	2305	2	0	118	6	2	3	4	3	1	2	0	0.43376	0	0.5	0	23	82	83	0
10-Apr-13	2305	2305	2	0	119	6	2	3	4	3	0	1	0	0.49135	1	0.5	0	23	64	89	0
10-Apr-13	2305	2305	2	0	120	6	2	4	3	5	1	2	1	0.02677	1	0.5	0	24	62	63	0
10-Apr-13	2305	2305	2	0	121	6	2	2	1	2	1	1	0	0.47813	0	0.5	0	22	80	81	0
10-Apr-13	2305	2305	2	0	122	6	2	3	4	3	1	1	1	0.47986	1	0.5	0	23	62	63	0
10-Apr-13	2305	2305	2	0	123	6	2	2	1	2	1	2	1	0.41852	1	0.5	0	22	60	61	0
10-Apr-13	2305	2305	2	0	124	6	2	5	6	5	0	2	1	0.09797	0	0.5	0	25	87	68	0
10-Apr-13	2305	2305	2	0	125	6	2	5	6	5	0	2	1	0.00137	0	0.5	0	25	87	68	0
10-Apr-13	2305	2305	2	0	126	6	2	6	2	5	1	2	1	0.00511	1	0.5	0	26	65	66	0
10-Apr-13	2305	2305	2	0	127	6	2	6	2	5	0	2	0	0.3784	1	0.5	0	26	67	88	0
10-Apr-13	2305	2305	2	0	128	6	2	4	3	5	1	2	1	0.39837	1	0.5	0	24	62	63	0
10-Apr-13	2305	2305	2	0	129	6	2	4	3	5	1	2	1	0.43164	1	0.5	0	24	62	63	0
10-Apr-13	2305	2305	2	0	130	6	2	6	2	5	1	1	0	0.4604	0	0.5	0	26	85	86	0
10-Apr-13	2305	2305	2	0	131	6	2	1	5	3	1	1	1	0.0108	1	0.5	0	21	60	61	0
10-Apr-13	2305	2305	2	0	132	6	2	3	4	3	0	1	0	0.33803	1	0.5	0	23	64	89	0
10-Apr-13	2305	2305	2	0	133	6	2	1	5	3	1	1	1	0.48205	1	0.5	0	21	60	61	0
10-Apr-13	2305	2305	2	0	134	6	2	6	2	5	1	2	1	0.38488	1	0.5	0	26	65	66	0
10-Apr-13	2305	2305	2	0	135	6	2	4	3	5	0	2	0	0.1368	1	0.4	0	24	64	89	0
10-Apr-13	2305	2305	2	0	136	6	2	5	6	5	0	2	1	0.40312	0	0.4	1	25	87	51	0
10-Apr-13	2305	2305	2	0	137	6	2	4	3	5	1	2	1	0.18413	1	0.5	0	24	62	63	0
10-Apr-13	2305	2305	2	0	138	6	2	1	5	3	1	1	1	0.3619	1	0.5	0	21	60	61	0
10-Apr-13	2305	2305	2	0	139	6	2	6	2	5	1	2	1	0.42073	1	0.5	0	26	65	66	0
10-Apr-13	2305	2305	2	0	140	6	2	6	2	5	0	1	1	0.28472	0	0.5	0	26	87	68	0
10-Apr-13	2305	2305	2	0	141	6	2	5	6	5	0	2	1	0.43446	0	0.5	0	25	87	68	0
10-Apr-13	2305	2305	2	0	142	6	2	3	4	3	1	1	1	0.42437	1	0.5	0	23	62	63	0
10-Apr-13	2305	2305	2	0	143	6	2	1	5	3	1	1	1	0.01446	1	0.5	0	21	60	61	0
10-Apr-13	2305	2305	2	0	144	6	2	4	3	5	0	1	1	0.4521	0	0.5	0	24	84	69	0
10-Apr-13	2305	2305	2	0	145	6	2	6	2	5	0	2	0	0.35485	1	0.5	0	26	67	88	0
10-Apr-13	2305	2305	2	0	146	6	2	1	5	3	1	1	1	0.43482	1	0.5	0	21	60	61	0
10-Apr-13	2305	2305	2	0	147	6	2	5	6	5	0	1	0	0.38649	1	0.5	0	25	67	88	0
10-Apr-13	2305	2305	2	0	148	6	2	4	3	5	1	2	1	0.43116	1	0.5	0	24	62	63	0
10-Apr-13	2305	2305	2	0	149	6	2	4	3	5	1	2	1	0.42069	1	0.5	0	24	62	63	0
10-Apr-13	2305	2305	2	0	150	6	2	6	2	5	1	2	1	0.34273	1	0.5	0	26	65	66	0
