Date 	 Name 	 ID 	 Gender 	 Appearance 	 Trial 	 Block 	 Bin 	 Condition 	 Category 	 Number 	 Valid 	 Keypress 	 Correct 	 RT 	 Realcorrect 	 Deadline 	 Timeout 	 Stimtrigger 	 Resptrigger 	 Fedtrigger 	WithinTime
10-Apr-13	sub2306	2306	2	1	1	1	1	2	1	4	1	0	0	0	0	0.6	1	12	0	51	0
10-Apr-13	sub2306	2306	2	1	2	1	1	6	3	5	0	1	1	0.00593	0	0.9	0	16	47	38	0
10-Apr-13	sub2306	2306	2	1	3	1	1	1	4	5	1	1	1	0.49514	1	0.9	0	11	30	31	0
10-Apr-13	sub2306	2306	2	1	4	1	1	2	1	4	1	2	1	0.45036	1	0.9	0	12	30	31	0
10-Apr-13	sub2306	2306	2	1	5	1	1	6	3	5	0	1	1	0.37393	0	0.9	0	16	47	38	0
10-Apr-13	sub2306	2306	2	1	6	1	1	6	3	5	0	1	1	0.49918	0	0.9	0	16	47	38	0
10-Apr-13	sub2306	2306	2	1	7	1	1	3	6	1	1	2	0	0.47625	0	0.9	0	13	42	43	0
10-Apr-13	sub2306	2306	2	1	8	1	1	6	3	5	1	1	0	0.10164	0	0.9	0	16	45	46	0
10-Apr-13	sub2306	2306	2	1	9	1	1	5	2	6	0	2	1	0.13611	0	0.9	0	15	47	38	0
10-Apr-13	sub2306	2306	2	1	10	1	1	6	3	5	0	1	1	0.42821	0	0.9	0	16	47	38	0
10-Apr-13	sub2306	2306	2	1	11	1	1	2	1	4	1	2	1	0.08322	1	0.9	0	12	30	31	0
10-Apr-13	sub2306	2306	2	1	12	1	1	2	1	4	1	2	1	0.48143	1	0.9	0	12	30	31	0
10-Apr-13	sub2306	2306	2	1	13	1	1	5	2	6	1	1	1	0.15681	1	0.9	0	15	35	36	0
10-Apr-13	sub2306	2306	2	1	14	1	1	1	4	5	1	2	0	0.06616	0	0.9	0	11	40	41	0
10-Apr-13	sub2306	2306	2	1	15	1	1	1	4	5	1	1	1	0.02075	1	0.9	0	11	30	31	0
10-Apr-13	sub2306	2306	2	1	16	1	1	6	3	5	0	1	1	0.49376	0	0.8	0	16	47	38	0
10-Apr-13	sub2306	2306	2	1	17	1	1	2	1	4	1	2	1	0.42989	1	0.8	0	12	30	31	0
10-Apr-13	sub2306	2306	2	1	18	1	1	1	4	5	1	1	1	0.1438	1	0.7	0	11	30	31	0
10-Apr-13	sub2306	2306	2	1	19	1	1	4	5	1	1	2	1	0.13457	1	0.7	0	14	32	33	0
10-Apr-13	sub2306	2306	2	1	20	1	1	5	2	6	1	1	1	0.38854	1	0.7	0	15	35	36	0
10-Apr-13	sub2306	2306	2	1	21	1	1	4	5	1	1	2	1	0.02567	1	0.6	0	14	32	33	0
10-Apr-13	sub2306	2306	2	1	22	1	1	6	3	5	1	1	0	0.39699	0	0.6	0	16	45	46	0
10-Apr-13	sub2306	2306	2	1	23	1	1	6	3	5	1	1	0	0.43148	0	0.6	0	16	45	46	0
10-Apr-13	sub2306	2306	2	1	24	1	1	2	1	4	1	2	1	0.49238	1	0.6	0	12	30	31	0
10-Apr-13	sub2306	2306	2	1	25	1	1	2	1	4	1	2	1	0.34036	1	0.6	0	12	30	31	0
10-Apr-13	sub2306	2306	2	1	26	1	1	3	6	1	0	2	1	0.49778	0	0.5	0	13	44	39	0
10-Apr-13	sub2306	2306	2	1	27	1	1	3	6	1	0	2	1	0.42162	0	0.5	0	13	44	39	0
10-Apr-13	sub2306	2306	2	1	28	1	1	6	3	5	1	1	0	0.46144	0	0.5	0	16	45	46	0
10-Apr-13	sub2306	2306	2	1	29	1	1	2	1	4	1	2	1	0.44421	1	0.5	0	12	30	31	0
10-Apr-13	sub2306	2306	2	1	30	1	1	6	3	5	0	2	0	0.0823	1	0.5	0	16	37	48	0
10-Apr-13	sub2306	2306	2	1	31	1	1	5	2	6	0	2	1	0.04266	0	0.5	0	15	47	38	0
10-Apr-13	sub2306	2306	2	1	32	1	1	4	5	1	1	1	0	0.46687	0	0.5	0	14	42	43	0
10-Apr-13	sub2306	2306	2	1	33	1	1	5	2	6	0	2	1	0.40285	0	0.5	0	15	47	38	0
10-Apr-13	sub2306	2306	2	1	34	1	1	4	5	1	1	2	1	0.38169	1	0.5	0	14	32	33	0
10-Apr-13	sub2306	2306	2	1	35	1	1	4	5	1	0	2	0	0.38795	1	0.4	0	14	34	49	0
10-Apr-13	sub2306	2306	2	1	36	1	1	4	5	1	1	2	1	0.44587	1	0.4	1	14	32	51	0
10-Apr-13	sub2306	2306	2	1	37	1	1	2	1	4	1	2	1	0.37594	1	0.7	0	12	30	31	0
10-Apr-13	sub2306	2306	2	1	38	1	1	6	3	5	1	1	0	0.05344	0	0.7	0	16	45	46	0
10-Apr-13	sub2306	2306	2	1	39	1	1	3	6	1	1	2	0	0.4609	0	0.7	0	13	42	43	0
10-Apr-13	sub2306	2306	2	1	40	1	1	5	2	6	0	2	1	0.3742	0	0.7	0	15	47	38	0
10-Apr-13	sub2306	2306	2	1	41	1	1	3	6	1	1	2	0	0.3883	0	0.6	0	13	42	43	0
10-Apr-13	sub2306	2306	2	1	42	1	1	1	4	5	1	1	1	0.09819	1	0.6	0	11	30	31	0
10-Apr-13	sub2306	2306	2	1	43	1	1	1	4	5	1	1	1	0.00519	1	0.6	0	11	30	31	0
10-Apr-13	sub2306	2306	2	1	44	1	1	5	2	6	1	2	0	0.36263	0	0.6	0	15	45	46	0
10-Apr-13	sub2306	2306	2	1	45	1	1	2	1	4	1	2	1	0.38517	1	0.6	0	12	30	31	0
10-Apr-13	sub2306	2306	2	1	46	1	1	3	6	1	1	2	0	0.42617	0	0.6	0	13	42	43	0
10-Apr-13	sub2306	2306	2	1	47	1	1	4	5	1	1	2	1	0.49267	1	0.6	0	14	32	33	0
10-Apr-13	sub2306	2306	2	1	48	1	1	3	6	1	1	2	0	0.02209	0	0.6	0	13	42	43	0
10-Apr-13	sub2306	2306	2	1	49	1	1	1	4	5	1	1	1	0.0472	1	0.6	0	11	30	31	0
10-Apr-13	sub2306	2306	2	1	50	1	1	2	1	4	1	2	1	0.43825	1	0.6	0	12	30	31	0
10-Apr-13	sub2306	2306	2	1	51	1	1	4	5	1	0	2	0	0.49169	1	0.5	0	14	34	49	0
10-Apr-13	sub2306	2306	2	1	52	1	1	1	4	5	1	1	1	0.07573	1	0.5	0	11	30	31	0
10-Apr-13	sub2306	2306	2	1	53	1	1	3	6	1	1	1	1	0.44201	1	0.5	0	13	32	33	0
10-Apr-13	sub2306	2306	2	1	54	1	1	4	5	1	1	1	0	0.38773	0	0.5	0	14	42	43	0
10-Apr-13	sub2306	2306	2	1	55	1	1	2	1	4	1	2	1	0.43842	1	0.5	0	12	30	31	0
10-Apr-13	sub2306	2306	2	1	56	1	1	3	6	1	1	2	0	0.4087	0	0.5	0	13	42	43	0
10-Apr-13	sub2306	2306	2	1	57	1	1	3	6	1	0	1	0	0.46921	1	0.5	0	13	34	49	0
10-Apr-13	sub2306	2306	2	1	58	1	1	6	3	5	0	1	1	0.01348	0	0.5	0	16	47	38	0
10-Apr-13	sub2306	2306	2	1	59	1	1	1	4	5	1	2	0	0.1386	0	0.5	0	11	40	41	0
10-Apr-13	sub2306	2306	2	1	60	1	1	5	2	6	1	2	0	0.49864	0	0.5	0	15	45	46	0
10-Apr-13	sub2306	2306	2	1	61	1	1	5	2	6	1	2	0	0.48921	0	0.5	0	15	45	46	0
10-Apr-13	sub2306	2306	2	1	62	1	1	3	6	1	1	1	1	0.06719	1	0.5	0	13	32	33	0
10-Apr-13	sub2306	2306	2	1	63	1	1	5	2	6	0	1	0	0.011	1	0.5	0	15	37	48	0
10-Apr-13	sub2306	2306	2	1	64	1	1	2	1	4	1	2	1	0.38359	1	0.5	0	12	30	31	0
10-Apr-13	sub2306	2306	2	1	65	1	1	1	4	5	1	1	1	0.47942	1	0.5	0	11	30	31	0
10-Apr-13	sub2306	2306	2	1	66	1	1	5	2	6	1	2	0	0.36533	0	0.5	0	15	45	46	0
10-Apr-13	sub2306	2306	2	1	67	1	1	4	5	1	1	2	1	0.39074	1	0.5	0	14	32	33	0
10-Apr-13	sub2306	2306	2	1	68	1	1	4	5	1	1	2	1	0.42076	1	0.4	1	14	32	51	0
10-Apr-13	sub2306	2306	2	1	69	1	1	6	3	5	1	1	0	0.47213	0	0.6	0	16	45	46	0
10-Apr-13	sub2306	2306	2	1	70	1	1	4	5	1	1	2	1	0.36263	1	0.6	0	14	32	33	0
10-Apr-13	sub2306	2306	2	1	71	1	1	5	2	6	1	2	0	0.38191	0	0.6	0	15	45	46	0
10-Apr-13	sub2306	2306	2	1	72	1	1	3	6	1	1	1	1	0.12498	1	0.6	0	13	32	33	0
10-Apr-13	sub2306	2306	2	1	73	1	1	3	6	1	1	1	1	0.39115	1	0.6	0	13	32	33	0
10-Apr-13	sub2306	2306	2	1	74	1	1	1	4	5	1	1	1	0.00429	1	0.6	0	11	30	31	0
10-Apr-13	sub2306	2306	2	1	75	1	1	1	4	5	1	1	1	0.4132	1	0.6	0	11	30	31	0
10-Apr-13	sub2306	2306	2	1	1	2	1	3	6	6	1	2	0	0.49227	0	0.6	0	13	42	43	0
10-Apr-13	sub2306	2306	2	1	2	2	1	6	1	2	1	2	1	0.46683	1	0.3	1	16	35	51	0
10-Apr-13	sub2306	2306	2	1	3	2	1	4	2	2	1	2	1	0.46793	1	0.9	0	14	32	33	0
10-Apr-13	sub2306	2306	2	1	4	2	1	6	1	2	1	2	1	0.44388	1	0.9	0	16	35	36	0
10-Apr-13	sub2306	2306	2	1	5	2	1	3	6	6	1	2	0	0.49557	0	0.9	0	13	42	43	0
10-Apr-13	sub2306	2306	2	1	6	2	1	6	1	2	0	2	0	0.34987	1	0.9	0	16	37	48	0
10-Apr-13	sub2306	2306	2	1	7	2	1	5	3	3	1	1	1	0.49223	1	0.9	0	15	35	36	0
10-Apr-13	sub2306	2306	2	1	8	2	1	1	5	6	1	2	0	0.00739	0	0.9	0	11	40	41	0
10-Apr-13	sub2306	2306	2	1	9	2	1	3	6	6	1	1	1	0.0033	1	0.9	0	13	32	33	0
10-Apr-13	sub2306	2306	2	1	10	2	1	2	4	3	1	2	1	0.13466	1	0.9	0	12	30	31	0
10-Apr-13	sub2306	2306	2	1	11	2	1	3	6	6	1	1	1	0.40724	1	0.9	0	13	32	33	0
10-Apr-13	sub2306	2306	2	1	12	2	1	4	2	2	0	2	0	0.34548	1	0.9	0	14	34	49	0
10-Apr-13	sub2306	2306	2	1	13	2	1	5	3	3	0	1	0	0.46307	1	0.9	0	15	37	48	0
10-Apr-13	sub2306	2306	2	1	14	2	1	2	4	3	1	2	1	0.47303	1	0.9	0	12	30	31	0
10-Apr-13	sub2306	2306	2	1	15	2	1	2	4	3	1	2	1	0.41769	1	0.9	0	12	30	31	0
10-Apr-13	sub2306	2306	2	1	16	2	1	3	6	6	1	1	1	0.05259	1	0.8	0	13	32	33	0
10-Apr-13	sub2306	2306	2	1	17	2	1	1	5	6	1	2	0	0.45452	0	0.8	0	11	40	41	0
10-Apr-13	sub2306	2306	2	1	18	2	1	1	5	6	1	2	0	0.41808	0	0.7	0	11	40	41	0
10-Apr-13	sub2306	2306	2	1	19	2	1	4	2	2	1	2	1	0.00191	1	0.7	0	14	32	33	0
10-Apr-13	sub2306	2306	2	1	20	2	1	5	3	3	1	1	1	0.38857	1	0.7	0	15	35	36	0
10-Apr-13	sub2306	2306	2	1	21	2	1	5	3	3	0	1	0	0.43135	1	0.6	0	15	37	48	0
10-Apr-13	sub2306	2306	2	1	22	2	1	6	1	2	1	2	1	0.43503	1	0.6	0	16	35	36	0
10-Apr-13	sub2306	2306	2	1	23	2	1	5	3	3	0	1	0	0.43262	1	0.6	0	15	37	48	0
10-Apr-13	sub2306	2306	2	1	24	2	1	2	4	3	1	2	1	0.00009	1	0.6	0	12	30	31	0
10-Apr-13	sub2306	2306	2	1	25	2	1	6	1	2	1	2	1	0.3731	1	0.6	0	16	35	36	0
10-Apr-13	sub2306	2306	2	1	26	2	1	4	2	2	1	2	1	0.46063	1	0.5	0	14	32	33	0
10-Apr-13	sub2306	2306	2	1	27	2	1	2	4	3	1	2	1	0.38776	1	0.5	0	12	30	31	0
10-Apr-13	sub2306	2306	2	1	28	2	1	4	2	2	1	2	1	0.41629	1	0.5	0	14	32	33	0
10-Apr-13	sub2306	2306	2	1	29	2	1	6	1	2	0	2	0	0.38477	1	0.5	0	16	37	48	0
10-Apr-13	sub2306	2306	2	1	30	2	1	5	3	3	1	1	1	0.46888	1	0.5	0	15	35	36	0
10-Apr-13	sub2306	2306	2	1	31	2	1	3	6	6	1	1	1	0.06126	1	0.5	0	13	32	33	0
10-Apr-13	sub2306	2306	2	1	32	2	1	5	3	3	0	1	0	0.4023	1	0.5	0	15	37	48	0
10-Apr-13	sub2306	2306	2	1	33	2	1	2	4	3	1	2	1	0.39	1	0.5	0	12	30	31	0
10-Apr-13	sub2306	2306	2	1	34	2	1	2	4	3	1	2	1	0.33546	1	0.5	0	12	30	31	0
10-Apr-13	sub2306	2306	2	1	35	2	1	1	5	6	1	2	0	0.38516	0	0.4	0	11	40	41	0
10-Apr-13	sub2306	2306	2	1	36	2	1	3	6	6	1	1	1	0.48409	1	0.4	1	13	32	51	0
10-Apr-13	sub2306	2306	2	1	37	2	1	1	5	6	1	1	1	0.42524	1	0.7	0	11	30	31	0
10-Apr-13	sub2306	2306	2	1	38	2	1	5	3	3	0	1	0	0.48175	1	0.7	0	15	37	48	0
10-Apr-13	sub2306	2306	2	1	39	2	1	1	5	6	1	2	0	0.10487	0	0.7	0	11	40	41	0
10-Apr-13	sub2306	2306	2	1	40	2	1	2	4	3	1	2	1	0.02165	1	0.7	0	12	30	31	0
10-Apr-13	sub2306	2306	2	1	41	2	1	6	1	2	1	2	1	0.38605	1	0.6	0	16	35	36	0
10-Apr-13	sub2306	2306	2	1	42	2	1	2	4	3	1	2	1	0.36479	1	0.6	0	12	30	31	0
10-Apr-13	sub2306	2306	2	1	43	2	1	2	4	3	1	2	1	0.36391	1	0.6	0	12	30	31	0
10-Apr-13	sub2306	2306	2	1	44	2	1	4	2	2	1	2	1	0.43126	1	0.6	0	14	32	33	0
10-Apr-13	sub2306	2306	2	1	45	2	1	3	6	6	0	2	1	0.47398	0	0.6	0	13	44	39	0
10-Apr-13	sub2306	2306	2	1	46	2	1	4	2	2	0	2	0	0.4638	1	0.6	0	14	34	49	0
10-Apr-13	sub2306	2306	2	1	47	2	1	1	5	6	1	2	0	0.46255	0	0.6	0	11	40	41	0
10-Apr-13	sub2306	2306	2	1	48	2	1	5	3	3	0	1	0	0.47994	1	0.6	0	15	37	48	0
10-Apr-13	sub2306	2306	2	1	49	2	1	1	5	6	1	2	0	0.41691	0	0.6	0	11	40	41	0
10-Apr-13	sub2306	2306	2	1	50	2	1	6	1	2	1	2	1	0.43584	1	0.6	0	16	35	36	0
10-Apr-13	sub2306	2306	2	1	51	2	1	6	1	2	0	2	0	0.3534	1	0.5	0	16	37	48	0
10-Apr-13	sub2306	2306	2	1	52	2	1	4	2	2	1	2	1	0.07803	1	0.5	0	14	32	33	0
10-Apr-13	sub2306	2306	2	1	53	2	1	5	3	3	1	1	1	0.44112	1	0.5	0	15	35	36	0
10-Apr-13	sub2306	2306	2	1	54	2	1	4	2	2	1	1	0	0.42357	0	0.5	0	14	42	43	0
10-Apr-13	sub2306	2306	2	1	55	2	1	2	4	3	1	2	1	0.37849	1	0.5	0	12	30	31	0
10-Apr-13	sub2306	2306	2	1	56	2	1	1	5	6	1	2	0	0.3548	0	0.5	0	11	40	41	0
10-Apr-13	sub2306	2306	2	1	57	2	1	4	2	2	1	2	1	0.49228	1	0.5	0	14	32	33	0
10-Apr-13	sub2306	2306	2	1	58	2	1	3	6	6	1	1	1	0.00452	1	0.5	0	13	32	33	0
10-Apr-13	sub2306	2306	2	1	59	2	1	1	5	6	1	1	1	0.40117	1	0.5	0	11	30	31	0
10-Apr-13	sub2306	2306	2	1	60	2	1	1	5	6	1	1	1	0.41943	1	0.5	0	11	30	31	0
10-Apr-13	sub2306	2306	2	1	61	2	1	5	3	3	1	1	1	0.47853	1	0.5	0	15	35	36	0
10-Apr-13	sub2306	2306	2	1	62	2	1	1	5	6	1	2	0	0.38154	0	0.5	0	11	40	41	0
10-Apr-13	sub2306	2306	2	1	63	2	1	3	6	6	0	1	0	0.46057	1	0.5	0	13	34	49	0
10-Apr-13	sub2306	2306	2	1	64	2	1	6	1	2	0	2	0	0.44765	1	0.5	0	16	37	48	0
10-Apr-13	sub2306	2306	2	1	65	2	1	3	6	6	1	1	1	0.47534	1	0.5	0	13	32	33	0
10-Apr-13	sub2306	2306	2	1	66	2	1	2	4	3	1	2	1	0.42791	1	0.5	0	12	30	31	0
10-Apr-13	sub2306	2306	2	1	67	2	1	4	2	2	1	2	1	0.46567	1	0.5	0	14	32	33	0
10-Apr-13	sub2306	2306	2	1	68	2	1	6	1	2	0	2	0	0.38118	1	0.4	0	16	37	48	0
10-Apr-13	sub2306	2306	2	1	69	2	1	6	1	2	0	1	1	0.0455	0	0.4	0	16	47	38	0
10-Apr-13	sub2306	2306	2	1	70	2	1	6	1	2	1	1	0	0.3648	0	0.4	0	16	45	46	0
10-Apr-13	sub2306	2306	2	1	71	2	1	5	3	3	1	1	1	0.00106	1	0.4	0	15	35	36	0
10-Apr-13	sub2306	2306	2	1	72	2	1	2	4	3	1	2	1	0.01278	1	0.4	0	12	30	31	0
10-Apr-13	sub2306	2306	2	1	73	2	1	3	6	6	0	1	0	0.42573	1	0.4	1	13	34	51	0
10-Apr-13	sub2306	2306	2	1	74	2	1	3	6	6	1	1	1	0.3518	1	0.6	0	13	32	33	0
10-Apr-13	sub2306	2306	2	1	75	2	1	4	2	2	1	2	1	0.43375	1	0.6	0	14	32	33	0
10-Apr-13	sub2306	2306	2	1	76	2	2	4	2	2	1	2	1	0.48943	1	0.5	0	24	62	63	0
10-Apr-13	sub2306	2306	2	1	77	2	2	5	3	3	0	1	0	0.44905	1	0.5	0	25	67	88	0
10-Apr-13	sub2306	2306	2	1	78	2	2	4	2	2	0	2	0	0.47191	1	0.5	0	24	64	89	0
10-Apr-13	sub2306	2306	2	1	79	2	2	1	5	6	1	1	1	0.47089	1	0.5	0	21	60	61	0
10-Apr-13	sub2306	2306	2	1	80	2	2	3	6	6	1	1	1	0.01129	1	0.5	0	23	62	63	0
10-Apr-13	sub2306	2306	2	1	81	2	2	2	4	3	1	2	1	0.0081	1	0.5	0	22	60	61	0
10-Apr-13	sub2306	2306	2	1	82	2	2	2	4	3	1	2	1	0.41435	1	0.5	0	22	60	61	0
10-Apr-13	sub2306	2306	2	1	83	2	2	1	5	6	1	2	0	0.34403	0	0.5	0	21	80	81	0
10-Apr-13	sub2306	2306	2	1	84	2	2	5	3	3	0	1	0	0.36078	1	0.5	0	25	67	88	0
10-Apr-13	sub2306	2306	2	1	85	2	2	2	4	3	1	2	1	0.436	1	0.5	0	22	60	61	0
10-Apr-13	sub2306	2306	2	1	86	2	2	1	5	6	1	1	1	0.35243	1	0.5	0	21	60	61	0
10-Apr-13	sub2306	2306	2	1	87	2	2	3	6	6	1	1	1	0.44627	1	0.5	0	23	62	63	0
10-Apr-13	sub2306	2306	2	1	88	2	2	1	5	6	1	1	1	0.46024	1	0.5	0	21	60	61	0
10-Apr-13	sub2306	2306	2	1	89	2	2	2	4	3	1	2	1	0.45449	1	0.5	0	22	60	61	0
10-Apr-13	sub2306	2306	2	1	90	2	2	3	6	6	1	1	1	0.35785	1	0.5	0	23	62	63	0
10-Apr-13	sub2306	2306	2	1	91	2	2	2	4	3	1	2	1	0.43191	1	0.5	0	22	60	61	0
10-Apr-13	sub2306	2306	2	1	92	2	2	2	4	3	1	2	1	0.42424	1	0.5	0	22	60	61	0
10-Apr-13	sub2306	2306	2	1	93	2	2	1	5	6	1	1	1	0.45664	1	0.5	0	21	60	61	0
10-Apr-13	sub2306	2306	2	1	94	2	2	4	2	2	0	2	0	0.0441	1	0.5	0	24	64	89	0
10-Apr-13	sub2306	2306	2	1	95	2	2	6	1	2	1	1	0	0.37525	0	0.5	0	26	85	86	0
10-Apr-13	sub2306	2306	2	1	96	2	2	5	3	3	0	1	0	0.49784	1	0.5	0	25	67	88	0
10-Apr-13	sub2306	2306	2	1	97	2	2	3	6	6	1	1	1	0.47984	1	0.5	0	23	62	63	0
10-Apr-13	sub2306	2306	2	1	98	2	2	2	4	3	1	2	1	0.4411	1	0.5	0	22	60	61	0
10-Apr-13	sub2306	2306	2	1	99	2	2	1	5	6	1	1	1	0.01959	1	0.5	0	21	60	61	0
10-Apr-13	sub2306	2306	2	1	100	2	2	3	6	6	1	1	1	0.43612	1	0.5	0	23	62	63	0
10-Apr-13	sub2306	2306	2	1	101	2	2	3	6	6	1	1	1	0.36534	1	0.4	0	23	62	63	0
10-Apr-13	sub2306	2306	2	1	102	2	2	1	5	6	1	2	0	0.40152	0	0.4	1	21	80	51	0
10-Apr-13	sub2306	2306	2	1	103	2	2	5	3	3	0	1	0	0.46998	1	0.5	0	25	67	88	0
10-Apr-13	sub2306	2306	2	1	104	2	2	3	6	6	1	1	1	0.47451	1	0.5	0	23	62	63	0
10-Apr-13	sub2306	2306	2	1	105	2	2	4	2	2	1	2	1	0.03796	1	0.5	0	24	62	63	0
10-Apr-13	sub2306	2306	2	1	106	2	2	5	3	3	0	1	0	0.39737	1	0.5	0	25	67	88	0
10-Apr-13	sub2306	2306	2	1	107	2	2	3	6	6	1	1	1	0.43761	1	0.5	0	23	62	63	0
10-Apr-13	sub2306	2306	2	1	108	2	2	6	1	2	1	2	1	0.44394	1	0.5	0	26	65	66	0
10-Apr-13	sub2306	2306	2	1	109	2	2	5	3	3	0	1	0	0.48514	1	0.5	0	25	67	88	0
10-Apr-13	sub2306	2306	2	1	110	2	2	5	3	3	0	2	1	0.33873	0	0.5	0	25	87	68	0
10-Apr-13	sub2306	2306	2	1	111	2	2	1	5	6	1	1	1	0.06592	1	0.5	0	21	60	61	0
10-Apr-13	sub2306	2306	2	1	112	2	2	5	3	3	0	2	1	0.0957	0	0.5	0	25	87	68	0
10-Apr-13	sub2306	2306	2	1	113	2	2	6	1	2	0	2	0	0.47527	1	0.5	0	26	67	88	0
10-Apr-13	sub2306	2306	2	1	114	2	2	6	1	2	0	2	0	0.41687	1	0.5	0	26	67	88	0
10-Apr-13	sub2306	2306	2	1	115	2	2	4	2	2	1	1	0	0.09287	0	0.5	0	24	82	83	0
10-Apr-13	sub2306	2306	2	1	116	2	2	4	2	2	1	2	1	0.02899	1	0.5	0	24	62	63	0
10-Apr-13	sub2306	2306	2	1	117	2	2	5	3	3	0	2	1	0.12699	0	0.5	0	25	87	68	0
10-Apr-13	sub2306	2306	2	1	118	2	2	3	6	6	0	1	0	0.36566	1	0.5	0	23	64	89	0
10-Apr-13	sub2306	2306	2	1	119	2	2	6	1	2	1	1	0	0.44121	0	0.5	0	26	85	86	0
10-Apr-13	sub2306	2306	2	1	120	2	2	4	2	2	1	2	1	0.14561	1	0.5	0	24	62	63	0
10-Apr-13	sub2306	2306	2	1	121	2	2	6	1	2	0	2	0	0.48637	1	0.5	0	26	67	88	0
10-Apr-13	sub2306	2306	2	1	122	2	2	2	4	3	1	2	1	0.47566	1	0.5	0	22	60	61	0
10-Apr-13	sub2306	2306	2	1	123	2	2	2	4	3	1	2	1	0.42316	1	0.5	0	22	60	61	0
10-Apr-13	sub2306	2306	2	1	124	2	2	6	1	2	1	1	0	0.07486	0	0.5	0	26	85	86	0
10-Apr-13	sub2306	2306	2	1	125	2	2	4	2	2	1	2	1	0.44402	1	0.5	0	24	62	63	0
10-Apr-13	sub2306	2306	2	1	126	2	2	4	2	2	1	2	1	0.38696	1	0.5	0	24	62	63	0
10-Apr-13	sub2306	2306	2	1	127	2	2	5	3	3	0	1	0	0.02105	1	0.5	0	25	67	88	0
10-Apr-13	sub2306	2306	2	1	128	2	2	3	6	6	1	2	0	0.43699	0	0.5	0	23	82	83	0
10-Apr-13	sub2306	2306	2	1	129	2	2	5	3	3	0	1	0	0.45044	1	0.5	0	25	67	88	0
10-Apr-13	sub2306	2306	2	1	130	2	2	6	1	2	0	2	0	0.45608	1	0.5	0	26	67	88	0
10-Apr-13	sub2306	2306	2	1	131	2	2	2	4	3	1	2	1	0.4893	1	0.5	0	22	60	61	0
10-Apr-13	sub2306	2306	2	1	132	2	2	5	3	3	0	2	1	0.41017	0	0.5	0	25	87	68	0
10-Apr-13	sub2306	2306	2	1	133	2	2	4	2	2	0	2	0	0.41634	1	0.5	0	24	64	89	0
10-Apr-13	sub2306	2306	2	1	134	2	2	6	1	2	1	2	1	0.47324	1	0.5	0	26	65	66	0
10-Apr-13	sub2306	2306	2	1	135	2	2	6	1	2	0	2	0	0.45058	1	0.4	1	26	67	51	0
10-Apr-13	sub2306	2306	2	1	136	2	2	2	4	3	1	2	1	0.48994	1	0.5	0	22	60	61	0
10-Apr-13	sub2306	2306	2	1	137	2	2	3	6	6	1	1	1	0.4687	1	0.5	0	23	62	63	0
10-Apr-13	sub2306	2306	2	1	138	2	2	2	4	3	1	2	1	0.40754	1	0.5	0	22	60	61	0
10-Apr-13	sub2306	2306	2	1	139	2	2	1	5	6	1	1	1	0.04488	1	0.5	0	21	60	61	0
10-Apr-13	sub2306	2306	2	1	140	2	2	4	2	2	1	2	1	0.4422	1	0.5	0	24	62	63	0
10-Apr-13	sub2306	2306	2	1	141	2	2	5	3	3	0	1	0	0.46646	1	0.5	0	25	67	88	0
10-Apr-13	sub2306	2306	2	1	142	2	2	1	5	6	1	1	1	0.04685	1	0.5	0	21	60	61	0
10-Apr-13	sub2306	2306	2	1	143	2	2	1	5	6	1	1	1	0.45092	1	0.5	0	21	60	61	0
10-Apr-13	sub2306	2306	2	1	144	2	2	3	6	6	0	1	0	0.49317	1	0.5	0	23	64	89	0
10-Apr-13	sub2306	2306	2	1	145	2	2	1	5	6	1	1	1	0.02086	1	0.5	0	21	60	61	0
10-Apr-13	sub2306	2306	2	1	146	2	2	1	5	6	1	1	1	0.36212	1	0.5	0	21	60	61	0
10-Apr-13	sub2306	2306	2	1	147	2	2	6	1	2	1	2	1	0.00361	1	0.5	0	26	65	66	0
10-Apr-13	sub2306	2306	2	1	148	2	2	4	2	2	1	2	1	0.00354	1	0.5	0	24	62	63	0
10-Apr-13	sub2306	2306	2	1	149	2	2	4	2	2	1	2	1	0.38262	1	0.5	0	24	62	63	0
10-Apr-13	sub2306	2306	2	1	150	2	2	6	1	2	0	2	0	0.40552	1	0.5	0	26	67	88	0
10-Apr-13	sub2306	2306	2	1	1	3	1	2	5	3	1	2	1	0.47613	1	0.6	0	12	30	31	0
10-Apr-13	sub2306	2306	2	1	2	3	1	2	5	3	1	2	1	0.39433	1	0.3	1	12	30	51	0
10-Apr-13	sub2306	2306	2	1	3	3	1	6	1	5	0	2	0	0.45558	1	0.9	0	16	37	48	0
10-Apr-13	sub2306	2306	2	1	4	3	1	5	4	4	0	2	1	0.40757	0	0.9	0	15	47	38	0
10-Apr-13	sub2306	2306	2	1	5	3	1	6	1	5	1	1	0	0.02433	0	0.9	0	16	45	46	0
10-Apr-13	sub2306	2306	2	1	6	3	1	4	2	3	1	1	0	0.10062	0	0.9	0	14	42	43	0
10-Apr-13	sub2306	2306	2	1	7	3	1	3	6	3	1	1	1	0.49146	1	0.9	0	13	32	33	0
10-Apr-13	sub2306	2306	2	1	8	3	1	6	1	5	1	2	1	0.39982	1	0.9	0	16	35	36	0
10-Apr-13	sub2306	2306	2	1	9	3	1	2	5	3	1	2	1	0.40525	1	0.9	0	12	30	31	0
10-Apr-13	sub2306	2306	2	1	10	3	1	4	2	3	1	1	0	0.10978	0	0.9	0	14	42	43	0
10-Apr-13	sub2306	2306	2	1	11	3	1	5	4	4	1	2	0	0.39142	0	0.9	0	15	45	46	0
10-Apr-13	sub2306	2306	2	1	12	3	1	4	2	3	1	2	1	0.49396	1	0.9	0	14	32	33	0
10-Apr-13	sub2306	2306	2	1	13	3	1	3	6	3	1	2	0	0.05585	0	0.9	0	13	42	43	0
10-Apr-13	sub2306	2306	2	1	14	3	1	2	5	3	1	2	1	0.49979	1	0.9	0	12	30	31	0
10-Apr-13	sub2306	2306	2	1	15	3	1	1	3	4	1	2	0	0.03705	0	0.9	0	11	40	41	0
10-Apr-13	sub2306	2306	2	1	16	3	1	3	6	3	1	1	1	0.41537	1	0.8	0	13	32	33	0
10-Apr-13	sub2306	2306	2	1	17	3	1	4	2	3	1	1	0	0.02815	0	0.8	0	14	42	43	0
10-Apr-13	sub2306	2306	2	1	18	3	1	3	6	3	1	1	1	0.41801	1	0.7	0	13	32	33	0
10-Apr-13	sub2306	2306	2	1	19	3	1	3	6	3	0	1	0	0.37255	1	0.7	0	13	34	49	0
10-Apr-13	sub2306	2306	2	1	20	3	1	4	2	3	1	2	1	0.48004	1	0.7	0	14	32	33	0
10-Apr-13	sub2306	2306	2	1	21	3	1	2	5	3	1	2	1	0.38207	1	0.6	0	12	30	31	0
10-Apr-13	sub2306	2306	2	1	22	3	1	5	4	4	1	2	0	0.36496	0	0.6	0	15	45	46	0
10-Apr-13	sub2306	2306	2	1	23	3	1	1	3	4	1	2	0	0.34244	0	0.6	0	11	40	41	0
10-Apr-13	sub2306	2306	2	1	24	3	1	5	4	4	1	2	0	0.48894	0	0.6	0	15	45	46	0
10-Apr-13	sub2306	2306	2	1	25	3	1	5	4	4	0	2	1	0.45083	0	0.6	0	15	47	38	0
10-Apr-13	sub2306	2306	2	1	26	3	1	2	5	3	1	2	1	0.43704	1	0.5	0	12	30	31	0
10-Apr-13	sub2306	2306	2	1	27	3	1	2	5	3	1	2	1	0.40104	1	0.5	0	12	30	31	0
10-Apr-13	sub2306	2306	2	1	28	3	1	4	2	3	0	1	1	0.45991	0	0.5	0	14	44	39	0
10-Apr-13	sub2306	2306	2	1	29	3	1	1	3	4	1	1	1	0.49359	1	0.5	0	11	30	31	0
10-Apr-13	sub2306	2306	2	1	30	3	1	3	6	3	0	1	0	0.3921	1	0.5	0	13	34	49	0
10-Apr-13	sub2306	2306	2	1	31	3	1	1	3	4	1	1	1	0.17391	1	0.5	0	11	30	31	0
10-Apr-13	sub2306	2306	2	1	32	3	1	4	2	3	1	1	0	0.00866	0	0.5	0	14	42	43	0
10-Apr-13	sub2306	2306	2	1	33	3	1	4	2	3	1	1	0	0.46622	0	0.5	0	14	42	43	0
10-Apr-13	sub2306	2306	2	1	34	3	1	1	3	4	1	2	0	0.41518	0	0.5	0	11	40	41	0
10-Apr-13	sub2306	2306	2	1	35	3	1	2	5	3	1	2	1	0.4588	1	0.4	1	12	30	51	0
10-Apr-13	sub2306	2306	2	1	36	3	1	5	4	4	0	2	1	0.4197	0	0.7	0	15	47	38	0
10-Apr-13	sub2306	2306	2	1	37	3	1	1	3	4	1	1	1	0.47967	1	0.7	0	11	30	31	0
10-Apr-13	sub2306	2306	2	1	38	3	1	5	4	4	0	2	1	0.48272	0	0.7	0	15	47	38	0
10-Apr-13	sub2306	2306	2	1	39	3	1	3	6	3	1	1	1	0.04184	1	0.7	0	13	32	33	0
10-Apr-13	sub2306	2306	2	1	40	3	1	1	3	4	1	1	1	0.46287	1	0.7	0	11	30	31	0
10-Apr-13	sub2306	2306	2	1	41	3	1	3	6	3	1	1	1	0.40551	1	0.6	0	13	32	33	0
10-Apr-13	sub2306	2306	2	1	42	3	1	4	2	3	1	1	0	0.46745	0	0.6	0	14	42	43	0
10-Apr-13	sub2306	2306	2	1	43	3	1	3	6	3	1	1	1	0.06151	1	0.6	0	13	32	33	0
10-Apr-13	sub2306	2306	2	1	44	3	1	5	4	4	1	2	0	0.01124	0	0.6	0	15	45	46	0
10-Apr-13	sub2306	2306	2	1	45	3	1	1	3	4	1	2	0	0.38224	0	0.6	0	11	40	41	0
10-Apr-13	sub2306	2306	2	1	46	3	1	6	1	5	1	1	0	0.09853	0	0.6	0	16	45	46	0
10-Apr-13	sub2306	2306	2	1	47	3	1	2	5	3	1	2	1	0.3986	1	0.6	0	12	30	31	0
10-Apr-13	sub2306	2306	2	1	48	3	1	6	1	5	0	1	1	0.39696	0	0.6	0	16	47	38	0
10-Apr-13	sub2306	2306	2	1	49	3	1	2	5	3	1	2	1	0.42723	1	0.6	0	12	30	31	0
10-Apr-13	sub2306	2306	2	1	50	3	1	3	6	3	1	1	1	0.4546	1	0.6	0	13	32	33	0
10-Apr-13	sub2306	2306	2	1	51	3	1	4	2	3	1	1	0	0.46602	0	0.5	0	14	42	43	0
10-Apr-13	sub2306	2306	2	1	52	3	1	1	3	4	1	1	1	0.3296	1	0.5	0	11	30	31	0
10-Apr-13	sub2306	2306	2	1	53	3	1	4	2	3	1	1	0	0.02081	0	0.5	0	14	42	43	0
10-Apr-13	sub2306	2306	2	1	54	3	1	3	6	3	0	1	0	0.43266	1	0.5	0	13	34	49	0
10-Apr-13	sub2306	2306	2	1	55	3	1	6	1	5	0	1	1	0.47095	0	0.5	0	16	47	38	0
10-Apr-13	sub2306	2306	2	1	56	3	1	2	5	3	1	2	1	0.42796	1	0.5	0	12	30	31	0
10-Apr-13	sub2306	2306	2	1	57	3	1	5	4	4	0	2	1	0.41005	0	0.5	0	15	47	38	0
10-Apr-13	sub2306	2306	2	1	58	3	1	6	1	5	1	1	0	0.14642	0	0.5	0	16	45	46	0
10-Apr-13	sub2306	2306	2	1	59	3	1	5	4	4	1	2	0	0.45215	0	0.5	0	15	45	46	0
10-Apr-13	sub2306	2306	2	1	60	3	1	6	1	5	0	1	1	0.14841	0	0.5	0	16	47	38	0
10-Apr-13	sub2306	2306	2	1	61	3	1	6	1	5	0	1	1	0.02768	0	0.5	0	16	47	38	0
10-Apr-13	sub2306	2306	2	1	62	3	1	2	5	3	1	2	1	0.45426	1	0.5	0	12	30	31	0
10-Apr-13	sub2306	2306	2	1	63	3	1	1	3	4	1	2	0	0.00097	0	0.5	0	11	40	41	0
10-Apr-13	sub2306	2306	2	1	64	3	1	3	6	3	1	1	1	0.04182	1	0.5	0	13	32	33	0
10-Apr-13	sub2306	2306	2	1	65	3	1	5	4	4	0	2	1	0.48608	0	0.5	0	15	47	38	0
10-Apr-13	sub2306	2306	2	1	66	3	1	5	4	4	1	2	0	0.41828	0	0.5	0	15	45	46	0
10-Apr-13	sub2306	2306	2	1	67	3	1	6	1	5	0	1	1	0.44854	0	0.5	0	16	47	38	0
10-Apr-13	sub2306	2306	2	1	68	3	1	2	5	3	1	2	1	0.46643	1	0.4	1	12	30	51	0
10-Apr-13	sub2306	2306	2	1	69	3	1	6	1	5	0	1	1	0.00321	0	0.6	0	16	47	38	0
10-Apr-13	sub2306	2306	2	1	70	3	1	4	2	3	0	1	1	0.02551	0	0.6	0	14	44	39	0
10-Apr-13	sub2306	2306	2	1	71	3	1	1	3	4	1	1	1	0.44826	1	0.6	0	11	30	31	0
10-Apr-13	sub2306	2306	2	1	72	3	1	6	1	5	1	1	0	0.4945	0	0.6	0	16	45	46	0
10-Apr-13	sub2306	2306	2	1	73	3	1	1	3	4	1	1	1	0.41927	1	0.6	0	11	30	31	0
10-Apr-13	sub2306	2306	2	1	74	3	1	3	6	3	1	1	1	0.38882	1	0.6	0	13	32	33	0
10-Apr-13	sub2306	2306	2	1	75	3	1	6	1	5	1	1	0	0.40723	0	0.6	0	16	45	46	0
10-Apr-13	sub2306	2306	2	1	76	3	2	2	5	3	1	2	1	0.02778	1	0.5	0	22	60	61	0
10-Apr-13	sub2306	2306	2	1	77	3	2	5	4	4	0	2	1	0.49825	0	0.5	0	25	87	68	0
10-Apr-13	sub2306	2306	2	1	78	3	2	3	6	3	0	1	0	0.46904	1	0.5	0	23	64	89	0
10-Apr-13	sub2306	2306	2	1	79	3	2	5	4	4	0	2	1	0.408	0	0.5	0	25	87	68	0
10-Apr-13	sub2306	2306	2	1	80	3	2	5	4	4	0	2	1	0.47098	0	0.5	0	25	87	68	0
10-Apr-13	sub2306	2306	2	1	81	3	2	5	4	4	0	2	1	0.47396	0	0.5	0	25	87	68	0
10-Apr-13	sub2306	2306	2	1	82	3	2	6	1	5	1	1	0	0.46113	0	0.5	0	26	85	86	0
10-Apr-13	sub2306	2306	2	1	83	3	2	1	3	4	1	1	1	0.02094	1	0.5	0	21	60	61	0
10-Apr-13	sub2306	2306	2	1	84	3	2	4	2	3	1	1	0	0.11571	0	0.5	0	24	82	83	0
10-Apr-13	sub2306	2306	2	1	85	3	2	1	3	4	1	1	1	0.02475	1	0.5	0	21	60	61	0
10-Apr-13	sub2306	2306	2	1	86	3	2	6	1	5	0	1	1	0.01451	0	0.5	0	26	87	68	0
10-Apr-13	sub2306	2306	2	1	87	3	2	6	1	5	1	1	0	0.44165	0	0.5	0	26	85	86	0
10-Apr-13	sub2306	2306	2	1	88	3	2	1	3	4	1	1	1	0.01178	1	0.5	0	21	60	61	0
10-Apr-13	sub2306	2306	2	1	89	3	2	2	5	3	1	2	1	0.06171	1	0.5	0	22	60	61	0
10-Apr-13	sub2306	2306	2	1	90	3	2	1	3	4	1	1	1	0.49219	1	0.5	0	21	60	61	0
10-Apr-13	sub2306	2306	2	1	91	3	2	6	1	5	1	1	0	0.07477	0	0.5	0	26	85	86	0
10-Apr-13	sub2306	2306	2	1	92	3	2	3	6	3	1	1	1	0.49186	1	0.5	0	23	62	63	0
10-Apr-13	sub2306	2306	2	1	93	3	2	6	1	5	0	2	0	0.47025	1	0.5	0	26	67	88	0
10-Apr-13	sub2306	2306	2	1	94	3	2	2	5	3	1	2	1	0.00206	1	0.5	0	22	60	61	0
10-Apr-13	sub2306	2306	2	1	95	3	2	3	6	3	1	1	1	0.47623	1	0.5	0	23	62	63	0
10-Apr-13	sub2306	2306	2	1	96	3	2	2	5	3	1	2	1	0.45118	1	0.5	0	22	60	61	0
10-Apr-13	sub2306	2306	2	1	97	3	2	4	2	3	1	1	0	0.09228	0	0.5	0	24	82	83	0
10-Apr-13	sub2306	2306	2	1	98	3	2	6	1	5	0	1	1	0.47407	0	0.5	0	26	87	68	0
10-Apr-13	sub2306	2306	2	1	99	3	2	1	3	4	1	1	1	0.48203	1	0.5	0	21	60	61	0
10-Apr-13	sub2306	2306	2	1	100	3	2	1	3	4	1	1	1	0.48527	1	0.5	0	21	60	61	0
10-Apr-13	sub2306	2306	2	1	101	3	2	5	4	4	0	2	1	0.05803	0	0.4	0	25	87	68	0
10-Apr-13	sub2306	2306	2	1	102	3	2	3	6	3	1	1	1	0.47277	1	0.4	1	23	62	51	0
10-Apr-13	sub2306	2306	2	1	103	3	2	6	1	5	1	1	0	0.02228	0	0.5	0	26	85	86	0
10-Apr-13	sub2306	2306	2	1	104	3	2	1	3	4	1	1	1	0.49671	1	0.5	0	21	60	61	0
10-Apr-13	sub2306	2306	2	1	105	3	2	4	2	3	1	2	1	0.01469	1	0.5	0	24	62	63	0
10-Apr-13	sub2306	2306	2	1	106	3	2	4	2	3	1	2	1	0.44258	1	0.5	0	24	62	63	0
10-Apr-13	sub2306	2306	2	1	107	3	2	3	6	3	1	1	1	0.48462	1	0.5	0	23	62	63	0
10-Apr-13	sub2306	2306	2	1	108	3	2	4	2	3	1	1	0	0.41344	0	0.5	0	24	82	83	0
10-Apr-13	sub2306	2306	2	1	109	3	2	2	5	3	1	2	1	0.42783	1	0.5	0	22	60	61	0
10-Apr-13	sub2306	2306	2	1	110	3	2	4	2	3	1	2	1	0.40103	1	0.5	0	24	62	63	0
10-Apr-13	sub2306	2306	2	1	111	3	2	3	6	3	1	1	1	0.49524	1	0.5	0	23	62	63	0
10-Apr-13	sub2306	2306	2	1	112	3	2	2	5	3	1	2	1	0.43685	1	0.5	0	22	60	61	0
10-Apr-13	sub2306	2306	2	1	113	3	2	2	5	3	1	2	1	0.39068	1	0.5	0	22	60	61	0
10-Apr-13	sub2306	2306	2	1	114	3	2	4	2	3	1	2	1	0.44291	1	0.5	0	24	62	63	0
10-Apr-13	sub2306	2306	2	1	115	3	2	6	1	5	0	1	1	0.06961	0	0.5	0	26	87	68	0
10-Apr-13	sub2306	2306	2	1	116	3	2	6	1	5	0	1	1	0.40512	0	0.5	0	26	87	68	0
10-Apr-13	sub2306	2306	2	1	117	3	2	5	4	4	0	2	1	0.49661	0	0.5	0	25	87	68	0
10-Apr-13	sub2306	2306	2	1	118	3	2	3	6	3	1	1	1	0.00761	1	0.5	0	23	62	63	0
10-Apr-13	sub2306	2306	2	1	119	3	2	3	6	3	1	1	1	0.4804	1	0.5	0	23	62	63	0
10-Apr-13	sub2306	2306	2	1	120	3	2	1	3	4	1	1	1	0.47836	1	0.5	0	21	60	61	0
10-Apr-13	sub2306	2306	2	1	121	3	2	4	2	3	0	2	0	0.0878	1	0.5	0	24	64	89	0
10-Apr-13	sub2306	2306	2	1	122	3	2	3	6	3	1	1	1	0.02137	1	0.5	0	23	62	63	0
10-Apr-13	sub2306	2306	2	1	123	3	2	3	6	3	1	1	1	0.47092	1	0.5	0	23	62	63	0
10-Apr-13	sub2306	2306	2	1	124	3	2	1	3	4	1	1	1	0.48931	1	0.5	0	21	60	61	0
10-Apr-13	sub2306	2306	2	1	125	3	2	2	5	3	1	2	1	0.00347	1	0.5	0	22	60	61	0
10-Apr-13	sub2306	2306	2	1	126	3	2	4	2	3	0	1	1	0.48128	0	0.5	0	24	84	69	0
10-Apr-13	sub2306	2306	2	1	127	3	2	4	2	3	0	1	1	0.4116	0	0.5	0	24	84	69	0
10-Apr-13	sub2306	2306	2	1	128	3	2	6	1	5	1	1	0	0.4747	0	0.5	0	26	85	86	0
10-Apr-13	sub2306	2306	2	1	129	3	2	1	3	4	1	1	1	0.44356	1	0.5	0	21	60	61	0
10-Apr-13	sub2306	2306	2	1	130	3	2	1	3	4	1	1	1	0.47115	1	0.5	0	21	60	61	0
10-Apr-13	sub2306	2306	2	1	131	3	2	1	3	4	1	1	1	0.02375	1	0.5	0	21	60	61	0
10-Apr-13	sub2306	2306	2	1	132	3	2	2	5	3	1	2	1	0.49003	1	0.5	0	22	60	61	0
10-Apr-13	sub2306	2306	2	1	133	3	2	2	5	3	1	2	1	0.38085	1	0.5	0	22	60	61	0
10-Apr-13	sub2306	2306	2	1	134	3	2	2	5	3	1	2	1	0.42372	1	0.5	0	22	60	61	0
10-Apr-13	sub2306	2306	2	1	135	3	2	6	1	5	1	1	0	0.00613	0	0.4	0	26	85	86	0
10-Apr-13	sub2306	2306	2	1	136	3	2	5	4	4	0	2	1	0.40549	0	0.4	1	25	87	51	0
10-Apr-13	sub2306	2306	2	1	137	3	2	5	4	4	0	2	1	0.39039	0	0.5	0	25	87	68	0
10-Apr-13	sub2306	2306	2	1	138	3	2	4	2	3	1	2	1	0.36729	1	0.5	0	24	62	63	0
10-Apr-13	sub2306	2306	2	1	139	3	2	6	1	5	0	1	1	0.48218	0	0.5	0	26	87	68	0
10-Apr-13	sub2306	2306	2	1	140	3	2	3	6	3	0	1	0	0.49562	1	0.5	0	23	64	89	0
10-Apr-13	sub2306	2306	2	1	141	3	2	4	2	3	1	1	0	0.07782	0	0.5	0	24	82	83	0
10-Apr-13	sub2306	2306	2	1	142	3	2	5	4	4	0	2	1	0.04645	0	0.5	0	25	87	68	0
10-Apr-13	sub2306	2306	2	1	143	3	2	2	5	3	1	2	1	0.37372	1	0.5	0	22	60	61	0
10-Apr-13	sub2306	2306	2	1	144	3	2	1	3	4	1	2	0	0.37984	0	0.5	0	21	80	81	0
10-Apr-13	sub2306	2306	2	1	145	3	2	5	4	4	0	2	1	0.47676	0	0.5	0	25	87	68	0
10-Apr-13	sub2306	2306	2	1	146	3	2	5	4	4	0	2	1	0.47001	0	0.5	0	25	87	68	0
10-Apr-13	sub2306	2306	2	1	147	3	2	4	2	3	1	1	0	0.04743	0	0.5	0	24	82	83	0
10-Apr-13	sub2306	2306	2	1	148	3	2	5	4	4	0	2	1	0.46811	0	0.5	0	25	87	68	0
10-Apr-13	sub2306	2306	2	1	149	3	2	3	6	3	1	1	1	0.48063	1	0.5	0	23	62	63	0
10-Apr-13	sub2306	2306	2	1	150	3	2	5	4	4	0	2	1	0.44617	0	0.5	0	25	87	68	0
10-Apr-13	sub2306	2306	2	1	1	4	1	3	1	3	0	2	1	0.47591	0	0.6	0	13	44	39	0
10-Apr-13	sub2306	2306	2	1	2	4	1	5	4	2	0	2	1	0.45803	0	0.3	1	15	47	51	0
10-Apr-13	sub2306	2306	2	1	3	4	1	4	5	4	1	2	1	0.3938	1	0.9	0	14	32	33	0
10-Apr-13	sub2306	2306	2	1	4	4	1	2	3	2	1	2	1	0.4474	1	0.9	0	12	30	31	0
10-Apr-13	sub2306	2306	2	1	5	4	1	6	6	4	0	2	0	0.40169	1	0.9	0	16	37	48	0
10-Apr-13	sub2306	2306	2	1	6	4	1	2	3	2	1	2	1	0.45714	1	0.9	0	12	30	31	0
10-Apr-13	sub2306	2306	2	1	7	4	1	3	1	3	1	2	0	0.45237	0	0.9	0	13	42	43	0
10-Apr-13	sub2306	2306	2	1	8	4	1	6	6	4	0	1	1	0.01923	0	0.9	0	16	47	38	0
10-Apr-13	sub2306	2306	2	1	9	4	1	1	2	4	1	1	1	0.11479	1	0.9	0	11	30	31	0
10-Apr-13	sub2306	2306	2	1	10	4	1	1	2	4	1	1	1	0.38041	1	0.9	0	11	30	31	0
10-Apr-13	sub2306	2306	2	1	11	4	1	6	6	4	1	1	0	0.37608	0	0.9	0	16	45	46	0
10-Apr-13	sub2306	2306	2	1	12	4	1	5	4	2	0	2	1	0.02565	0	0.9	0	15	47	38	0
10-Apr-13	sub2306	2306	2	1	13	4	1	6	6	4	0	1	1	0.44857	0	0.9	0	16	47	38	0
10-Apr-13	sub2306	2306	2	1	14	4	1	2	3	2	1	2	1	0.45238	1	0.9	0	12	30	31	0
10-Apr-13	sub2306	2306	2	1	15	4	1	2	3	2	1	2	1	0.40151	1	0.9	0	12	30	31	0
10-Apr-13	sub2306	2306	2	1	16	4	1	6	6	4	1	1	0	0.44536	0	0.8	0	16	45	46	0
10-Apr-13	sub2306	2306	2	1	17	4	1	5	4	2	1	2	0	0.4485	0	0.8	0	15	45	46	0
10-Apr-13	sub2306	2306	2	1	18	4	1	3	1	3	1	2	0	0.38894	0	0.7	0	13	42	43	0
10-Apr-13	sub2306	2306	2	1	19	4	1	5	4	2	1	2	0	0.39382	0	0.7	0	15	45	46	0
10-Apr-13	sub2306	2306	2	1	20	4	1	5	4	2	1	2	0	0.4275	0	0.7	0	15	45	46	0
10-Apr-13	sub2306	2306	2	1	21	4	1	4	5	4	1	2	1	0.14988	1	0.6	0	14	32	33	0
10-Apr-13	sub2306	2306	2	1	22	4	1	1	2	4	1	1	1	0.42064	1	0.6	0	11	30	31	0
10-Apr-13	sub2306	2306	2	1	23	4	1	4	5	4	1	1	0	0.39536	0	0.6	0	14	42	43	0
10-Apr-13	sub2306	2306	2	1	24	4	1	1	2	4	1	1	1	0.46119	1	0.6	0	11	30	31	0
10-Apr-13	sub2306	2306	2	1	25	4	1	4	5	4	1	1	0	0.0364	0	0.6	0	14	42	43	0
10-Apr-13	sub2306	2306	2	1	26	4	1	1	2	4	1	1	1	0.49825	1	0.5	0	11	30	31	0
10-Apr-13	sub2306	2306	2	1	27	4	1	1	2	4	1	1	1	0.44017	1	0.5	0	11	30	31	0
10-Apr-13	sub2306	2306	2	1	28	4	1	3	1	3	1	0	0	0	0	0.5	1	13	0	51	0
10-Apr-13	sub2306	2306	2	1	29	4	1	5	4	2	0	2	1	0.3934	0	0.9	0	15	47	38	0
10-Apr-13	sub2306	2306	2	1	30	4	1	2	3	2	1	2	1	0.41326	1	0.8	0	12	30	31	0
10-Apr-13	sub2306	2306	2	1	31	4	1	2	3	2	1	2	1	0.33235	1	0.8	0	12	30	31	0
10-Apr-13	sub2306	2306	2	1	32	4	1	5	4	2	1	2	0	0.49706	0	0.8	0	15	45	46	0
10-Apr-13	sub2306	2306	2	1	33	4	1	4	5	4	1	2	1	0.4911	1	0.8	0	14	32	33	0
10-Apr-13	sub2306	2306	2	1	34	4	1	3	1	3	1	1	1	0.37015	1	0.8	0	13	32	33	0
10-Apr-13	sub2306	2306	2	1	35	4	1	2	3	2	1	2	1	0.00872	1	0.7	0	12	30	31	0
10-Apr-13	sub2306	2306	2	1	36	4	1	2	3	2	1	2	1	0.35748	1	0.7	0	12	30	31	0
10-Apr-13	sub2306	2306	2	1	37	4	1	6	6	4	1	1	0	0.0053	0	0.7	0	16	45	46	0
10-Apr-13	sub2306	2306	2	1	38	4	1	2	3	2	1	2	1	0.05499	1	0.7	0	12	30	31	0
10-Apr-13	sub2306	2306	2	1	39	4	1	6	6	4	0	1	1	0.45586	0	0.7	0	16	47	38	0
10-Apr-13	sub2306	2306	2	1	40	4	1	6	6	4	0	2	0	0.42469	1	0.7	0	16	37	48	0
10-Apr-13	sub2306	2306	2	1	41	4	1	1	2	4	1	1	1	0.43924	1	0.6	0	11	30	31	0
10-Apr-13	sub2306	2306	2	1	42	4	1	3	1	3	1	2	0	0.484	0	0.6	0	13	42	43	0
10-Apr-13	sub2306	2306	2	1	43	4	1	2	3	2	1	2	1	0.07839	1	0.6	0	12	30	31	0
10-Apr-13	sub2306	2306	2	1	44	4	1	6	6	4	0	1	1	0.47305	0	0.6	0	16	47	38	0
10-Apr-13	sub2306	2306	2	1	45	4	1	2	3	2	1	2	1	0.41594	1	0.6	0	12	30	31	0
10-Apr-13	sub2306	2306	2	1	46	4	1	3	1	3	1	1	1	0.37647	1	0.6	0	13	32	33	0
10-Apr-13	sub2306	2306	2	1	47	4	1	1	2	4	1	1	1	0.00155	1	0.6	0	11	30	31	0
10-Apr-13	sub2306	2306	2	1	48	4	1	5	4	2	1	2	0	0.4663	0	0.6	0	15	45	46	0
10-Apr-13	sub2306	2306	2	1	49	4	1	5	4	2	1	1	1	0.3637	1	0.6	0	15	35	36	0
10-Apr-13	sub2306	2306	2	1	50	4	1	1	2	4	1	1	1	0.4608	1	0.6	0	11	30	31	0
10-Apr-13	sub2306	2306	2	1	51	4	1	4	5	4	1	1	0	0.07477	0	0.5	0	14	42	43	0
10-Apr-13	sub2306	2306	2	1	52	4	1	2	3	2	1	2	1	0.00208	1	0.5	0	12	30	31	0
10-Apr-13	sub2306	2306	2	1	53	4	1	6	6	4	1	1	0	0.46224	0	0.5	0	16	45	46	0
10-Apr-13	sub2306	2306	2	1	54	4	1	6	6	4	0	1	1	0.01443	0	0.5	0	16	47	38	0
10-Apr-13	sub2306	2306	2	1	55	4	1	5	4	2	0	1	0	0.11235	1	0.5	0	15	37	48	0
10-Apr-13	sub2306	2306	2	1	56	4	1	3	1	3	1	1	1	0.05183	1	0.5	0	13	32	33	0
10-Apr-13	sub2306	2306	2	1	57	4	1	5	4	2	1	1	1	0.48325	1	0.5	0	15	35	36	0
10-Apr-13	sub2306	2306	2	1	58	4	1	6	6	4	1	1	0	0.40652	0	0.5	0	16	45	46	0
10-Apr-13	sub2306	2306	2	1	59	4	1	3	1	3	1	1	1	0.43825	1	0.5	0	13	32	33	0
10-Apr-13	sub2306	2306	2	1	60	4	1	1	2	4	1	1	1	0.45693	1	0.5	0	11	30	31	0
10-Apr-13	sub2306	2306	2	1	61	4	1	4	5	4	0	1	1	0.05937	0	0.5	0	14	44	39	0
10-Apr-13	sub2306	2306	2	1	62	4	1	3	1	3	0	1	0	0.42779	1	0.5	0	13	34	49	0
10-Apr-13	sub2306	2306	2	1	63	4	1	5	4	2	0	1	0	0.01572	1	0.5	0	15	37	48	0
10-Apr-13	sub2306	2306	2	1	64	4	1	4	5	4	0	1	1	0.06408	0	0.5	0	14	44	39	0
10-Apr-13	sub2306	2306	2	1	65	4	1	4	5	4	1	1	0	0.43936	0	0.5	0	14	42	43	0
10-Apr-13	sub2306	2306	2	1	66	4	1	4	5	4	1	1	0	0.40553	0	0.5	0	14	42	43	0
10-Apr-13	sub2306	2306	2	1	67	4	1	3	1	3	0	1	0	0.45977	1	0.5	0	13	34	49	0
10-Apr-13	sub2306	2306	2	1	68	4	1	2	3	2	1	2	1	0.42149	1	0.4	1	12	30	51	0
10-Apr-13	sub2306	2306	2	1	69	4	1	1	2	4	1	1	1	0.01757	1	0.6	0	11	30	31	0
10-Apr-13	sub2306	2306	2	1	70	4	1	4	5	4	1	1	0	0.49438	0	0.6	0	14	42	43	0
10-Apr-13	sub2306	2306	2	1	71	4	1	4	5	4	1	2	1	0.48195	1	0.6	0	14	32	33	0
10-Apr-13	sub2306	2306	2	1	72	4	1	3	1	3	1	1	1	0.08367	1	0.6	0	13	32	33	0
10-Apr-13	sub2306	2306	2	1	73	4	1	6	6	4	0	1	1	0.46496	0	0.6	0	16	47	38	0
10-Apr-13	sub2306	2306	2	1	74	4	1	1	2	4	1	1	1	0.37375	1	0.6	0	11	30	31	0
10-Apr-13	sub2306	2306	2	1	75	4	1	3	1	3	1	1	1	0.35834	1	0.6	0	13	32	33	0
10-Apr-13	sub2306	2306	2	1	76	4	2	6	6	4	0	1	1	0.39225	0	0.5	0	26	87	68	0
10-Apr-13	sub2306	2306	2	1	77	4	2	1	2	4	1	1	1	0.42641	1	0.5	0	21	60	61	0
10-Apr-13	sub2306	2306	2	1	78	4	2	5	4	2	0	2	1	0.45831	0	0.5	0	25	87	68	0
10-Apr-13	sub2306	2306	2	1	79	4	2	5	4	2	0	2	1	0.39448	0	0.5	0	25	87	68	0
10-Apr-13	sub2306	2306	2	1	80	4	2	4	5	4	1	1	0	0.07181	0	0.5	0	24	82	83	0
10-Apr-13	sub2306	2306	2	1	81	4	2	6	6	4	1	1	0	0.01297	0	0.5	0	26	85	86	0
10-Apr-13	sub2306	2306	2	1	82	4	2	5	4	2	0	1	0	0.0481	1	0.5	0	25	67	88	0
10-Apr-13	sub2306	2306	2	1	83	4	2	4	5	4	1	1	0	0.18539	0	0.5	0	24	82	83	0
10-Apr-13	sub2306	2306	2	1	84	4	2	3	1	3	1	2	0	0.36965	0	0.5	0	23	82	83	0
10-Apr-13	sub2306	2306	2	1	85	4	2	3	1	3	1	1	1	0.42989	1	0.5	0	23	62	63	0
10-Apr-13	sub2306	2306	2	1	86	4	2	2	3	2	1	2	1	0.43712	1	0.5	0	22	60	61	0
10-Apr-13	sub2306	2306	2	1	87	4	2	2	3	2	1	2	1	0.41435	1	0.5	0	22	60	61	0
10-Apr-13	sub2306	2306	2	1	88	4	2	1	2	4	1	1	1	0.48958	1	0.5	0	21	60	61	0
10-Apr-13	sub2306	2306	2	1	89	4	2	4	5	4	0	2	0	0.40113	1	0.5	0	24	64	89	0
10-Apr-13	sub2306	2306	2	1	90	4	2	6	6	4	0	2	0	0.4096	1	0.5	0	26	67	88	0
10-Apr-13	sub2306	2306	2	1	91	4	2	5	4	2	0	2	1	0.45798	0	0.5	0	25	87	68	0
10-Apr-13	sub2306	2306	2	1	92	4	2	4	5	4	1	1	0	0.11201	0	0.5	0	24	82	83	0
10-Apr-13	sub2306	2306	2	1	93	4	2	4	5	4	1	1	0	0.44736	0	0.5	0	24	82	83	0
10-Apr-13	sub2306	2306	2	1	94	4	2	2	3	2	1	2	1	0.46029	1	0.5	0	22	60	61	0
10-Apr-13	sub2306	2306	2	1	95	4	2	6	6	4	0	1	1	0.00547	0	0.5	0	26	87	68	0
10-Apr-13	sub2306	2306	2	1	96	4	2	3	1	3	1	1	1	0.49732	1	0.5	0	23	62	63	0
10-Apr-13	sub2306	2306	2	1	97	4	2	6	6	4	1	1	0	0.48539	0	0.5	0	26	85	86	0
10-Apr-13	sub2306	2306	2	1	98	4	2	1	2	4	1	1	1	0.40445	1	0.5	0	21	60	61	0
10-Apr-13	sub2306	2306	2	1	99	4	2	5	4	2	0	2	1	0.02607	0	0.5	0	25	87	68	0
10-Apr-13	sub2306	2306	2	1	100	4	2	1	2	4	1	1	1	0.41516	1	0.5	0	21	60	61	0
10-Apr-13	sub2306	2306	2	1	101	4	2	5	4	2	0	2	1	0.41366	0	0.4	1	25	87	51	0
10-Apr-13	sub2306	2306	2	1	102	4	2	5	4	2	0	2	1	0.34751	0	0.5	0	25	87	68	0
10-Apr-13	sub2306	2306	2	1	103	4	2	5	4	2	0	2	1	0.36786	0	0.5	0	25	87	68	0
10-Apr-13	sub2306	2306	2	1	104	4	2	3	1	3	1	1	1	0.49576	1	0.5	0	23	62	63	0
10-Apr-13	sub2306	2306	2	1	105	4	2	1	2	4	1	1	1	0.43125	1	0.5	0	21	60	61	0
10-Apr-13	sub2306	2306	2	1	106	4	2	6	6	4	1	1	0	0.38811	0	0.5	0	26	85	86	0
10-Apr-13	sub2306	2306	2	1	107	4	2	1	2	4	1	1	1	0.35674	1	0.5	0	21	60	61	0
10-Apr-13	sub2306	2306	2	1	108	4	2	6	6	4	0	1	1	0.37603	0	0.5	0	26	87	68	0
10-Apr-13	sub2306	2306	2	1	109	4	2	5	4	2	0	2	1	0.49707	0	0.5	0	25	87	68	0
10-Apr-13	sub2306	2306	2	1	110	4	2	4	5	4	1	1	0	0.49021	0	0.5	0	24	82	83	0
10-Apr-13	sub2306	2306	2	1	111	4	2	2	3	2	1	2	1	0.38187	1	0.5	0	22	60	61	0
10-Apr-13	sub2306	2306	2	1	112	4	2	2	3	2	1	2	1	0.36707	1	0.5	0	22	60	61	0
10-Apr-13	sub2306	2306	2	1	113	4	2	1	2	4	1	1	1	0.43881	1	0.5	0	21	60	61	0
10-Apr-13	sub2306	2306	2	1	114	4	2	6	6	4	0	1	1	0.41788	0	0.5	0	26	87	68	0
10-Apr-13	sub2306	2306	2	1	115	4	2	1	2	4	1	1	1	0.40847	1	0.5	0	21	60	61	0
10-Apr-13	sub2306	2306	2	1	116	4	2	3	1	3	1	2	0	0.40625	0	0.5	0	23	82	83	0
10-Apr-13	sub2306	2306	2	1	117	4	2	2	3	2	1	2	1	0.40623	1	0.5	0	22	60	61	0
10-Apr-13	sub2306	2306	2	1	118	4	2	4	5	4	0	1	1	0.49024	0	0.5	0	24	84	69	0
10-Apr-13	sub2306	2306	2	1	119	4	2	3	1	3	0	1	0	0.44938	1	0.5	0	23	64	89	0
10-Apr-13	sub2306	2306	2	1	120	4	2	6	6	4	0	1	1	0.00945	0	0.5	0	26	87	68	0
10-Apr-13	sub2306	2306	2	1	121	4	2	4	5	4	1	1	0	0.08592	0	0.5	0	24	82	83	0
10-Apr-13	sub2306	2306	2	1	122	4	2	1	2	4	1	1	1	0.46805	1	0.5	0	21	60	61	0
10-Apr-13	sub2306	2306	2	1	123	4	2	3	1	3	0	1	0	0.42204	1	0.5	0	23	64	89	0
10-Apr-13	sub2306	2306	2	1	124	4	2	3	1	3	1	2	0	0.33467	0	0.5	0	23	82	83	0
10-Apr-13	sub2306	2306	2	1	125	4	2	6	6	4	1	1	0	0.06388	0	0.5	0	26	85	86	0
10-Apr-13	sub2306	2306	2	1	126	4	2	2	3	2	1	2	1	0.45766	1	0.5	0	22	60	61	0
10-Apr-13	sub2306	2306	2	1	127	4	2	6	6	4	1	1	0	0.43461	0	0.5	0	26	85	86	0
10-Apr-13	sub2306	2306	2	1	128	4	2	4	5	4	1	2	1	0.04826	1	0.5	0	24	62	63	0
10-Apr-13	sub2306	2306	2	1	129	4	2	4	5	4	1	2	1	0.00434	1	0.5	0	24	62	63	0
10-Apr-13	sub2306	2306	2	1	130	4	2	2	3	2	1	2	1	0.4642	1	0.5	0	22	60	61	0
10-Apr-13	sub2306	2306	2	1	131	4	2	6	6	4	1	2	1	0.09918	1	0.5	0	26	65	66	0
10-Apr-13	sub2306	2306	2	1	132	4	2	3	1	3	1	2	0	0.38437	0	0.5	0	23	82	83	0
10-Apr-13	sub2306	2306	2	1	133	4	2	4	5	4	1	2	1	0.46999	1	0.5	0	24	62	63	0
10-Apr-13	sub2306	2306	2	1	134	4	2	2	3	2	1	2	1	0.43151	1	0.5	0	22	60	61	0
10-Apr-13	sub2306	2306	2	1	135	4	2	1	2	4	1	1	1	0.46388	1	0.4	1	21	60	51	0
10-Apr-13	sub2306	2306	2	1	136	4	2	2	3	2	1	2	1	0.43004	1	0.5	0	22	60	61	0
10-Apr-13	sub2306	2306	2	1	137	4	2	1	2	4	1	1	1	0.43377	1	0.5	0	21	60	61	0
10-Apr-13	sub2306	2306	2	1	138	4	2	4	5	4	0	2	0	0.44634	1	0.5	0	24	64	89	0
10-Apr-13	sub2306	2306	2	1	139	4	2	2	3	2	1	2	1	0.32755	1	0.5	0	22	60	61	0
10-Apr-13	sub2306	2306	2	1	140	4	2	4	5	4	1	2	1	0.00905	1	0.5	0	24	62	63	0
10-Apr-13	sub2306	2306	2	1	141	4	2	2	3	2	1	2	1	0.36324	1	0.5	0	22	60	61	0
10-Apr-13	sub2306	2306	2	1	142	4	2	3	1	3	1	2	0	0.04237	0	0.5	0	23	82	83	0
10-Apr-13	sub2306	2306	2	1	143	4	2	3	1	3	1	1	1	0.48796	1	0.5	0	23	62	63	0
10-Apr-13	sub2306	2306	2	1	144	4	2	5	4	2	0	2	1	0.49368	0	0.5	0	25	87	68	0
10-Apr-13	sub2306	2306	2	1	145	4	2	5	4	2	0	2	1	0.38916	0	0.5	0	25	87	68	0
10-Apr-13	sub2306	2306	2	1	146	4	2	3	1	3	1	2	0	0.319	0	0.5	0	23	82	83	0
10-Apr-13	sub2306	2306	2	1	147	4	2	1	2	4	1	2	0	0.32652	0	0.5	0	21	80	81	0
10-Apr-13	sub2306	2306	2	1	148	4	2	5	4	2	0	2	1	0.42635	0	0.5	0	25	87	68	0
10-Apr-13	sub2306	2306	2	1	149	4	2	5	4	2	0	2	1	0.37444	0	0.5	0	25	87	68	0
10-Apr-13	sub2306	2306	2	1	150	4	2	1	2	4	1	1	1	0.40068	1	0.5	0	21	60	61	0
10-Apr-13	sub2306	2306	2	1	1	5	1	4	1	1	1	2	1	0.33933	1	0.6	0	14	32	33	0
10-Apr-13	sub2306	2306	2	1	2	5	1	2	4	1	1	2	1	0.48389	1	0.3	1	12	30	51	0
10-Apr-13	sub2306	2306	2	1	3	5	1	2	4	1	1	2	1	0.36473	1	0.9	0	12	30	31	0
10-Apr-13	sub2306	2306	2	1	4	5	1	2	4	1	1	2	1	0.36361	1	0.9	0	12	30	31	0
10-Apr-13	sub2306	2306	2	1	5	5	1	2	4	1	1	2	1	0.3645	1	0.9	0	12	30	31	0
10-Apr-13	sub2306	2306	2	1	6	5	1	4	1	1	1	1	0	0.49698	0	0.9	0	14	42	43	0
10-Apr-13	sub2306	2306	2	1	7	5	1	3	2	5	0	1	0	0.01568	1	0.9	0	13	34	49	0
10-Apr-13	sub2306	2306	2	1	8	5	1	5	6	5	0	2	1	0.45233	0	0.9	0	15	47	38	0
10-Apr-13	sub2306	2306	2	1	9	5	1	4	1	1	0	2	0	0.42515	1	0.9	0	14	34	49	0
10-Apr-13	sub2306	2306	2	1	10	5	1	5	6	5	1	2	0	0.40663	0	0.9	0	15	45	46	0
10-Apr-13	sub2306	2306	2	1	11	5	1	2	4	1	1	2	1	0.36932	1	0.9	0	12	30	31	0
10-Apr-13	sub2306	2306	2	1	12	5	1	1	3	1	1	2	0	0.40225	0	0.9	0	11	40	41	0
10-Apr-13	sub2306	2306	2	1	13	5	1	6	5	5	0	1	1	0.07057	0	0.9	0	16	47	38	0
10-Apr-13	sub2306	2306	2	1	14	5	1	6	5	5	1	1	0	0.3978	0	0.9	0	16	45	46	0
10-Apr-13	sub2306	2306	2	1	15	5	1	3	2	5	1	1	1	0.1018	1	0.9	0	13	32	33	0
10-Apr-13	sub2306	2306	2	1	16	5	1	6	5	5	0	1	1	0.37831	0	0.8	0	16	47	38	0
10-Apr-13	sub2306	2306	2	1	17	5	1	5	6	5	0	1	0	0.46338	1	0.8	0	15	37	48	0
10-Apr-13	sub2306	2306	2	1	18	5	1	2	4	1	1	1	0	0.35363	0	0.7	0	12	40	41	0
10-Apr-13	sub2306	2306	2	1	19	5	1	1	3	1	1	1	1	0.43324	1	0.7	0	11	30	31	0
10-Apr-13	sub2306	2306	2	1	20	5	1	1	3	1	1	1	1	0.42779	1	0.7	0	11	30	31	0
10-Apr-13	sub2306	2306	2	1	21	5	1	5	6	5	0	2	1	0.41861	0	0.6	0	15	47	38	0
10-Apr-13	sub2306	2306	2	1	22	5	1	1	3	1	1	2	0	0.48675	0	0.6	0	11	40	41	0
10-Apr-13	sub2306	2306	2	1	23	5	1	6	5	5	1	1	0	0.00298	0	0.6	0	16	45	46	0
10-Apr-13	sub2306	2306	2	1	24	5	1	4	1	1	1	2	1	0.06192	1	0.6	0	14	32	33	0
10-Apr-13	sub2306	2306	2	1	25	5	1	1	3	1	1	2	0	0.40075	0	0.6	0	11	40	41	0
10-Apr-13	sub2306	2306	2	1	26	5	1	5	6	5	0	2	1	0.01488	0	0.5	0	15	47	38	0
10-Apr-13	sub2306	2306	2	1	27	5	1	4	1	1	1	2	1	0.35218	1	0.5	0	14	32	33	0
10-Apr-13	sub2306	2306	2	1	28	5	1	1	3	1	1	2	0	0.4405	0	0.5	0	11	40	41	0
10-Apr-13	sub2306	2306	2	1	29	5	1	5	6	5	1	2	0	0.42283	0	0.5	0	15	45	46	0
10-Apr-13	sub2306	2306	2	1	30	5	1	1	3	1	1	1	1	0.42516	1	0.5	0	11	30	31	0
10-Apr-13	sub2306	2306	2	1	31	5	1	4	1	1	1	2	1	0.49579	1	0.5	0	14	32	33	0
10-Apr-13	sub2306	2306	2	1	32	5	1	4	1	1	1	2	1	0.45012	1	0.5	0	14	32	33	0
10-Apr-13	sub2306	2306	2	1	33	5	1	4	1	1	1	2	1	0.33998	1	0.5	0	14	32	33	0
10-Apr-13	sub2306	2306	2	1	34	5	1	2	4	1	1	2	1	0.02924	1	0.5	0	12	30	31	0
10-Apr-13	sub2306	2306	2	1	35	5	1	5	6	5	1	1	1	0.09175	1	0.4	0	15	35	36	0
10-Apr-13	sub2306	2306	2	1	36	5	1	2	4	1	1	2	1	0.4838	1	0.4	1	12	30	51	0
10-Apr-13	sub2306	2306	2	1	37	5	1	6	5	5	1	1	0	0.09744	0	0.7	0	16	45	46	0
10-Apr-13	sub2306	2306	2	1	38	5	1	3	2	5	1	1	1	0.04025	1	0.7	0	13	32	33	0
10-Apr-13	sub2306	2306	2	1	39	5	1	5	6	5	0	2	1	0.07188	0	0.7	0	15	47	38	0
10-Apr-13	sub2306	2306	2	1	40	5	1	6	5	5	0	1	1	0.06289	0	0.7	0	16	47	38	0
10-Apr-13	sub2306	2306	2	1	41	5	1	1	3	1	1	2	0	0.47898	0	0.6	0	11	40	41	0
10-Apr-13	sub2306	2306	2	1	42	5	1	5	6	5	1	2	0	0.47118	0	0.6	0	15	45	46	0
10-Apr-13	sub2306	2306	2	1	43	5	1	3	2	5	1	1	1	0.45794	1	0.6	0	13	32	33	0
10-Apr-13	sub2306	2306	2	1	44	5	1	6	5	5	1	1	0	0.0263	0	0.6	0	16	45	46	0
10-Apr-13	sub2306	2306	2	1	45	5	1	5	6	5	1	2	0	0.01154	0	0.6	0	15	45	46	0
10-Apr-13	sub2306	2306	2	1	46	5	1	6	5	5	1	1	0	0.39482	0	0.6	0	16	45	46	0
10-Apr-13	sub2306	2306	2	1	47	5	1	3	2	5	1	1	1	0.47271	1	0.6	0	13	32	33	0
10-Apr-13	sub2306	2306	2	1	48	5	1	1	3	1	1	1	1	0.48743	1	0.6	0	11	30	31	0
10-Apr-13	sub2306	2306	2	1	49	5	1	3	2	5	1	1	1	0.48287	1	0.6	0	13	32	33	0
10-Apr-13	sub2306	2306	2	1	50	5	1	3	2	5	1	1	1	0.44057	1	0.6	0	13	32	33	0
10-Apr-13	sub2306	2306	2	1	51	5	1	6	5	5	0	2	0	0.38298	1	0.5	0	16	37	48	0
10-Apr-13	sub2306	2306	2	1	52	5	1	6	5	5	0	2	0	0.34289	1	0.5	0	16	37	48	0
10-Apr-13	sub2306	2306	2	1	53	5	1	3	2	5	0	1	0	0.48481	1	0.5	0	13	34	49	0
10-Apr-13	sub2306	2306	2	1	54	5	1	1	3	1	1	1	1	0.41153	1	0.5	0	11	30	31	0
10-Apr-13	sub2306	2306	2	1	55	5	1	1	3	1	1	1	1	0.38156	1	0.5	0	11	30	31	0
10-Apr-13	sub2306	2306	2	1	56	5	1	6	5	5	1	1	0	0.49341	0	0.5	0	16	45	46	0
10-Apr-13	sub2306	2306	2	1	57	5	1	2	4	1	1	2	1	0.47614	1	0.5	0	12	30	31	0
10-Apr-13	sub2306	2306	2	1	58	5	1	4	1	1	1	2	1	0.37114	1	0.5	0	14	32	33	0
10-Apr-13	sub2306	2306	2	1	59	5	1	1	3	1	1	2	0	0.33203	0	0.5	0	11	40	41	0
10-Apr-13	sub2306	2306	2	1	60	5	1	2	4	1	1	2	1	0.41484	1	0.5	0	12	30	31	0
10-Apr-13	sub2306	2306	2	1	61	5	1	3	2	5	1	1	1	0.46985	1	0.5	0	13	32	33	0
10-Apr-13	sub2306	2306	2	1	62	5	1	4	1	1	1	1	0	0.42582	0	0.5	0	14	42	43	0
10-Apr-13	sub2306	2306	2	1	63	5	1	2	4	1	1	2	1	0.41471	1	0.5	0	12	30	31	0
10-Apr-13	sub2306	2306	2	1	64	5	1	3	2	5	1	1	1	0.06002	1	0.5	0	13	32	33	0
10-Apr-13	sub2306	2306	2	1	65	5	1	3	2	5	1	1	1	0.37956	1	0.5	0	13	32	33	0
10-Apr-13	sub2306	2306	2	1	66	5	1	2	4	1	1	2	1	0.48605	1	0.5	0	12	30	31	0
10-Apr-13	sub2306	2306	2	1	67	5	1	2	4	1	1	2	1	0.36397	1	0.5	0	12	30	31	0
10-Apr-13	sub2306	2306	2	1	68	5	1	5	6	5	0	1	0	0.00602	1	0.4	0	15	37	48	0
10-Apr-13	sub2306	2306	2	1	69	5	1	6	5	5	0	2	0	0.08261	1	0.4	0	16	37	48	0
10-Apr-13	sub2306	2306	2	1	70	5	1	3	2	5	1	1	1	0.48202	1	0.4	1	13	32	51	0
10-Apr-13	sub2306	2306	2	1	71	5	1	3	2	5	0	1	0	0.41285	1	0.6	0	13	34	49	0
10-Apr-13	sub2306	2306	2	1	72	5	1	4	1	1	0	1	1	0.43636	0	0.6	0	14	44	39	0
10-Apr-13	sub2306	2306	2	1	73	5	1	6	5	5	1	2	1	0.49401	1	0.6	0	16	35	36	0
10-Apr-13	sub2306	2306	2	1	74	5	1	5	6	5	1	2	0	0.10452	0	0.6	0	15	45	46	0
10-Apr-13	sub2306	2306	2	1	75	5	1	4	1	1	1	2	1	0.44801	1	0.6	0	14	32	33	0
10-Apr-13	sub2306	2306	2	1	76	5	2	4	1	1	1	2	1	0.40353	1	0.5	0	24	62	63	0
10-Apr-13	sub2306	2306	2	1	77	5	2	4	1	1	1	2	1	0.45856	1	0.5	0	24	62	63	0
10-Apr-13	sub2306	2306	2	1	78	5	2	2	4	1	1	2	1	0.3721	1	0.5	0	22	60	61	0
10-Apr-13	sub2306	2306	2	1	79	5	2	1	3	1	1	1	1	0.04902	1	0.5	0	21	60	61	0
10-Apr-13	sub2306	2306	2	1	80	5	2	5	6	5	0	1	0	0.05252	1	0.5	0	25	67	88	0
10-Apr-13	sub2306	2306	2	1	81	5	2	6	5	5	1	2	1	0.09057	1	0.5	0	26	65	66	0
10-Apr-13	sub2306	2306	2	1	82	5	2	1	3	1	1	1	1	0.49826	1	0.5	0	21	60	61	0
10-Apr-13	sub2306	2306	2	1	83	5	2	1	3	1	1	1	1	0.42375	1	0.5	0	21	60	61	0
10-Apr-13	sub2306	2306	2	1	84	5	2	6	5	5	0	1	1	0.45706	0	0.5	0	26	87	68	0
10-Apr-13	sub2306	2306	2	1	85	5	2	4	1	1	1	2	1	0.49195	1	0.5	0	24	62	63	0
10-Apr-13	sub2306	2306	2	1	86	5	2	2	4	1	1	2	1	0.42819	1	0.5	0	22	60	61	0
10-Apr-13	sub2306	2306	2	1	87	5	2	3	2	5	1	1	1	0.49105	1	0.5	0	23	62	63	0
10-Apr-13	sub2306	2306	2	1	88	5	2	2	4	1	1	2	1	0.04037	1	0.5	0	22	60	61	0
10-Apr-13	sub2306	2306	2	1	89	5	2	6	5	5	1	2	1	0.06304	1	0.5	0	26	65	66	0
10-Apr-13	sub2306	2306	2	1	90	5	2	5	6	5	0	1	0	0.10298	1	0.5	0	25	67	88	0
10-Apr-13	sub2306	2306	2	1	91	5	2	4	1	1	1	2	1	0.41204	1	0.5	0	24	62	63	0
10-Apr-13	sub2306	2306	2	1	92	5	2	1	3	1	1	1	1	0.01021	1	0.5	0	21	60	61	0
10-Apr-13	sub2306	2306	2	1	93	5	2	5	6	5	0	1	0	0.05564	1	0.5	0	25	67	88	0
10-Apr-13	sub2306	2306	2	1	94	5	2	6	5	5	0	2	0	0.11271	1	0.5	0	26	67	88	0
10-Apr-13	sub2306	2306	2	1	95	5	2	3	2	5	1	1	1	0.024	1	0.5	0	23	62	63	0
10-Apr-13	sub2306	2306	2	1	96	5	2	1	3	1	1	1	1	0.45359	1	0.5	0	21	60	61	0
10-Apr-13	sub2306	2306	2	1	97	5	2	3	2	5	1	1	1	0.01189	1	0.5	0	23	62	63	0
10-Apr-13	sub2306	2306	2	1	98	5	2	5	6	5	0	2	1	0.03982	0	0.5	0	25	87	68	0
10-Apr-13	sub2306	2306	2	1	99	5	2	4	1	1	1	2	1	0.45005	1	0.5	0	24	62	63	0
10-Apr-13	sub2306	2306	2	1	100	5	2	2	4	1	1	2	1	0.40167	1	0.5	0	22	60	61	0
10-Apr-13	sub2306	2306	2	1	101	5	2	2	4	1	1	2	1	0.4338	1	0.4	1	22	60	51	0
10-Apr-13	sub2306	2306	2	1	102	5	2	2	4	1	1	2	1	0.37331	1	0.5	0	22	60	61	0
10-Apr-13	sub2306	2306	2	1	103	5	2	5	6	5	0	1	0	0.45924	1	0.5	0	25	67	88	0
10-Apr-13	sub2306	2306	2	1	104	5	2	4	1	1	1	2	1	0.4054	1	0.5	0	24	62	63	0
10-Apr-13	sub2306	2306	2	1	105	5	2	3	2	5	1	1	1	0.49066	1	0.5	0	23	62	63	0
10-Apr-13	sub2306	2306	2	1	106	5	2	2	4	1	1	2	1	0.48188	1	0.5	0	22	60	61	0
10-Apr-13	sub2306	2306	2	1	107	5	2	6	5	5	0	2	0	0.10466	1	0.5	0	26	67	88	0
10-Apr-13	sub2306	2306	2	1	108	5	2	2	4	1	1	2	1	0.38531	1	0.5	0	22	60	61	0
10-Apr-13	sub2306	2306	2	1	109	5	2	3	2	5	1	1	1	0.48979	1	0.5	0	23	62	63	0
10-Apr-13	sub2306	2306	2	1	110	5	2	5	6	5	0	2	1	0.01848	0	0.5	0	25	87	68	0
10-Apr-13	sub2306	2306	2	1	111	5	2	3	2	5	1	1	1	0.48116	1	0.5	0	23	62	63	0
10-Apr-13	sub2306	2306	2	1	112	5	2	1	3	1	1	1	1	0.02981	1	0.5	0	21	60	61	0
10-Apr-13	sub2306	2306	2	1	113	5	2	3	2	5	1	1	1	0.49199	1	0.5	0	23	62	63	0
10-Apr-13	sub2306	2306	2	1	114	5	2	4	1	1	1	2	1	0.44384	1	0.5	0	24	62	63	0
10-Apr-13	sub2306	2306	2	1	115	5	2	1	3	1	1	1	1	0.50004	1	0.5	1	21	60	51	0
10-Apr-13	sub2306	2306	2	1	116	5	2	4	1	1	1	2	1	0.46794	1	0.6	0	24	62	63	0
10-Apr-13	sub2306	2306	2	1	117	5	2	2	4	1	1	2	1	0.36233	1	0.6	0	22	60	61	0
10-Apr-13	sub2306	2306	2	1	118	5	2	6	5	5	0	2	0	0.00915	1	0.6	0	26	67	88	0
10-Apr-13	sub2306	2306	2	1	119	5	2	6	5	5	1	1	0	0.10797	0	0.6	0	26	85	86	0
10-Apr-13	sub2306	2306	2	1	120	5	2	5	6	5	0	2	1	0.02939	0	0.6	0	25	87	68	0
10-Apr-13	sub2306	2306	2	1	121	5	2	1	3	1	1	1	1	0.02428	1	0.6	0	21	60	61	0
10-Apr-13	sub2306	2306	2	1	122	5	2	2	4	1	1	2	1	0.4089	1	0.6	0	22	60	61	0
10-Apr-13	sub2306	2306	2	1	123	5	2	6	5	5	0	2	0	0.11105	1	0.6	0	26	67	88	0
10-Apr-13	sub2306	2306	2	1	124	5	2	5	6	5	0	2	1	0.09483	0	0.6	0	25	87	68	0
10-Apr-13	sub2306	2306	2	1	125	5	2	4	1	1	0	2	0	0.38703	1	0.6	0	24	64	89	0
10-Apr-13	sub2306	2306	2	1	126	5	2	4	1	1	1	2	1	0.44476	1	0.5	0	24	62	63	0
10-Apr-13	sub2306	2306	2	1	127	5	2	4	1	1	1	2	1	0.41314	1	0.5	0	24	62	63	0
10-Apr-13	sub2306	2306	2	1	128	5	2	6	5	5	1	2	1	0.48425	1	0.5	0	26	65	66	0
10-Apr-13	sub2306	2306	2	1	129	5	2	3	2	5	1	1	1	0.47366	1	0.5	0	23	62	63	0
10-Apr-13	sub2306	2306	2	1	130	5	2	1	3	1	1	1	1	0.41047	1	0.5	0	21	60	61	0
10-Apr-13	sub2306	2306	2	1	131	5	2	1	3	1	1	1	1	0.42527	1	0.5	0	21	60	61	0
10-Apr-13	sub2306	2306	2	1	132	5	2	5	6	5	0	1	0	0.08839	1	0.5	0	25	67	88	0
10-Apr-13	sub2306	2306	2	1	133	5	2	3	2	5	1	1	1	0.00589	1	0.5	0	23	62	63	0
10-Apr-13	sub2306	2306	2	1	134	5	2	1	3	1	1	1	1	0.01508	1	0.5	0	21	60	61	0
10-Apr-13	sub2306	2306	2	1	135	5	2	6	5	5	1	2	1	0.41265	1	0.5	0	26	65	66	0
10-Apr-13	sub2306	2306	2	1	136	5	2	4	1	1	0	2	0	0.39118	1	0.5	0	24	64	89	0
10-Apr-13	sub2306	2306	2	1	137	5	2	3	2	5	1	1	1	0.45887	1	0.5	0	23	62	63	0
10-Apr-13	sub2306	2306	2	1	138	5	2	5	6	5	0	2	1	0.11213	0	0.5	0	25	87	68	0
10-Apr-13	sub2306	2306	2	1	139	5	2	5	6	5	0	2	1	0.44059	0	0.5	0	25	87	68	0
10-Apr-13	sub2306	2306	2	1	140	5	2	3	2	5	0	2	1	0.37995	0	0.5	0	23	84	69	0
10-Apr-13	sub2306	2306	2	1	141	5	2	6	5	5	1	1	0	0.38605	0	0.5	0	26	85	86	0
10-Apr-13	sub2306	2306	2	1	142	5	2	2	4	1	1	2	1	0.38399	1	0.5	0	22	60	61	0
10-Apr-13	sub2306	2306	2	1	143	5	2	6	5	5	0	2	0	0.00752	1	0.5	0	26	67	88	0
10-Apr-13	sub2306	2306	2	1	144	5	2	5	6	5	0	2	1	0.44051	0	0.5	0	25	87	68	0
10-Apr-13	sub2306	2306	2	1	145	5	2	4	1	1	0	2	0	0.41614	1	0.5	0	24	64	89	0
10-Apr-13	sub2306	2306	2	1	146	5	2	1	3	1	1	2	0	0.39269	0	0.5	0	21	80	81	0
10-Apr-13	sub2306	2306	2	1	147	5	2	1	3	1	1	1	1	0.37265	1	0.5	0	21	60	61	0
10-Apr-13	sub2306	2306	2	1	148	5	2	3	2	5	0	1	0	0.02662	1	0.5	0	23	64	89	0
10-Apr-13	sub2306	2306	2	1	149	5	2	2	4	1	1	1	0	0.42926	0	0.5	0	22	80	81	0
10-Apr-13	sub2306	2306	2	1	150	5	2	5	6	5	0	2	1	0.06376	0	0.5	0	25	87	68	0
10-Apr-13	sub2306	2306	2	1	1	6	1	2	5	2	1	2	1	0.063	1	0.6	0	12	30	31	0
10-Apr-13	sub2306	2306	2	1	2	6	1	5	4	6	0	2	1	0.46259	0	0.3	1	15	47	51	0
10-Apr-13	sub2306	2306	2	1	3	6	1	2	5	2	1	2	1	0.36326	1	0.9	0	12	30	31	0
10-Apr-13	sub2306	2306	2	1	4	6	1	1	3	6	1	1	1	0.44242	1	0.9	0	11	30	31	0
10-Apr-13	sub2306	2306	2	1	5	6	1	1	3	6	1	1	1	0.36759	1	0.9	0	11	30	31	0
10-Apr-13	sub2306	2306	2	1	6	6	1	1	3	6	1	1	1	0.37001	1	0.9	0	11	30	31	0
10-Apr-13	sub2306	2306	2	1	7	6	1	6	1	6	0	2	0	0.44183	1	0.9	0	16	37	48	0
10-Apr-13	sub2306	2306	2	1	8	6	1	2	5	2	1	2	1	0.45872	1	0.9	0	12	30	31	0
10-Apr-13	sub2306	2306	2	1	9	6	1	3	2	1	1	1	1	0.00433	1	0.9	0	13	32	33	0
10-Apr-13	sub2306	2306	2	1	10	6	1	3	2	1	1	1	1	0.39759	1	0.9	0	13	32	33	0
10-Apr-13	sub2306	2306	2	1	11	6	1	3	2	1	1	1	1	0.38297	1	0.9	0	13	32	33	0
10-Apr-13	sub2306	2306	2	1	12	6	1	6	1	6	1	2	1	0.48265	1	0.9	0	16	35	36	0
10-Apr-13	sub2306	2306	2	1	13	6	1	4	6	2	1	1	0	0.45203	0	0.9	0	14	42	43	0
10-Apr-13	sub2306	2306	2	1	14	6	1	2	5	2	1	2	1	0.02396	1	0.9	0	12	30	31	0
10-Apr-13	sub2306	2306	2	1	15	6	1	1	3	6	1	1	1	0.46677	1	0.9	0	11	30	31	0
10-Apr-13	sub2306	2306	2	1	16	6	1	5	4	6	0	2	1	0.08227	0	0.8	0	15	47	38	0
10-Apr-13	sub2306	2306	2	1	17	6	1	6	1	6	0	2	0	0.44802	1	0.8	0	16	37	48	0
10-Apr-13	sub2306	2306	2	1	18	6	1	1	3	6	1	1	1	0.02661	1	0.7	0	11	30	31	0
10-Apr-13	sub2306	2306	2	1	19	6	1	1	3	6	1	1	1	0.37594	1	0.7	0	11	30	31	0
10-Apr-13	sub2306	2306	2	1	20	6	1	5	4	6	1	2	0	0.46956	0	0.7	0	15	45	46	0
10-Apr-13	sub2306	2306	2	1	21	6	1	6	1	6	0	2	0	0.02547	1	0.6	0	16	37	48	0
10-Apr-13	sub2306	2306	2	1	22	6	1	3	2	1	0	1	0	0.48537	1	0.6	0	13	34	49	0
10-Apr-13	sub2306	2306	2	1	23	6	1	3	2	1	1	1	1	0.36506	1	0.6	0	13	32	33	0
10-Apr-13	sub2306	2306	2	1	24	6	1	6	1	6	1	2	1	0.05984	1	0.6	0	16	35	36	0
10-Apr-13	sub2306	2306	2	1	25	6	1	1	3	6	1	1	1	0.48108	1	0.6	0	11	30	31	0
10-Apr-13	sub2306	2306	2	1	26	6	1	4	6	2	1	1	0	0.02486	0	0.5	0	14	42	43	0
10-Apr-13	sub2306	2306	2	1	27	6	1	4	6	2	1	0	0	0	0	0.5	1	14	0	51	0
10-Apr-13	sub2306	2306	2	1	28	6	1	4	6	2	1	2	1	0.31299	1	0.9	0	14	32	33	0
10-Apr-13	sub2306	2306	2	1	29	6	1	6	1	6	0	2	0	0.06612	1	0.9	0	16	37	48	0
10-Apr-13	sub2306	2306	2	1	30	6	1	2	5	2	1	2	1	0.49183	1	0.8	0	12	30	31	0
10-Apr-13	sub2306	2306	2	1	31	6	1	4	6	2	1	2	1	0.40097	1	0.8	0	14	32	33	0
10-Apr-13	sub2306	2306	2	1	32	6	1	6	1	6	1	2	1	0.04469	1	0.8	0	16	35	36	0
10-Apr-13	sub2306	2306	2	1	33	6	1	4	6	2	1	2	1	0.01497	1	0.8	0	14	32	33	0
10-Apr-13	sub2306	2306	2	1	34	6	1	1	3	6	1	1	1	0.48112	1	0.8	0	11	30	31	0
10-Apr-13	sub2306	2306	2	1	35	6	1	5	4	6	1	2	0	0.00592	0	0.7	0	15	45	46	0
10-Apr-13	sub2306	2306	2	1	36	6	1	5	4	6	0	1	0	0.04793	1	0.7	0	15	37	48	0
10-Apr-13	sub2306	2306	2	1	37	6	1	6	1	6	0	2	0	0.45943	1	0.7	0	16	37	48	0
10-Apr-13	sub2306	2306	2	1	38	6	1	1	3	6	1	1	1	0.45566	1	0.7	0	11	30	31	0
10-Apr-13	sub2306	2306	2	1	39	6	1	5	4	6	1	2	0	0.36695	0	0.7	0	15	45	46	0
10-Apr-13	sub2306	2306	2	1	40	6	1	6	1	6	0	2	0	0.44594	1	0.7	0	16	37	48	0
10-Apr-13	sub2306	2306	2	1	41	6	1	5	4	6	0	2	1	0.47724	0	0.6	0	15	47	38	0
10-Apr-13	sub2306	2306	2	1	42	6	1	3	2	1	1	1	1	0.48292	1	0.6	0	13	32	33	0
10-Apr-13	sub2306	2306	2	1	43	6	1	6	1	6	1	2	1	0.44962	1	0.6	0	16	35	36	0
10-Apr-13	sub2306	2306	2	1	44	6	1	4	6	2	1	1	0	0.12543	0	0.6	0	14	42	43	0
10-Apr-13	sub2306	2306	2	1	45	6	1	6	1	6	1	2	1	0.4548	1	0.6	0	16	35	36	0
10-Apr-13	sub2306	2306	2	1	46	6	1	6	1	6	0	2	0	0.40258	1	0.6	0	16	37	48	0
10-Apr-13	sub2306	2306	2	1	47	6	1	2	5	2	1	2	1	0.4025	1	0.6	0	12	30	31	0
10-Apr-13	sub2306	2306	2	1	48	6	1	2	5	2	1	2	1	0.36431	1	0.6	0	12	30	31	0
10-Apr-13	sub2306	2306	2	1	49	6	1	4	6	2	1	2	1	0.27105	1	0.6	0	14	32	33	0
10-Apr-13	sub2306	2306	2	1	50	6	1	5	4	6	1	2	0	0.35069	0	0.6	0	15	45	46	0
10-Apr-13	sub2306	2306	2	1	51	6	1	4	6	2	0	2	0	0.41359	1	0.5	0	14	34	49	0
10-Apr-13	sub2306	2306	2	1	52	6	1	2	5	2	1	2	1	0.41301	1	0.5	0	12	30	31	0
10-Apr-13	sub2306	2306	2	1	53	6	1	4	6	2	0	1	1	0.41564	0	0.5	0	14	44	39	0
10-Apr-13	sub2306	2306	2	1	54	6	1	3	2	1	1	1	1	0.47738	1	0.5	0	13	32	33	0
10-Apr-13	sub2306	2306	2	1	55	6	1	3	2	1	1	1	1	0.38818	1	0.5	0	13	32	33	0
10-Apr-13	sub2306	2306	2	1	56	6	1	3	2	1	1	1	1	0.37793	1	0.5	0	13	32	33	0
10-Apr-13	sub2306	2306	2	1	57	6	1	5	4	6	1	2	0	0.41645	0	0.5	0	15	45	46	0
10-Apr-13	sub2306	2306	2	1	58	6	1	3	2	1	0	1	0	0.00082	1	0.5	0	13	34	49	0
10-Apr-13	sub2306	2306	2	1	59	6	1	4	6	2	1	2	1	0.01071	1	0.5	0	14	32	33	0
10-Apr-13	sub2306	2306	2	1	60	6	1	3	2	1	0	1	0	0.49158	1	0.5	0	13	34	49	0
10-Apr-13	sub2306	2306	2	1	61	6	1	2	5	2	1	2	1	0.01522	1	0.5	0	12	30	31	0
10-Apr-13	sub2306	2306	2	1	62	6	1	3	2	1	1	1	1	0.45872	1	0.5	0	13	32	33	0
10-Apr-13	sub2306	2306	2	1	63	6	1	2	5	2	1	2	1	0.47331	1	0.5	0	12	30	31	0
10-Apr-13	sub2306	2306	2	1	64	6	1	1	3	6	1	1	1	0.41497	1	0.5	0	11	30	31	0
10-Apr-13	sub2306	2306	2	1	65	6	1	5	4	6	0	2	1	0.44333	0	0.5	0	15	47	38	0
10-Apr-13	sub2306	2306	2	1	66	6	1	4	6	2	1	2	1	0.49937	1	0.5	0	14	32	33	0
10-Apr-13	sub2306	2306	2	1	67	6	1	2	5	2	1	2	1	0.4638	1	0.5	0	12	30	31	0
10-Apr-13	sub2306	2306	2	1	68	6	1	6	1	6	0	2	0	0.44302	1	0.4	1	16	37	51	0
10-Apr-13	sub2306	2306	2	1	69	6	1	2	5	2	1	2	1	0.41193	1	0.6	0	12	30	31	0
10-Apr-13	sub2306	2306	2	1	70	6	1	3	2	1	1	1	1	0.48638	1	0.6	0	13	32	33	0
10-Apr-13	sub2306	2306	2	1	71	6	1	2	5	2	1	2	1	0.35812	1	0.6	0	12	30	31	0
10-Apr-13	sub2306	2306	2	1	72	6	1	1	3	6	1	1	1	0.41872	1	0.6	0	11	30	31	0
10-Apr-13	sub2306	2306	2	1	73	6	1	5	4	6	1	2	0	0.39437	0	0.6	0	15	45	46	0
10-Apr-13	sub2306	2306	2	1	74	6	1	5	4	6	1	1	1	0.47874	1	0.6	0	15	35	36	0
10-Apr-13	sub2306	2306	2	1	75	6	1	1	3	6	1	1	1	0.44182	1	0.6	0	11	30	31	0
10-Apr-13	sub2306	2306	2	1	76	6	2	1	3	6	1	1	1	0.49561	1	0.5	0	21	60	61	0
10-Apr-13	sub2306	2306	2	1	77	6	2	3	2	1	1	1	1	0.42971	1	0.5	0	23	62	63	0
10-Apr-13	sub2306	2306	2	1	78	6	2	5	4	6	0	2	1	0.48461	0	0.5	0	25	87	68	0
10-Apr-13	sub2306	2306	2	1	79	6	2	2	5	2	1	2	1	0.38433	1	0.5	0	22	60	61	0
10-Apr-13	sub2306	2306	2	1	80	6	2	5	4	6	0	2	1	0.43369	0	0.5	0	25	87	68	0
10-Apr-13	sub2306	2306	2	1	81	6	2	4	6	2	1	2	1	0.03229	1	0.5	0	24	62	63	0
10-Apr-13	sub2306	2306	2	1	82	6	2	6	1	6	1	2	1	0.46236	1	0.5	0	26	65	66	0
10-Apr-13	sub2306	2306	2	1	83	6	2	2	5	2	1	2	1	0.40501	1	0.5	0	22	60	61	0
10-Apr-13	sub2306	2306	2	1	84	6	2	6	1	6	0	2	0	0.4672	1	0.5	0	26	67	88	0
10-Apr-13	sub2306	2306	2	1	85	6	2	2	5	2	1	2	1	0.36398	1	0.5	0	22	60	61	0
10-Apr-13	sub2306	2306	2	1	86	6	2	3	2	1	1	1	1	0.47023	1	0.5	0	23	62	63	0
10-Apr-13	sub2306	2306	2	1	87	6	2	4	6	2	1	2	1	0.48335	1	0.5	0	24	62	63	0
10-Apr-13	sub2306	2306	2	1	88	6	2	1	3	6	1	1	1	0.41836	1	0.5	0	21	60	61	0
10-Apr-13	sub2306	2306	2	1	89	6	2	2	5	2	1	2	1	0.48863	1	0.5	0	22	60	61	0
10-Apr-13	sub2306	2306	2	1	90	6	2	3	2	1	1	1	1	0.43258	1	0.5	0	23	62	63	0
10-Apr-13	sub2306	2306	2	1	91	6	2	6	1	6	0	2	0	0.46583	1	0.5	0	26	67	88	0
10-Apr-13	sub2306	2306	2	1	92	6	2	1	3	6	1	1	1	0.46916	1	0.5	0	21	60	61	0
10-Apr-13	sub2306	2306	2	1	93	6	2	1	3	6	1	1	1	0.36775	1	0.5	0	21	60	61	0
10-Apr-13	sub2306	2306	2	1	94	6	2	1	3	6	1	1	1	0.37986	1	0.5	0	21	60	61	0
10-Apr-13	sub2306	2306	2	1	95	6	2	4	6	2	1	2	1	0.49939	1	0.5	0	24	62	63	0
10-Apr-13	sub2306	2306	2	1	96	6	2	2	5	2	1	2	1	0.45368	1	0.5	0	22	60	61	0
10-Apr-13	sub2306	2306	2	1	97	6	2	4	6	2	1	2	1	0.47596	1	0.5	0	24	62	63	0
10-Apr-13	sub2306	2306	2	1	98	6	2	4	6	2	1	2	1	0.39874	1	0.5	0	24	62	63	0
10-Apr-13	sub2306	2306	2	1	99	6	2	1	3	6	1	1	1	0.43187	1	0.5	0	21	60	61	0
10-Apr-13	sub2306	2306	2	1	100	6	2	5	4	6	0	2	1	0.43825	0	0.5	0	25	87	68	0
10-Apr-13	sub2306	2306	2	1	101	6	2	4	6	2	1	2	1	0.47839	1	0.4	1	24	62	51	0
10-Apr-13	sub2306	2306	2	1	102	6	2	2	5	2	1	2	1	0.38744	1	0.5	0	22	60	61	0
10-Apr-13	sub2306	2306	2	1	103	6	2	1	3	6	1	1	1	0.3758	1	0.5	0	21	60	61	0
10-Apr-13	sub2306	2306	2	1	104	6	2	6	1	6	1	2	1	0.46461	1	0.5	0	26	65	66	0
10-Apr-13	sub2306	2306	2	1	105	6	2	2	5	2	1	2	1	0.42275	1	0.5	0	22	60	61	0
10-Apr-13	sub2306	2306	2	1	106	6	2	3	2	1	1	1	1	0.45943	1	0.5	0	23	62	63	0
10-Apr-13	sub2306	2306	2	1	107	6	2	4	6	2	1	1	0	0.37915	0	0.5	0	24	82	83	0
10-Apr-13	sub2306	2306	2	1	108	6	2	4	6	2	0	2	0	0.30714	1	0.5	0	24	64	89	0
10-Apr-13	sub2306	2306	2	1	109	6	2	3	2	1	1	1	1	0.00107	1	0.5	0	23	62	63	0
10-Apr-13	sub2306	2306	2	1	110	6	2	4	6	2	0	2	0	0.40095	1	0.5	0	24	64	89	0
10-Apr-13	sub2306	2306	2	1	111	6	2	1	3	6	1	1	1	0.4156	1	0.5	0	21	60	61	0
10-Apr-13	sub2306	2306	2	1	112	6	2	1	3	6	1	1	1	0.36886	1	0.5	0	21	60	61	0
10-Apr-13	sub2306	2306	2	1	113	6	2	6	1	6	0	2	0	0.45737	1	0.5	0	26	67	88	0
10-Apr-13	sub2306	2306	2	1	114	6	2	3	2	1	1	1	1	0.03088	1	0.5	0	23	62	63	0
10-Apr-13	sub2306	2306	2	1	115	6	2	6	1	6	1	2	1	0.46717	1	0.5	0	26	65	66	0
10-Apr-13	sub2306	2306	2	1	116	6	2	2	5	2	1	2	1	0.46613	1	0.5	0	22	60	61	0
10-Apr-13	sub2306	2306	2	1	117	6	2	6	1	6	1	2	1	0.40586	1	0.5	0	26	65	66	0
10-Apr-13	sub2306	2306	2	1	118	6	2	6	1	6	0	2	0	0.41087	1	0.5	0	26	67	88	0
10-Apr-13	sub2306	2306	2	1	119	6	2	5	4	6	0	2	1	0.06784	0	0.5	0	25	87	68	0
10-Apr-13	sub2306	2306	2	1	120	6	2	6	1	6	0	2	0	0.46703	1	0.5	0	26	67	88	0
10-Apr-13	sub2306	2306	2	1	121	6	2	3	2	1	1	1	1	0.47202	1	0.5	0	23	62	63	0
10-Apr-13	sub2306	2306	2	1	122	6	2	5	4	6	0	2	1	0.49597	0	0.5	0	25	87	68	0
10-Apr-13	sub2306	2306	2	1	123	6	2	4	6	2	1	1	0	0.41301	0	0.5	0	24	82	83	0
10-Apr-13	sub2306	2306	2	1	124	6	2	5	4	6	0	2	1	0.02897	0	0.5	0	25	87	68	0
10-Apr-13	sub2306	2306	2	1	125	6	2	3	2	1	0	2	1	0.43455	0	0.5	0	23	84	69	0
10-Apr-13	sub2306	2306	2	1	126	6	2	5	4	6	0	2	1	0.48049	0	0.5	0	25	87	68	0
10-Apr-13	sub2306	2306	2	1	127	6	2	3	2	1	0	1	0	0.37392	1	0.5	0	23	64	89	0
10-Apr-13	sub2306	2306	2	1	128	6	2	6	1	6	1	2	1	0.4713	1	0.5	0	26	65	66	0
10-Apr-13	sub2306	2306	2	1	129	6	2	4	6	2	1	2	1	0.03101	1	0.5	0	24	62	63	0
10-Apr-13	sub2306	2306	2	1	130	6	2	5	4	6	0	2	1	0.00179	0	0.5	0	25	87	68	0
10-Apr-13	sub2306	2306	2	1	131	6	2	5	4	6	0	2	1	0.43625	0	0.5	0	25	87	68	0
10-Apr-13	sub2306	2306	2	1	132	6	2	5	4	6	0	2	1	0.38161	0	0.5	0	25	87	68	0
10-Apr-13	sub2306	2306	2	1	133	6	2	3	2	1	1	2	0	0.40597	0	0.5	0	23	82	83	0
10-Apr-13	sub2306	2306	2	1	134	6	2	6	1	6	0	2	0	0.42832	1	0.5	0	26	67	88	0
10-Apr-13	sub2306	2306	2	1	135	6	2	2	5	2	1	2	1	0.45937	1	0.4	1	22	60	51	0
10-Apr-13	sub2306	2306	2	1	136	6	2	2	5	2	1	2	1	0.36828	1	0.5	0	22	60	61	0
10-Apr-13	sub2306	2306	2	1	137	6	2	1	3	6	1	1	1	0.47883	1	0.5	0	21	60	61	0
10-Apr-13	sub2306	2306	2	1	138	6	2	5	4	6	0	2	1	0.45054	0	0.5	0	25	87	68	0
10-Apr-13	sub2306	2306	2	1	139	6	2	1	3	6	1	1	1	0.36794	1	0.5	0	21	60	61	0
10-Apr-13	sub2306	2306	2	1	140	6	2	1	3	6	1	1	1	0.43004	1	0.5	0	21	60	61	0
10-Apr-13	sub2306	2306	2	1	141	6	2	4	6	2	1	2	1	0.03542	1	0.5	0	24	62	63	0
10-Apr-13	sub2306	2306	2	1	142	6	2	5	4	6	0	2	1	0.05116	0	0.5	0	25	87	68	0
10-Apr-13	sub2306	2306	2	1	143	6	2	3	2	1	1	1	1	0.46392	1	0.5	0	23	62	63	0
10-Apr-13	sub2306	2306	2	1	144	6	2	2	5	2	1	2	1	0.43533	1	0.5	0	22	60	61	0
10-Apr-13	sub2306	2306	2	1	145	6	2	5	4	6	0	2	1	0.47001	0	0.5	0	25	87	68	0
10-Apr-13	sub2306	2306	2	1	146	6	2	3	2	1	1	1	1	0.41365	1	0.5	0	23	62	63	0
10-Apr-13	sub2306	2306	2	1	147	6	2	4	6	2	0	2	0	0.48244	1	0.5	0	24	64	89	0
10-Apr-13	sub2306	2306	2	1	148	6	2	2	5	2	1	2	1	0.37975	1	0.5	0	22	60	61	0
10-Apr-13	sub2306	2306	2	1	149	6	2	6	1	6	1	2	1	0.42327	1	0.5	0	26	65	66	0
10-Apr-13	sub2306	2306	2	1	150	6	2	1	3	6	1	1	1	0.39922	1	0.5	0	21	60	61	0
