Date 	 Name 	 ID 	 Gender 	 Appearance 	 Trial 	 Block 	 Bin 	 Condition 	 Category 	 Number 	 Valid 	 Keypress 	 Correct 	 RT 	 Realcorrect 	 Deadline 	 Timeout 	 Stimtrigger 	 Resptrigger 	 Fedtrigger 	WithinTime
11-Apr-13	sub2307	2307	2	0	1	1	1	4	2	5	1	0	0	0	0	0.6	1	14	0	51	0
11-Apr-13	sub2307	2307	2	0	2	1	1	2	3	5	1	0	0	0	0	0.9	1	12	0	51	0
11-Apr-13	sub2307	2307	2	0	3	1	1	3	5	1	1	0	0	0	0	0.9	1	13	0	51	0
11-Apr-13	sub2307	2307	2	0	4	1	1	3	5	1	1	0	0	0	0	0.9	1	13	0	51	0
11-Apr-13	sub2307	2307	2	0	5	1	1	3	5	1	1	2	0	0.14146	0	0.9	0	13	42	43	0
11-Apr-13	sub2307	2307	2	0	6	1	1	5	4	4	0	1	0	0.15222	1	0.9	0	15	37	48	0
11-Apr-13	sub2307	2307	2	0	7	1	1	6	6	1	0	1	1	0.49027	0	0.9	0	16	47	38	0
11-Apr-13	sub2307	2307	2	0	8	1	1	2	3	5	1	1	0	0.07077	0	0.9	0	12	40	41	0
11-Apr-13	sub2307	2307	2	0	9	1	1	3	5	1	1	1	1	0.09566	1	0.9	0	13	32	33	0
11-Apr-13	sub2307	2307	2	0	10	1	1	6	6	1	1	2	1	0.36757	1	0.9	0	16	35	36	0
11-Apr-13	sub2307	2307	2	0	11	1	1	1	1	5	1	1	1	0.13348	1	0.9	0	11	30	31	0
11-Apr-13	sub2307	2307	2	0	12	1	1	1	1	5	1	1	1	0.4626	1	0.9	0	11	30	31	0
11-Apr-13	sub2307	2307	2	0	13	1	1	6	6	1	1	2	1	0.4466	1	0.9	0	16	35	36	0
11-Apr-13	sub2307	2307	2	0	14	1	1	5	4	4	1	1	1	0.03942	1	0.9	0	15	35	36	0
11-Apr-13	sub2307	2307	2	0	15	1	1	6	6	1	0	2	0	0.03229	1	0.9	0	16	37	48	0
11-Apr-13	sub2307	2307	2	0	16	1	1	6	6	1	0	1	1	0.47624	0	0.9	0	16	47	38	0
11-Apr-13	sub2307	2307	2	0	17	1	1	5	4	4	1	2	0	0.1525	0	0.9	0	15	45	46	0
11-Apr-13	sub2307	2307	2	0	18	1	1	5	4	4	0	1	0	0.11293	1	0.9	0	15	37	48	0
11-Apr-13	sub2307	2307	2	0	19	1	1	6	6	1	1	1	0	0.06752	0	0.9	0	16	45	46	0
11-Apr-13	sub2307	2307	2	0	20	1	1	1	1	5	1	2	0	0.04106	0	0.9	0	11	40	41	0
11-Apr-13	sub2307	2307	2	0	21	1	1	6	6	1	0	2	0	0.03767	1	0.9	0	16	37	48	0
11-Apr-13	sub2307	2307	2	0	22	1	1	1	1	5	1	1	1	0.54241	1	0.9	0	11	30	31	0
11-Apr-13	sub2307	2307	2	0	23	1	1	2	3	5	1	1	0	0.4433	0	0.9	0	12	40	41	0
11-Apr-13	sub2307	2307	2	0	24	1	1	4	2	5	1	2	1	0.46587	1	0.9	0	14	32	33	0
11-Apr-13	sub2307	2307	2	0	25	1	1	3	5	1	0	1	0	0.25917	1	0.9	0	13	34	49	0
11-Apr-13	sub2307	2307	2	0	26	1	1	1	1	5	1	1	1	0.08682	1	0.9	0	11	30	31	0
11-Apr-13	sub2307	2307	2	0	27	1	1	4	2	5	1	1	0	0.14982	0	0.9	0	14	42	43	0
11-Apr-13	sub2307	2307	2	0	28	1	1	5	4	4	0	1	0	0.07262	1	0.9	0	15	37	48	0
11-Apr-13	sub2307	2307	2	0	29	1	1	3	5	1	1	2	0	0.15585	0	0.9	0	13	42	43	0
11-Apr-13	sub2307	2307	2	0	30	1	1	4	2	5	1	1	0	0.07946	0	0.9	0	14	42	43	0
11-Apr-13	sub2307	2307	2	0	31	1	1	2	3	5	1	1	0	0.09442	0	0.9	0	12	40	41	0
11-Apr-13	sub2307	2307	2	0	32	1	1	6	6	1	0	2	0	0.16891	1	0.9	0	16	37	48	0
11-Apr-13	sub2307	2307	2	0	33	1	1	1	1	5	1	1	1	0.05066	1	0.9	0	11	30	31	0
11-Apr-13	sub2307	2307	2	0	34	1	1	1	1	5	1	1	1	0.41844	1	0.9	0	11	30	31	0
11-Apr-13	sub2307	2307	2	0	35	1	1	2	3	5	1	1	0	0.00677	0	0.9	0	12	40	41	0
11-Apr-13	sub2307	2307	2	0	36	1	1	4	2	5	0	2	0	0.48602	1	0.9	0	14	34	49	0
11-Apr-13	sub2307	2307	2	0	37	1	1	2	3	5	1	2	1	0.08074	1	0.9	0	12	30	31	0
11-Apr-13	sub2307	2307	2	0	38	1	1	3	5	1	1	1	1	0.03259	1	0.9	0	13	32	33	0
11-Apr-13	sub2307	2307	2	0	39	1	1	4	2	5	1	2	1	0.05113	1	0.9	0	14	32	33	0
11-Apr-13	sub2307	2307	2	0	40	1	1	5	4	4	1	2	0	0.0417	0	0.9	0	15	45	46	0
11-Apr-13	sub2307	2307	2	0	41	1	1	5	4	4	1	2	0	0.43534	0	0.9	0	15	45	46	0
11-Apr-13	sub2307	2307	2	0	42	1	1	1	1	5	1	1	1	0.45166	1	0.9	0	11	30	31	0
11-Apr-13	sub2307	2307	2	0	43	1	1	5	4	4	0	1	0	0.02004	1	0.9	0	15	37	48	0
11-Apr-13	sub2307	2307	2	0	44	1	1	5	4	4	1	2	0	0.44396	0	0.9	0	15	45	46	0
11-Apr-13	sub2307	2307	2	0	45	1	1	4	2	5	1	2	1	0.14816	1	0.9	0	14	32	33	0
11-Apr-13	sub2307	2307	2	0	46	1	1	3	5	1	1	1	1	0.02308	1	0.9	0	13	32	33	0
11-Apr-13	sub2307	2307	2	0	47	1	1	3	5	1	0	2	1	0.19025	0	0.9	0	13	44	39	0
11-Apr-13	sub2307	2307	2	0	48	1	1	4	2	5	1	1	0	0.00379	0	0.9	0	14	42	43	0
11-Apr-13	sub2307	2307	2	0	49	1	1	6	6	1	1	2	1	0.47073	1	0.9	0	16	35	36	0
11-Apr-13	sub2307	2307	2	0	50	1	1	3	5	1	0	2	1	0.44368	0	0.9	0	13	44	39	0
11-Apr-13	sub2307	2307	2	0	51	1	1	5	4	4	1	2	0	0.47955	0	0.9	0	15	45	46	0
11-Apr-13	sub2307	2307	2	0	52	1	1	1	1	5	1	1	1	0.45066	1	0.9	0	11	30	31	0
11-Apr-13	sub2307	2307	2	0	53	1	1	2	3	5	1	1	0	0.12615	0	0.9	0	12	40	41	0
11-Apr-13	sub2307	2307	2	0	54	1	1	4	2	5	1	2	1	0.466	1	0.9	0	14	32	33	0
11-Apr-13	sub2307	2307	2	0	55	1	1	6	6	1	0	2	0	0.44632	1	0.9	0	16	37	48	0
11-Apr-13	sub2307	2307	2	0	56	1	1	2	3	5	1	1	0	0.23126	0	0.9	0	12	40	41	0
11-Apr-13	sub2307	2307	2	0	57	1	1	6	6	1	1	1	0	0.09973	0	0.9	0	16	45	46	0
11-Apr-13	sub2307	2307	2	0	58	1	1	2	3	5	1	2	1	0.39488	1	0.9	0	12	30	31	0
11-Apr-13	sub2307	2307	2	0	59	1	1	4	2	5	0	2	0	0.00456	1	0.8	0	14	34	49	0
11-Apr-13	sub2307	2307	2	0	60	1	1	2	3	5	1	2	1	0.44998	1	0.8	0	12	30	31	0
11-Apr-13	sub2307	2307	2	0	61	1	1	2	3	5	1	2	1	0.39312	1	0.8	0	12	30	31	0
11-Apr-13	sub2307	2307	2	0	62	1	1	3	5	1	1	1	1	0.0036	1	0.8	0	13	32	33	0
11-Apr-13	sub2307	2307	2	0	63	1	1	2	3	5	1	2	1	0.10204	1	0.8	0	12	30	31	0
11-Apr-13	sub2307	2307	2	0	64	1	1	5	4	4	0	1	0	0.45344	1	0.8	0	15	37	48	0
11-Apr-13	sub2307	2307	2	0	65	1	1	4	2	5	1	2	1	0.40213	1	0.8	0	14	32	33	0
11-Apr-13	sub2307	2307	2	0	66	1	1	3	5	1	1	2	0	0.17781	0	0.8	0	13	42	43	0
11-Apr-13	sub2307	2307	2	0	67	1	1	6	6	1	0	2	0	0.18406	1	0.8	0	16	37	48	0
11-Apr-13	sub2307	2307	2	0	68	1	1	1	1	5	1	1	1	0.46693	1	0.7	0	11	30	31	0
11-Apr-13	sub2307	2307	2	0	69	1	1	4	2	5	1	2	1	0.16957	1	0.7	0	14	32	33	0
11-Apr-13	sub2307	2307	2	0	70	1	1	1	1	5	1	1	1	0.18873	1	0.7	0	11	30	31	0
11-Apr-13	sub2307	2307	2	0	71	1	1	5	4	4	0	2	1	0.02088	0	0.7	0	15	47	38	0
11-Apr-13	sub2307	2307	2	0	72	1	1	1	1	5	1	1	1	0.20407	1	0.7	0	11	30	31	0
11-Apr-13	sub2307	2307	2	0	73	1	1	2	3	5	1	2	1	0.00848	1	0.7	0	12	30	31	0
11-Apr-13	sub2307	2307	2	0	74	1	1	6	6	1	1	2	1	0.1246	1	0.7	0	16	35	36	0
11-Apr-13	sub2307	2307	2	0	75	1	1	3	5	1	1	2	0	0.49656	0	0.7	0	13	42	43	0
11-Apr-13	sub2307	2307	2	0	1	2	1	3	3	1	1	1	1	0.1163	1	0.6	0	13	32	33	0
11-Apr-13	sub2307	2307	2	0	2	2	1	2	6	4	1	2	1	0.42651	1	0.3	1	12	30	51	0
11-Apr-13	sub2307	2307	2	0	3	2	1	4	1	3	1	2	1	0.43559	1	0.9	0	14	32	33	0
11-Apr-13	sub2307	2307	2	0	4	2	1	2	6	4	1	2	1	0.45746	1	0.9	0	12	30	31	0
11-Apr-13	sub2307	2307	2	0	5	2	1	4	1	3	1	2	1	0.41695	1	0.9	0	14	32	33	0
11-Apr-13	sub2307	2307	2	0	6	2	1	2	6	4	1	2	1	0.02078	1	0.9	0	12	30	31	0
11-Apr-13	sub2307	2307	2	0	7	2	1	5	4	1	0	2	1	0.00826	0	0.9	0	15	47	38	0
11-Apr-13	sub2307	2307	2	0	8	2	1	3	3	1	1	1	1	0.4812	1	0.9	0	13	32	33	0
11-Apr-13	sub2307	2307	2	0	9	2	1	5	4	1	1	2	0	0.36457	0	0.9	0	15	45	46	0
11-Apr-13	sub2307	2307	2	0	10	2	1	4	1	3	1	2	1	0.45068	1	0.9	0	14	32	33	0
11-Apr-13	sub2307	2307	2	0	11	2	1	2	6	4	1	2	1	0.44607	1	0.9	0	12	30	31	0
11-Apr-13	sub2307	2307	2	0	12	2	1	5	4	1	0	2	1	0.01159	0	0.9	0	15	47	38	0
11-Apr-13	sub2307	2307	2	0	13	2	1	6	5	4	0	2	0	0.09971	1	0.9	0	16	37	48	0
11-Apr-13	sub2307	2307	2	0	14	2	1	1	2	1	1	1	1	0.0532	1	0.9	0	11	30	31	0
11-Apr-13	sub2307	2307	2	0	15	2	1	5	4	1	0	2	1	0.08434	0	0.9	0	15	47	38	0
11-Apr-13	sub2307	2307	2	0	16	2	1	1	2	1	1	1	1	0.052	1	0.8	0	11	30	31	0
11-Apr-13	sub2307	2307	2	0	17	2	1	2	6	4	1	1	0	0.4494	0	0.8	0	12	40	41	0
11-Apr-13	sub2307	2307	2	0	18	2	1	5	4	1	1	2	0	0.44591	0	0.7	0	15	45	46	0
11-Apr-13	sub2307	2307	2	0	19	2	1	6	5	4	0	1	1	0.03821	0	0.7	0	16	47	38	0
11-Apr-13	sub2307	2307	2	0	20	2	1	3	3	1	1	1	1	0.0166	1	0.7	0	13	32	33	0
11-Apr-13	sub2307	2307	2	0	21	2	1	6	5	4	0	1	1	0.46464	0	0.6	0	16	47	38	0
11-Apr-13	sub2307	2307	2	0	22	2	1	4	1	3	1	2	1	0.05004	1	0.6	0	14	32	33	0
11-Apr-13	sub2307	2307	2	0	23	2	1	3	3	1	1	1	1	0.20445	1	0.6	0	13	32	33	0
11-Apr-13	sub2307	2307	2	0	24	2	1	6	5	4	1	1	0	0.40155	0	0.6	0	16	45	46	0
11-Apr-13	sub2307	2307	2	0	25	2	1	2	6	4	1	2	1	0.09249	1	0.6	0	12	30	31	0
11-Apr-13	sub2307	2307	2	0	26	2	1	5	4	1	1	2	0	0.48943	0	0.5	0	15	45	46	0
11-Apr-13	sub2307	2307	2	0	27	2	1	6	5	4	0	1	1	0.00553	0	0.5	0	16	47	38	0
11-Apr-13	sub2307	2307	2	0	28	2	1	4	1	3	1	2	1	0.03195	1	0.5	0	14	32	33	0
11-Apr-13	sub2307	2307	2	0	29	2	1	3	3	1	1	1	1	0.35366	1	0.5	0	13	32	33	0
11-Apr-13	sub2307	2307	2	0	30	2	1	1	2	1	1	2	0	0.05458	0	0.5	0	11	40	41	0
11-Apr-13	sub2307	2307	2	0	31	2	1	3	3	1	1	1	1	0.41239	1	0.5	0	13	32	33	0
11-Apr-13	sub2307	2307	2	0	32	2	1	2	6	4	1	2	1	0.08857	1	0.5	0	12	30	31	0
11-Apr-13	sub2307	2307	2	0	33	2	1	6	5	4	0	1	1	0.01016	0	0.5	0	16	47	38	0
11-Apr-13	sub2307	2307	2	0	34	2	1	2	6	4	1	1	0	0.04217	0	0.5	0	12	40	41	0
11-Apr-13	sub2307	2307	2	0	35	2	1	2	6	4	1	2	1	0.43778	1	0.4	1	12	30	51	0
11-Apr-13	sub2307	2307	2	0	36	2	1	1	2	1	1	1	1	0.43706	1	0.7	0	11	30	31	0
11-Apr-13	sub2307	2307	2	0	37	2	1	4	1	3	1	2	1	0.44697	1	0.7	0	14	32	33	0
11-Apr-13	sub2307	2307	2	0	38	2	1	5	4	1	1	2	0	0.49255	0	0.7	0	15	45	46	0
11-Apr-13	sub2307	2307	2	0	39	2	1	5	4	1	1	2	0	0.00161	0	0.7	0	15	45	46	0
11-Apr-13	sub2307	2307	2	0	40	2	1	5	4	1	0	2	1	0.4909	0	0.7	0	15	47	38	0
11-Apr-13	sub2307	2307	2	0	41	2	1	1	2	1	1	1	1	0.03417	1	0.6	0	11	30	31	0
11-Apr-13	sub2307	2307	2	0	42	2	1	4	1	3	1	2	1	0.01726	1	0.6	0	14	32	33	0
11-Apr-13	sub2307	2307	2	0	43	2	1	6	5	4	1	1	0	0.06099	0	0.6	0	16	45	46	0
11-Apr-13	sub2307	2307	2	0	44	2	1	2	6	4	1	2	1	0.07855	1	0.6	0	12	30	31	0
11-Apr-13	sub2307	2307	2	0	45	2	1	1	2	1	1	1	1	0.06532	1	0.6	0	11	30	31	0
11-Apr-13	sub2307	2307	2	0	46	2	1	6	5	4	0	2	0	0.01862	1	0.6	0	16	37	48	0
11-Apr-13	sub2307	2307	2	0	47	2	1	4	1	3	0	2	0	0.00874	1	0.6	0	14	34	49	0
11-Apr-13	sub2307	2307	2	0	48	2	1	4	1	3	1	2	1	0.04207	1	0.6	0	14	32	33	0
11-Apr-13	sub2307	2307	2	0	49	2	1	5	4	1	0	0	0	0	0	0.6	1	15	0	51	0
11-Apr-13	sub2307	2307	2	0	50	2	1	6	5	4	1	1	0	0.03131	0	0.8	0	16	45	46	0
11-Apr-13	sub2307	2307	2	0	51	2	1	5	4	1	1	2	0	0.02398	0	0.7	0	15	45	46	0
11-Apr-13	sub2307	2307	2	0	52	2	1	1	2	1	1	1	1	0.46455	1	0.7	0	11	30	31	0
11-Apr-13	sub2307	2307	2	0	53	2	1	6	5	4	1	1	0	0.48677	0	0.7	0	16	45	46	0
11-Apr-13	sub2307	2307	2	0	54	2	1	6	5	4	1	1	0	0.49253	0	0.7	0	16	45	46	0
11-Apr-13	sub2307	2307	2	0	55	2	1	6	5	4	0	2	0	0.00413	1	0.7	0	16	37	48	0
11-Apr-13	sub2307	2307	2	0	56	2	1	3	3	1	1	1	1	0.47696	1	0.7	0	13	32	33	0
11-Apr-13	sub2307	2307	2	0	57	2	1	3	3	1	1	1	1	0.3931	1	0.7	0	13	32	33	0
11-Apr-13	sub2307	2307	2	0	58	2	1	4	1	3	1	2	1	0.04245	1	0.7	0	14	32	33	0
11-Apr-13	sub2307	2307	2	0	59	2	1	1	2	1	1	1	1	0.44339	1	0.7	0	11	30	31	0
11-Apr-13	sub2307	2307	2	0	60	2	1	1	2	1	1	1	1	0.36626	1	0.7	0	11	30	31	0
11-Apr-13	sub2307	2307	2	0	61	2	1	2	6	4	1	2	1	0.05945	1	0.6	0	12	30	31	0
11-Apr-13	sub2307	2307	2	0	62	2	1	1	2	1	1	1	1	0.42724	1	0.6	0	11	30	31	0
11-Apr-13	sub2307	2307	2	0	63	2	1	4	1	3	0	2	0	0.04692	1	0.6	0	14	34	49	0
11-Apr-13	sub2307	2307	2	0	64	2	1	3	3	1	0	1	0	0.42568	1	0.6	0	13	34	49	0
11-Apr-13	sub2307	2307	2	0	65	2	1	3	3	1	1	1	1	0.38531	1	0.6	0	13	32	33	0
11-Apr-13	sub2307	2307	2	0	66	2	1	5	4	1	1	1	1	0.0516	1	0.6	0	15	35	36	0
11-Apr-13	sub2307	2307	2	0	67	2	1	4	1	3	1	2	1	0.01818	1	0.6	0	14	32	33	0
11-Apr-13	sub2307	2307	2	0	68	2	1	3	3	1	0	1	0	0.43592	1	0.6	0	13	34	49	0
11-Apr-13	sub2307	2307	2	0	69	2	1	2	6	4	1	2	1	0.49137	1	0.6	0	12	30	31	0
11-Apr-13	sub2307	2307	2	0	70	2	1	1	2	1	1	1	1	0.4674	1	0.6	0	11	30	31	0
11-Apr-13	sub2307	2307	2	0	71	2	1	3	3	1	1	1	1	0.01144	1	0.6	0	13	32	33	0
11-Apr-13	sub2307	2307	2	0	72	2	1	6	5	4	1	1	0	0.02021	0	0.6	0	16	45	46	0
11-Apr-13	sub2307	2307	2	0	73	2	1	2	6	4	1	2	1	0.18496	1	0.6	0	12	30	31	0
11-Apr-13	sub2307	2307	2	0	74	2	1	1	2	1	1	1	1	0.4535	1	0.6	0	11	30	31	0
11-Apr-13	sub2307	2307	2	0	75	2	1	3	3	1	0	1	0	0.44986	1	0.6	0	13	34	49	0
11-Apr-13	sub2307	2307	2	0	76	2	2	6	5	4	0	1	1	0.09236	0	0.5	0	26	87	68	0
11-Apr-13	sub2307	2307	2	0	77	2	2	5	4	1	0	2	1	0.03825	0	0.5	0	25	87	68	0
11-Apr-13	sub2307	2307	2	0	78	2	2	3	3	1	1	1	1	0.44296	1	0.5	0	23	62	63	0
11-Apr-13	sub2307	2307	2	0	79	2	2	5	4	1	0	1	0	0.43919	1	0.5	0	25	67	88	0
11-Apr-13	sub2307	2307	2	0	80	2	2	4	1	3	1	2	1	0.15052	1	0.5	0	24	62	63	0
11-Apr-13	sub2307	2307	2	0	81	2	2	3	3	1	1	1	1	0.48013	1	0.5	0	23	62	63	0
11-Apr-13	sub2307	2307	2	0	82	2	2	5	4	1	0	2	1	0.05928	0	0.5	0	25	87	68	0
11-Apr-13	sub2307	2307	2	0	83	2	2	2	6	4	1	2	1	0.03489	1	0.5	0	22	60	61	0
11-Apr-13	sub2307	2307	2	0	84	2	2	5	4	1	0	2	1	0.38152	0	0.5	0	25	87	68	0
11-Apr-13	sub2307	2307	2	0	85	2	2	5	4	1	0	2	1	0.40133	0	0.5	0	25	87	68	0
11-Apr-13	sub2307	2307	2	0	86	2	2	5	4	1	0	2	1	0.41589	0	0.5	0	25	87	68	0
11-Apr-13	sub2307	2307	2	0	87	2	2	6	5	4	1	1	0	0.48037	0	0.5	0	26	85	86	0
11-Apr-13	sub2307	2307	2	0	88	2	2	1	2	1	1	1	1	0.00426	1	0.5	0	21	60	61	0
11-Apr-13	sub2307	2307	2	0	89	2	2	3	3	1	1	1	1	0.09449	1	0.5	0	23	62	63	0
11-Apr-13	sub2307	2307	2	0	90	2	2	2	6	4	1	2	1	0.08887	1	0.5	0	22	60	61	0
11-Apr-13	sub2307	2307	2	0	91	2	2	1	2	1	1	1	1	0.03582	1	0.5	0	21	60	61	0
11-Apr-13	sub2307	2307	2	0	92	2	2	1	2	1	1	1	1	0.46187	1	0.5	0	21	60	61	0
11-Apr-13	sub2307	2307	2	0	93	2	2	5	4	1	0	2	1	0.07724	0	0.5	0	25	87	68	0
11-Apr-13	sub2307	2307	2	0	94	2	2	3	3	1	0	1	0	0.48602	1	0.5	0	23	64	89	0
11-Apr-13	sub2307	2307	2	0	95	2	2	3	3	1	1	1	1	0.37931	1	0.5	0	23	62	63	0
11-Apr-13	sub2307	2307	2	0	96	2	2	6	5	4	1	1	0	0.03557	0	0.5	0	26	85	86	0
11-Apr-13	sub2307	2307	2	0	97	2	2	3	3	1	1	1	1	0.42901	1	0.5	0	23	62	63	0
11-Apr-13	sub2307	2307	2	0	98	2	2	2	6	4	1	2	1	0.06697	1	0.5	0	22	60	61	0
11-Apr-13	sub2307	2307	2	0	99	2	2	2	6	4	1	2	1	0.05124	1	0.5	0	22	60	61	0
11-Apr-13	sub2307	2307	2	0	100	2	2	4	1	3	1	2	1	0.16009	1	0.5	0	24	62	63	0
11-Apr-13	sub2307	2307	2	0	101	2	2	3	3	1	0	1	0	0.01838	1	0.4	0	23	64	89	0
11-Apr-13	sub2307	2307	2	0	102	2	2	2	6	4	1	2	1	0.09644	1	0.4	0	22	60	61	0
11-Apr-13	sub2307	2307	2	0	103	2	2	3	3	1	1	1	1	0.49258	1	0.4	1	23	62	51	0
11-Apr-13	sub2307	2307	2	0	104	2	2	4	1	3	0	2	0	0.49509	1	0.5	0	24	64	89	0
11-Apr-13	sub2307	2307	2	0	105	2	2	2	6	4	1	2	1	0.04766	1	0.5	0	22	60	61	0
11-Apr-13	sub2307	2307	2	0	106	2	2	1	2	1	1	1	1	0.45498	1	0.5	0	21	60	61	0
11-Apr-13	sub2307	2307	2	0	107	2	2	1	2	1	1	1	1	0.45816	1	0.5	0	21	60	61	0
11-Apr-13	sub2307	2307	2	0	108	2	2	5	4	1	0	2	1	0.40056	0	0.5	0	25	87	68	0
11-Apr-13	sub2307	2307	2	0	109	2	2	2	6	4	1	1	0	0.44448	0	0.5	0	22	80	81	0
11-Apr-13	sub2307	2307	2	0	110	2	2	4	1	3	0	2	0	0.49583	1	0.5	0	24	64	89	0
11-Apr-13	sub2307	2307	2	0	111	2	2	5	4	1	0	2	1	0.00757	0	0.5	0	25	87	68	0
11-Apr-13	sub2307	2307	2	0	112	2	2	1	2	1	1	1	1	0.02213	1	0.5	0	21	60	61	0
11-Apr-13	sub2307	2307	2	0	113	2	2	3	3	1	1	1	1	0.00217	1	0.5	0	23	62	63	0
11-Apr-13	sub2307	2307	2	0	114	2	2	1	2	1	1	1	1	0.49333	1	0.5	0	21	60	61	0
11-Apr-13	sub2307	2307	2	0	115	2	2	6	5	4	1	2	1	0.38572	1	0.5	0	26	65	66	0
11-Apr-13	sub2307	2307	2	0	116	2	2	4	1	3	0	1	1	0.49169	0	0.5	0	24	84	69	0
11-Apr-13	sub2307	2307	2	0	117	2	2	2	6	4	1	2	1	0.02338	1	0.5	0	22	60	61	0
11-Apr-13	sub2307	2307	2	0	118	2	2	6	5	4	0	2	0	0.05825	1	0.5	0	26	67	88	0
11-Apr-13	sub2307	2307	2	0	119	2	2	4	1	3	1	2	1	0.49069	1	0.5	0	24	62	63	0
11-Apr-13	sub2307	2307	2	0	120	2	2	4	1	3	1	2	1	0.00472	1	0.5	0	24	62	63	0
11-Apr-13	sub2307	2307	2	0	121	2	2	1	2	1	1	1	1	0.06008	1	0.5	0	21	60	61	0
11-Apr-13	sub2307	2307	2	0	122	2	2	5	4	1	0	2	1	0.0183	0	0.5	0	25	87	68	0
11-Apr-13	sub2307	2307	2	0	123	2	2	6	5	4	0	2	0	0.05697	1	0.5	0	26	67	88	0
11-Apr-13	sub2307	2307	2	0	124	2	2	5	4	1	0	2	1	0.02685	0	0.5	0	25	87	68	0
11-Apr-13	sub2307	2307	2	0	125	2	2	2	6	4	1	2	1	0.27177	1	0.5	0	22	60	61	0
11-Apr-13	sub2307	2307	2	0	126	2	2	1	2	1	1	1	1	0.46815	1	0.5	0	21	60	61	0
11-Apr-13	sub2307	2307	2	0	127	2	2	4	1	3	1	2	1	0.45104	1	0.5	0	24	62	63	0
11-Apr-13	sub2307	2307	2	0	128	2	2	1	2	1	1	1	1	0.49311	1	0.5	0	21	60	61	0
11-Apr-13	sub2307	2307	2	0	129	2	2	1	2	1	1	1	1	0.42285	1	0.5	0	21	60	61	0
11-Apr-13	sub2307	2307	2	0	130	2	2	2	6	4	1	2	1	0.45701	1	0.5	0	22	60	61	0
11-Apr-13	sub2307	2307	2	0	131	2	2	6	5	4	1	2	1	0.5003	1	0.5	1	26	65	51	0
11-Apr-13	sub2307	2307	2	0	132	2	2	2	6	4	1	2	1	0.10652	1	0.5	0	22	60	61	0
11-Apr-13	sub2307	2307	2	0	133	2	2	4	1	3	1	2	1	0.03375	1	0.5	0	24	62	63	0
11-Apr-13	sub2307	2307	2	0	134	2	2	6	5	4	1	1	0	0.45112	0	0.5	0	26	85	86	0
11-Apr-13	sub2307	2307	2	0	135	2	2	6	5	4	0	2	0	0.02165	1	0.5	0	26	67	88	0
11-Apr-13	sub2307	2307	2	0	136	2	2	5	4	1	0	2	1	0.03142	0	0.5	0	25	87	68	0
11-Apr-13	sub2307	2307	2	0	137	2	2	4	1	3	1	2	1	0.47567	1	0.5	0	24	62	63	0
11-Apr-13	sub2307	2307	2	0	138	2	2	2	6	4	1	2	1	0.46199	1	0.5	0	22	60	61	0
11-Apr-13	sub2307	2307	2	0	139	2	2	1	2	1	1	1	1	0.49086	1	0.5	0	21	60	61	0
11-Apr-13	sub2307	2307	2	0	140	2	2	5	4	1	0	2	1	0.48271	0	0.5	0	25	87	68	0
11-Apr-13	sub2307	2307	2	0	141	2	2	3	3	1	1	1	1	0.46733	1	0.5	0	23	62	63	0
11-Apr-13	sub2307	2307	2	0	142	2	2	6	5	4	1	2	1	0.47531	1	0.5	0	26	65	66	0
11-Apr-13	sub2307	2307	2	0	143	2	2	3	3	1	1	1	1	0.48686	1	0.5	0	23	62	63	0
11-Apr-13	sub2307	2307	2	0	144	2	2	3	3	1	1	1	1	0.4837	1	0.5	0	23	62	63	0
11-Apr-13	sub2307	2307	2	0	145	2	2	4	1	3	1	2	1	0.47289	1	0.5	0	24	62	63	0
11-Apr-13	sub2307	2307	2	0	146	2	2	6	5	4	0	1	1	0.38959	0	0.5	0	26	87	68	0
11-Apr-13	sub2307	2307	2	0	147	2	2	4	1	3	1	2	1	0.00992	1	0.5	0	24	62	63	0
11-Apr-13	sub2307	2307	2	0	148	2	2	1	2	1	1	1	1	0.10622	1	0.5	0	21	60	61	0
11-Apr-13	sub2307	2307	2	0	149	2	2	4	1	3	1	2	1	0.49554	1	0.5	0	24	62	63	0
11-Apr-13	sub2307	2307	2	0	150	2	2	6	5	4	0	2	0	0.36521	1	0.5	0	26	67	88	0
11-Apr-13	sub2307	2307	2	0	1	3	1	1	6	2	1	1	1	0.40328	1	0.6	0	11	30	31	0
11-Apr-13	sub2307	2307	2	0	2	3	1	6	3	4	1	2	1	0.4582	1	0.3	1	16	35	51	0
11-Apr-13	sub2307	2307	2	0	3	3	1	5	5	2	0	2	1	0.43156	0	0.9	0	15	47	38	0
11-Apr-13	sub2307	2307	2	0	4	3	1	4	2	4	1	2	1	0.45608	1	0.9	0	14	32	33	0
11-Apr-13	sub2307	2307	2	0	5	3	1	1	6	2	1	1	1	0.04199	1	0.9	0	11	30	31	0
11-Apr-13	sub2307	2307	2	0	6	3	1	1	6	2	1	1	1	0.43148	1	0.9	0	11	30	31	0
11-Apr-13	sub2307	2307	2	0	7	3	1	1	6	2	1	1	1	0.04504	1	0.9	0	11	30	31	0
11-Apr-13	sub2307	2307	2	0	8	3	1	5	5	2	1	1	1	0.48469	1	0.9	0	15	35	36	0
11-Apr-13	sub2307	2307	2	0	9	3	1	2	1	2	1	2	1	0.42076	1	0.9	0	12	30	31	0
11-Apr-13	sub2307	2307	2	0	10	3	1	4	2	4	0	2	0	0.09176	1	0.9	0	14	34	49	0
11-Apr-13	sub2307	2307	2	0	11	3	1	2	1	2	1	2	1	0.46483	1	0.9	0	12	30	31	0
11-Apr-13	sub2307	2307	2	0	12	3	1	4	2	4	1	2	1	0.03348	1	0.9	0	14	32	33	0
11-Apr-13	sub2307	2307	2	0	13	3	1	3	4	3	1	1	1	0.05077	1	0.9	0	13	32	33	0
11-Apr-13	sub2307	2307	2	0	14	3	1	2	1	2	1	2	1	0.0365	1	0.9	0	12	30	31	0
11-Apr-13	sub2307	2307	2	0	15	3	1	5	5	2	1	2	0	0.14813	0	0.9	0	15	45	46	0
11-Apr-13	sub2307	2307	2	0	16	3	1	1	6	2	1	1	1	0.01531	1	0.8	0	11	30	31	0
11-Apr-13	sub2307	2307	2	0	17	3	1	6	3	4	1	2	1	0.39605	1	0.8	0	16	35	36	0
11-Apr-13	sub2307	2307	2	0	18	3	1	1	6	2	1	1	1	0.06671	1	0.7	0	11	30	31	0
11-Apr-13	sub2307	2307	2	0	19	3	1	4	2	4	0	2	0	0.00024	1	0.7	0	14	34	49	0
11-Apr-13	sub2307	2307	2	0	20	3	1	3	4	3	0	2	1	0.0603	0	0.7	0	13	44	39	0
11-Apr-13	sub2307	2307	2	0	21	3	1	1	6	2	1	1	1	0.49983	1	0.6	0	11	30	31	0
11-Apr-13	sub2307	2307	2	0	22	3	1	4	2	4	1	1	0	0.43082	0	0.6	0	14	42	43	0
11-Apr-13	sub2307	2307	2	0	23	3	1	6	3	4	1	2	1	0.14391	1	0.6	0	16	35	36	0
11-Apr-13	sub2307	2307	2	0	24	3	1	6	3	4	0	2	0	0.49	1	0.6	0	16	37	48	0
11-Apr-13	sub2307	2307	2	0	25	3	1	3	4	3	1	2	0	0.05298	0	0.6	0	13	42	43	0
11-Apr-13	sub2307	2307	2	0	26	3	1	5	5	2	0	2	1	0.04185	0	0.5	0	15	47	38	0
11-Apr-13	sub2307	2307	2	0	27	3	1	2	1	2	1	2	1	0.05206	1	0.5	0	12	30	31	0
11-Apr-13	sub2307	2307	2	0	28	3	1	3	4	3	1	1	1	0.10453	1	0.5	0	13	32	33	0
11-Apr-13	sub2307	2307	2	0	29	3	1	3	4	3	1	1	1	0.00594	1	0.5	0	13	32	33	0
11-Apr-13	sub2307	2307	2	0	30	3	1	1	6	2	1	1	1	0.00864	1	0.5	0	11	30	31	0
11-Apr-13	sub2307	2307	2	0	31	3	1	6	3	4	0	2	0	0.03332	1	0.5	0	16	37	48	0
11-Apr-13	sub2307	2307	2	0	32	3	1	5	5	2	0	2	1	0.0557	0	0.5	0	15	47	38	0
11-Apr-13	sub2307	2307	2	0	33	3	1	4	2	4	1	1	0	0.45793	0	0.5	0	14	42	43	0
11-Apr-13	sub2307	2307	2	0	34	3	1	3	4	3	1	1	1	0.42906	1	0.5	0	13	32	33	0
11-Apr-13	sub2307	2307	2	0	35	3	1	1	6	2	1	1	1	0.34852	1	0.4	0	11	30	31	0
11-Apr-13	sub2307	2307	2	0	36	3	1	5	5	2	0	2	1	0.44789	0	0.4	1	15	47	51	0
11-Apr-13	sub2307	2307	2	0	37	3	1	6	3	4	1	1	0	0.41497	0	0.7	0	16	45	46	0
11-Apr-13	sub2307	2307	2	0	38	3	1	3	4	3	1	1	1	0.05835	1	0.7	0	13	32	33	0
11-Apr-13	sub2307	2307	2	0	39	3	1	2	1	2	1	2	1	0.16503	1	0.7	0	12	30	31	0
11-Apr-13	sub2307	2307	2	0	40	3	1	3	4	3	1	1	1	0.39736	1	0.7	0	13	32	33	0
11-Apr-13	sub2307	2307	2	0	41	3	1	2	1	2	1	2	1	0.10738	1	0.6	0	12	30	31	0
11-Apr-13	sub2307	2307	2	0	42	3	1	5	5	2	1	2	0	0.01041	0	0.6	0	15	45	46	0
11-Apr-13	sub2307	2307	2	0	43	3	1	4	2	4	1	1	0	0.47672	0	0.6	0	14	42	43	0
11-Apr-13	sub2307	2307	2	0	44	3	1	4	2	4	1	2	1	0.45924	1	0.6	0	14	32	33	0
11-Apr-13	sub2307	2307	2	0	45	3	1	4	2	4	1	2	1	0.34246	1	0.6	0	14	32	33	0
11-Apr-13	sub2307	2307	2	0	46	3	1	3	4	3	0	1	0	0.13059	1	0.6	0	13	34	49	0
11-Apr-13	sub2307	2307	2	0	47	3	1	6	3	4	0	2	0	0.0109	1	0.6	0	16	37	48	0
11-Apr-13	sub2307	2307	2	0	48	3	1	5	5	2	1	1	1	0.06462	1	0.6	0	15	35	36	0
11-Apr-13	sub2307	2307	2	0	49	3	1	6	3	4	0	1	1	0.45951	0	0.6	0	16	47	38	0
11-Apr-13	sub2307	2307	2	0	50	3	1	6	3	4	1	1	0	0.42415	0	0.6	0	16	45	46	0
11-Apr-13	sub2307	2307	2	0	51	3	1	2	1	2	1	2	1	0.47963	1	0.5	0	12	30	31	0
11-Apr-13	sub2307	2307	2	0	52	3	1	6	3	4	0	1	1	0.4798	0	0.5	0	16	47	38	0
11-Apr-13	sub2307	2307	2	0	53	3	1	1	6	2	1	1	1	0.38457	1	0.5	0	11	30	31	0
11-Apr-13	sub2307	2307	2	0	54	3	1	1	6	2	1	1	1	0.44262	1	0.5	0	11	30	31	0
11-Apr-13	sub2307	2307	2	0	55	3	1	5	5	2	1	1	1	0.45414	1	0.5	0	15	35	36	0
11-Apr-13	sub2307	2307	2	0	56	3	1	2	1	2	1	2	1	0.03695	1	0.5	0	12	30	31	0
11-Apr-13	sub2307	2307	2	0	57	3	1	6	3	4	0	2	0	0.19939	1	0.5	0	16	37	48	0
11-Apr-13	sub2307	2307	2	0	58	3	1	3	4	3	0	1	0	0.44371	1	0.5	0	13	34	49	0
11-Apr-13	sub2307	2307	2	0	59	3	1	6	3	4	0	1	1	0.38769	0	0.5	0	16	47	38	0
11-Apr-13	sub2307	2307	2	0	60	3	1	3	4	3	1	1	1	0.40162	1	0.5	0	13	32	33	0
11-Apr-13	sub2307	2307	2	0	61	3	1	5	5	2	1	1	1	0.4318	1	0.5	0	15	35	36	0
11-Apr-13	sub2307	2307	2	0	62	3	1	5	5	2	1	1	1	0.39364	1	0.5	0	15	35	36	0
11-Apr-13	sub2307	2307	2	0	63	3	1	4	2	4	1	2	1	0.01458	1	0.5	0	14	32	33	0
11-Apr-13	sub2307	2307	2	0	64	3	1	2	1	2	1	2	1	0.04501	1	0.5	0	12	30	31	0
11-Apr-13	sub2307	2307	2	0	65	3	1	2	1	2	1	2	1	0.45364	1	0.5	0	12	30	31	0
11-Apr-13	sub2307	2307	2	0	66	3	1	3	4	3	1	1	1	0.05806	1	0.5	0	13	32	33	0
11-Apr-13	sub2307	2307	2	0	67	3	1	2	1	2	1	2	1	0.08312	1	0.5	0	12	30	31	0
11-Apr-13	sub2307	2307	2	0	68	3	1	2	1	2	1	2	1	0.41376	1	0.4	1	12	30	51	0
11-Apr-13	sub2307	2307	2	0	69	3	1	2	1	2	1	2	1	0.39291	1	0.6	0	12	30	31	0
11-Apr-13	sub2307	2307	2	0	70	3	1	5	5	2	0	2	1	0.45624	0	0.6	0	15	47	38	0
11-Apr-13	sub2307	2307	2	0	71	3	1	4	2	4	1	2	1	0.49289	1	0.6	0	14	32	33	0
11-Apr-13	sub2307	2307	2	0	72	3	1	6	3	4	1	1	0	0.45293	0	0.6	0	16	45	46	0
11-Apr-13	sub2307	2307	2	0	73	3	1	3	4	3	1	1	1	0.02154	1	0.6	0	13	32	33	0
11-Apr-13	sub2307	2307	2	0	74	3	1	1	6	2	1	1	1	0.35177	1	0.6	0	11	30	31	0
11-Apr-13	sub2307	2307	2	0	75	3	1	4	2	4	1	1	0	0.46193	0	0.6	0	14	42	43	0
11-Apr-13	sub2307	2307	2	0	76	3	2	1	6	2	1	2	0	0.39672	0	0.5	0	21	80	81	0
11-Apr-13	sub2307	2307	2	0	77	3	2	6	3	4	0	1	1	0.1761	0	0.5	0	26	87	68	0
11-Apr-13	sub2307	2307	2	0	78	3	2	6	3	4	0	1	1	0.41801	0	0.5	0	26	87	68	0
11-Apr-13	sub2307	2307	2	0	79	3	2	3	4	3	1	1	1	0.01342	1	0.5	0	23	62	63	0
11-Apr-13	sub2307	2307	2	0	80	3	2	4	2	4	0	2	0	0.02488	1	0.5	0	24	64	89	0
11-Apr-13	sub2307	2307	2	0	81	3	2	5	5	2	0	1	0	0.48498	1	0.5	0	25	67	88	0
11-Apr-13	sub2307	2307	2	0	82	3	2	1	6	2	1	2	0	0.48728	0	0.5	0	21	80	81	0
11-Apr-13	sub2307	2307	2	0	83	3	2	4	2	4	1	2	1	0.45761	1	0.5	0	24	62	63	0
11-Apr-13	sub2307	2307	2	0	84	3	2	6	3	4	1	1	0	0.41795	0	0.5	0	26	85	86	0
11-Apr-13	sub2307	2307	2	0	85	3	2	3	4	3	1	1	1	0.43823	1	0.5	0	23	62	63	0
11-Apr-13	sub2307	2307	2	0	86	3	2	5	5	2	0	1	0	0.05539	1	0.5	0	25	67	88	0
11-Apr-13	sub2307	2307	2	0	87	3	2	1	6	2	1	1	1	0.03073	1	0.5	0	21	60	61	0
11-Apr-13	sub2307	2307	2	0	88	3	2	5	5	2	0	2	1	0.10611	0	0.5	0	25	87	68	0
11-Apr-13	sub2307	2307	2	0	89	3	2	1	6	2	1	1	1	0.03761	1	0.5	0	21	60	61	0
11-Apr-13	sub2307	2307	2	0	90	3	2	4	2	4	0	2	0	0.4736	1	0.5	0	24	64	89	0
11-Apr-13	sub2307	2307	2	0	91	3	2	6	3	4	0	1	1	0.4666	0	0.5	0	26	87	68	0
11-Apr-13	sub2307	2307	2	0	92	3	2	3	4	3	1	1	1	0.41008	1	0.5	0	23	62	63	0
11-Apr-13	sub2307	2307	2	0	93	3	2	4	2	4	1	2	1	0.00641	1	0.5	0	24	62	63	0
11-Apr-13	sub2307	2307	2	0	94	3	2	1	6	2	1	1	1	0.44272	1	0.5	0	21	60	61	0
11-Apr-13	sub2307	2307	2	0	95	3	2	4	2	4	1	2	1	0.02129	1	0.5	0	24	62	63	0
11-Apr-13	sub2307	2307	2	0	96	3	2	2	1	2	1	2	1	0.01529	1	0.5	0	22	60	61	0
11-Apr-13	sub2307	2307	2	0	97	3	2	3	4	3	0	1	0	0.06852	1	0.5	0	23	64	89	0
11-Apr-13	sub2307	2307	2	0	98	3	2	5	5	2	0	2	1	0.12531	0	0.5	0	25	87	68	0
11-Apr-13	sub2307	2307	2	0	99	3	2	2	1	2	1	2	1	0.09075	1	0.5	0	22	60	61	0
11-Apr-13	sub2307	2307	2	0	100	3	2	3	4	3	1	1	1	0.14485	1	0.5	0	23	62	63	0
11-Apr-13	sub2307	2307	2	0	101	3	2	4	2	4	1	2	1	0.48543	1	0.4	1	24	62	51	0
11-Apr-13	sub2307	2307	2	0	102	3	2	6	3	4	0	1	1	0.05137	0	0.5	0	26	87	68	0
11-Apr-13	sub2307	2307	2	0	103	3	2	3	4	3	1	1	1	0.41149	1	0.5	0	23	62	63	0
11-Apr-13	sub2307	2307	2	0	104	3	2	4	2	4	1	2	1	0.42284	1	0.5	0	24	62	63	0
11-Apr-13	sub2307	2307	2	0	105	3	2	1	6	2	1	1	1	0.03553	1	0.5	0	21	60	61	0
11-Apr-13	sub2307	2307	2	0	106	3	2	1	6	2	1	1	1	0.01312	1	0.5	0	21	60	61	0
11-Apr-13	sub2307	2307	2	0	107	3	2	6	3	4	1	2	1	0.44194	1	0.5	0	26	65	66	0
11-Apr-13	sub2307	2307	2	0	108	3	2	2	1	2	1	2	1	0.02967	1	0.5	0	22	60	61	0
11-Apr-13	sub2307	2307	2	0	109	3	2	2	1	2	1	2	1	0.46625	1	0.5	0	22	60	61	0
11-Apr-13	sub2307	2307	2	0	110	3	2	1	6	2	1	1	1	0.39533	1	0.5	0	21	60	61	0
11-Apr-13	sub2307	2307	2	0	111	3	2	6	3	4	1	1	0	0.03916	0	0.5	0	26	85	86	0
11-Apr-13	sub2307	2307	2	0	112	3	2	5	5	2	0	1	0	0.041	1	0.5	0	25	67	88	0
11-Apr-13	sub2307	2307	2	0	113	3	2	6	3	4	0	2	0	0.11409	1	0.5	0	26	67	88	0
11-Apr-13	sub2307	2307	2	0	114	3	2	2	1	2	1	2	1	0.16241	1	0.5	0	22	60	61	0
11-Apr-13	sub2307	2307	2	0	115	3	2	5	5	2	0	1	0	0.08387	1	0.5	0	25	67	88	0
11-Apr-13	sub2307	2307	2	0	116	3	2	5	5	2	0	2	1	0.43062	0	0.5	0	25	87	68	0
11-Apr-13	sub2307	2307	2	0	117	3	2	3	4	3	1	1	1	0.4878	1	0.5	0	23	62	63	0
11-Apr-13	sub2307	2307	2	0	118	3	2	5	5	2	0	2	1	0.04015	0	0.5	0	25	87	68	0
11-Apr-13	sub2307	2307	2	0	119	3	2	4	2	4	1	2	1	0.46767	1	0.5	0	24	62	63	0
11-Apr-13	sub2307	2307	2	0	120	3	2	5	5	2	0	2	1	0.47397	0	0.5	0	25	87	68	0
11-Apr-13	sub2307	2307	2	0	121	3	2	1	6	2	1	2	0	0.47019	0	0.5	0	21	80	81	0
11-Apr-13	sub2307	2307	2	0	122	3	2	4	2	4	1	2	1	0.48739	1	0.5	0	24	62	63	0
11-Apr-13	sub2307	2307	2	0	123	3	2	2	1	2	1	2	1	0.00955	1	0.5	0	22	60	61	0
11-Apr-13	sub2307	2307	2	0	124	3	2	2	1	2	1	2	1	0.04287	1	0.5	0	22	60	61	0
11-Apr-13	sub2307	2307	2	0	125	3	2	1	6	2	1	1	1	0.40507	1	0.5	0	21	60	61	0
11-Apr-13	sub2307	2307	2	0	126	3	2	3	4	3	1	2	0	0.49122	0	0.5	0	23	82	83	0
11-Apr-13	sub2307	2307	2	0	127	3	2	5	5	2	0	2	1	0.03429	0	0.5	0	25	87	68	0
11-Apr-13	sub2307	2307	2	0	128	3	2	5	5	2	0	2	1	0.48831	0	0.5	0	25	87	68	0
11-Apr-13	sub2307	2307	2	0	129	3	2	6	3	4	0	1	1	0.13541	0	0.5	0	26	87	68	0
11-Apr-13	sub2307	2307	2	0	130	3	2	5	5	2	0	1	0	0.45605	1	0.5	0	25	67	88	0
11-Apr-13	sub2307	2307	2	0	131	3	2	2	1	2	1	2	1	0.02977	1	0.5	0	22	60	61	0
11-Apr-13	sub2307	2307	2	0	132	3	2	6	3	4	1	0	0	0	0	0.5	1	26	0	51	0
11-Apr-13	sub2307	2307	2	0	133	3	2	2	1	2	1	2	1	0.48386	1	0.5	0	22	60	61	0
11-Apr-13	sub2307	2307	2	0	134	3	2	3	4	3	1	1	1	0.03712	1	0.5	0	23	62	63	0
11-Apr-13	sub2307	2307	2	0	135	3	2	1	6	2	1	1	1	0.43428	1	0.5	0	21	60	61	0
11-Apr-13	sub2307	2307	2	0	136	3	2	6	3	4	1	1	0	0.38739	0	0.5	0	26	85	86	0
11-Apr-13	sub2307	2307	2	0	137	3	2	2	1	2	1	2	1	0.02314	1	0.5	0	22	60	61	0
11-Apr-13	sub2307	2307	2	0	138	3	2	4	2	4	0	2	0	0.01797	1	0.5	0	24	64	89	0
11-Apr-13	sub2307	2307	2	0	139	3	2	4	2	4	1	2	1	0.42588	1	0.5	0	24	62	63	0
11-Apr-13	sub2307	2307	2	0	140	3	2	2	1	2	1	2	1	0.04692	1	0.5	0	22	60	61	0
11-Apr-13	sub2307	2307	2	0	141	3	2	2	1	2	1	2	1	0.46491	1	0.5	0	22	60	61	0
11-Apr-13	sub2307	2307	2	0	142	3	2	3	4	3	0	1	0	0.03673	1	0.5	0	23	64	89	0
11-Apr-13	sub2307	2307	2	0	143	3	2	1	6	2	1	1	1	0.45803	1	0.5	0	21	60	61	0
11-Apr-13	sub2307	2307	2	0	144	3	2	5	5	2	0	1	0	0.43332	1	0.5	0	25	67	88	0
11-Apr-13	sub2307	2307	2	0	145	3	2	1	6	2	1	1	1	0.06102	1	0.5	0	21	60	61	0
11-Apr-13	sub2307	2307	2	0	146	3	2	3	4	3	1	1	1	0.12881	1	0.5	0	23	62	63	0
11-Apr-13	sub2307	2307	2	0	147	3	2	3	4	3	1	1	1	0.44073	1	0.5	0	23	62	63	0
11-Apr-13	sub2307	2307	2	0	148	3	2	6	3	4	1	1	0	0.0678	0	0.5	0	26	85	86	0
11-Apr-13	sub2307	2307	2	0	149	3	2	4	2	4	1	2	1	0.0635	1	0.5	0	24	62	63	0
11-Apr-13	sub2307	2307	2	0	150	3	2	4	2	4	1	2	1	0.45726	1	0.5	0	24	62	63	0
11-Apr-13	sub2307	2307	2	0	1	4	1	3	5	3	1	2	0	0.04328	0	0.6	0	13	42	43	0
11-Apr-13	sub2307	2307	2	0	2	4	1	1	1	6	1	2	0	0.02387	0	0.3	0	11	40	41	0
11-Apr-13	sub2307	2307	2	0	3	4	1	4	2	3	1	2	1	0.04084	1	0.3	0	14	32	33	0
11-Apr-13	sub2307	2307	2	0	4	4	1	4	2	3	1	2	1	0.04022	1	0.3	0	14	32	33	0
11-Apr-13	sub2307	2307	2	0	5	4	1	1	1	6	1	1	1	0.42306	1	0.3	1	11	30	51	0
11-Apr-13	sub2307	2307	2	0	6	4	1	5	6	3	1	2	0	0.42829	0	0.9	0	15	45	46	0
11-Apr-13	sub2307	2307	2	0	7	4	1	2	3	3	1	2	1	0.45819	1	0.9	0	12	30	31	0
11-Apr-13	sub2307	2307	2	0	8	4	1	3	5	3	0	1	0	0.17529	1	0.9	0	13	34	49	0
11-Apr-13	sub2307	2307	2	0	9	4	1	2	3	3	1	1	0	0.47374	0	0.9	0	12	40	41	0
11-Apr-13	sub2307	2307	2	0	10	4	1	5	6	3	0	2	1	0.4351	0	0.9	0	15	47	38	0
11-Apr-13	sub2307	2307	2	0	11	4	1	6	4	6	1	1	0	0.46056	0	0.9	0	16	45	46	0
11-Apr-13	sub2307	2307	2	0	12	4	1	5	6	3	0	1	0	0.44047	1	0.9	0	15	37	48	0
11-Apr-13	sub2307	2307	2	0	13	4	1	1	1	6	1	1	1	0.43356	1	0.9	0	11	30	31	0
11-Apr-13	sub2307	2307	2	0	14	4	1	6	4	6	1	2	1	0.12983	1	0.9	0	16	35	36	0
11-Apr-13	sub2307	2307	2	0	15	4	1	6	4	6	0	2	0	0.45658	1	0.9	0	16	37	48	0
11-Apr-13	sub2307	2307	2	0	16	4	1	5	6	3	1	1	1	0.46616	1	0.8	0	15	35	36	0
11-Apr-13	sub2307	2307	2	0	17	4	1	2	3	3	1	2	1	0.4849	1	0.8	0	12	30	31	0
11-Apr-13	sub2307	2307	2	0	18	4	1	2	3	3	1	1	0	0.44499	0	0.7	0	12	40	41	0
11-Apr-13	sub2307	2307	2	0	19	4	1	6	4	6	1	1	0	0.12186	0	0.7	0	16	45	46	0
11-Apr-13	sub2307	2307	2	0	20	4	1	1	1	6	1	1	1	0.05841	1	0.7	0	11	30	31	0
11-Apr-13	sub2307	2307	2	0	21	4	1	5	6	3	0	2	1	0.44086	0	0.6	0	15	47	38	0
11-Apr-13	sub2307	2307	2	0	22	4	1	2	3	3	1	2	1	0.41328	1	0.6	0	12	30	31	0
11-Apr-13	sub2307	2307	2	0	23	4	1	5	6	3	1	2	0	0.4209	0	0.6	0	15	45	46	0
11-Apr-13	sub2307	2307	2	0	24	4	1	2	3	3	1	2	1	0.04938	1	0.6	0	12	30	31	0
11-Apr-13	sub2307	2307	2	0	25	4	1	6	4	6	0	1	1	0.11558	0	0.6	0	16	47	38	0
11-Apr-13	sub2307	2307	2	0	26	4	1	6	4	6	1	1	0	0.36431	0	0.5	0	16	45	46	0
11-Apr-13	sub2307	2307	2	0	27	4	1	6	4	6	1	1	0	0.37869	0	0.5	0	16	45	46	0
11-Apr-13	sub2307	2307	2	0	28	4	1	1	1	6	1	2	0	0.43128	0	0.5	0	11	40	41	0
11-Apr-13	sub2307	2307	2	0	29	4	1	4	2	3	1	1	0	0.47128	0	0.5	0	14	42	43	0
11-Apr-13	sub2307	2307	2	0	30	4	1	6	4	6	0	1	1	0.43765	0	0.5	0	16	47	38	0
11-Apr-13	sub2307	2307	2	0	31	4	1	4	2	3	1	1	0	0.06048	0	0.5	0	14	42	43	0
11-Apr-13	sub2307	2307	2	0	32	4	1	6	4	6	0	1	1	0.01083	0	0.5	0	16	47	38	0
11-Apr-13	sub2307	2307	2	0	33	4	1	2	3	3	1	2	1	0.49986	1	0.5	0	12	30	31	0
11-Apr-13	sub2307	2307	2	0	34	4	1	2	3	3	1	2	1	0.43655	1	0.5	0	12	30	31	0
11-Apr-13	sub2307	2307	2	0	35	4	1	5	6	3	1	2	0	0.07134	0	0.4	0	15	45	46	0
11-Apr-13	sub2307	2307	2	0	36	4	1	2	3	3	1	2	1	0.10988	1	0.4	0	12	30	31	0
11-Apr-13	sub2307	2307	2	0	37	4	1	6	4	6	1	1	0	0.44996	0	0.4	1	16	45	51	0
11-Apr-13	sub2307	2307	2	0	38	4	1	6	4	6	1	1	0	0.00094	0	0.7	0	16	45	46	0
11-Apr-13	sub2307	2307	2	0	39	4	1	5	6	3	1	2	0	0.11281	0	0.7	0	15	45	46	0
11-Apr-13	sub2307	2307	2	0	40	4	1	6	4	6	0	2	0	0.45526	1	0.7	0	16	37	48	0
11-Apr-13	sub2307	2307	2	0	41	4	1	1	1	6	1	1	1	0.03531	1	0.6	0	11	30	31	0
11-Apr-13	sub2307	2307	2	0	42	4	1	2	3	3	1	2	1	0.47631	1	0.6	0	12	30	31	0
11-Apr-13	sub2307	2307	2	0	43	4	1	5	6	3	0	1	0	0.49316	1	0.6	0	15	37	48	0
11-Apr-13	sub2307	2307	2	0	44	4	1	4	2	3	1	2	1	0.42623	1	0.6	0	14	32	33	0
11-Apr-13	sub2307	2307	2	0	45	4	1	2	3	3	1	2	1	0.47804	1	0.6	0	12	30	31	0
11-Apr-13	sub2307	2307	2	0	46	4	1	3	5	3	1	1	1	0.01265	1	0.6	0	13	32	33	0
11-Apr-13	sub2307	2307	2	0	47	4	1	4	2	3	1	2	1	0.00694	1	0.6	0	14	32	33	0
11-Apr-13	sub2307	2307	2	0	48	4	1	4	2	3	0	2	0	0.06152	1	0.6	0	14	34	49	0
11-Apr-13	sub2307	2307	2	0	49	4	1	3	5	3	1	1	1	0.48668	1	0.6	0	13	32	33	0
11-Apr-13	sub2307	2307	2	0	50	4	1	1	1	6	1	1	1	0.00706	1	0.6	0	11	30	31	0
11-Apr-13	sub2307	2307	2	0	51	4	1	1	1	6	1	1	1	0.45101	1	0.5	0	11	30	31	0
11-Apr-13	sub2307	2307	2	0	52	4	1	3	5	3	1	2	0	0.49523	0	0.5	0	13	42	43	0
11-Apr-13	sub2307	2307	2	0	53	4	1	5	6	3	0	2	1	0.47253	0	0.5	0	15	47	38	0
11-Apr-13	sub2307	2307	2	0	54	4	1	5	6	3	0	2	1	0.41151	0	0.5	0	15	47	38	0
11-Apr-13	sub2307	2307	2	0	55	4	1	3	5	3	1	1	1	0.0186	1	0.5	0	13	32	33	0
11-Apr-13	sub2307	2307	2	0	56	4	1	5	6	3	1	1	1	0.47844	1	0.5	0	15	35	36	0
11-Apr-13	sub2307	2307	2	0	57	4	1	4	2	3	1	2	1	0.03456	1	0.5	0	14	32	33	0
11-Apr-13	sub2307	2307	2	0	58	4	1	3	5	3	1	1	1	0.48359	1	0.5	0	13	32	33	0
11-Apr-13	sub2307	2307	2	0	59	4	1	4	2	3	1	1	0	0.45642	0	0.5	0	14	42	43	0
11-Apr-13	sub2307	2307	2	0	60	4	1	1	1	6	1	1	1	0.49342	1	0.5	0	11	30	31	0
11-Apr-13	sub2307	2307	2	0	61	4	1	2	3	3	1	2	1	0.00036	1	0.5	0	12	30	31	0
11-Apr-13	sub2307	2307	2	0	62	4	1	4	2	3	1	2	1	0.00415	1	0.5	0	14	32	33	0
11-Apr-13	sub2307	2307	2	0	63	4	1	3	5	3	1	1	1	0.47724	1	0.5	0	13	32	33	0
11-Apr-13	sub2307	2307	2	0	64	4	1	1	1	6	1	1	1	0.41963	1	0.5	0	11	30	31	0
11-Apr-13	sub2307	2307	2	0	65	4	1	4	2	3	1	2	1	0.49506	1	0.5	0	14	32	33	0
11-Apr-13	sub2307	2307	2	0	66	4	1	3	5	3	0	1	0	0.47384	1	0.5	0	13	34	49	0
11-Apr-13	sub2307	2307	2	0	67	4	1	3	5	3	1	1	1	0.44524	1	0.5	0	13	32	33	0
11-Apr-13	sub2307	2307	2	0	68	4	1	6	4	6	0	2	0	0.07179	1	0.4	0	16	37	48	0
11-Apr-13	sub2307	2307	2	0	69	4	1	3	5	3	1	1	1	0.48778	1	0.4	1	13	32	51	0
11-Apr-13	sub2307	2307	2	0	70	4	1	2	3	3	1	2	1	0.20259	1	0.6	0	12	30	31	0
11-Apr-13	sub2307	2307	2	0	71	4	1	3	5	3	0	1	0	0.49494	1	0.6	0	13	34	49	0
11-Apr-13	sub2307	2307	2	0	72	4	1	3	5	3	1	1	1	0.48026	1	0.6	0	13	32	33	0
11-Apr-13	sub2307	2307	2	0	73	4	1	1	1	6	1	1	1	0.42654	1	0.6	0	11	30	31	0
11-Apr-13	sub2307	2307	2	0	74	4	1	4	2	3	0	2	0	0.44673	1	0.6	0	14	34	49	0
11-Apr-13	sub2307	2307	2	0	75	4	1	1	1	6	1	1	1	0.44122	1	0.6	0	11	30	31	0
11-Apr-13	sub2307	2307	2	0	76	4	2	1	1	6	1	1	1	0.47534	1	0.5	0	21	60	61	0
11-Apr-13	sub2307	2307	2	0	77	4	2	4	2	3	1	2	1	0.00241	1	0.5	0	24	62	63	0
11-Apr-13	sub2307	2307	2	0	78	4	2	3	5	3	1	1	1	0.00827	1	0.5	0	23	62	63	0
11-Apr-13	sub2307	2307	2	0	79	4	2	4	2	3	1	2	1	0.00181	1	0.5	0	24	62	63	0
11-Apr-13	sub2307	2307	2	0	80	4	2	1	1	6	1	1	1	0.00677	1	0.5	0	21	60	61	0
11-Apr-13	sub2307	2307	2	0	81	4	2	5	6	3	0	2	1	0.44382	0	0.5	0	25	87	68	0
11-Apr-13	sub2307	2307	2	0	82	4	2	1	1	6	1	1	1	0.44525	1	0.5	0	21	60	61	0
11-Apr-13	sub2307	2307	2	0	83	4	2	6	4	6	1	1	0	0.05721	0	0.5	0	26	85	86	0
11-Apr-13	sub2307	2307	2	0	84	4	2	1	1	6	1	1	1	0.44734	1	0.5	0	21	60	61	0
11-Apr-13	sub2307	2307	2	0	85	4	2	1	1	6	1	1	1	0.47489	1	0.5	0	21	60	61	0
11-Apr-13	sub2307	2307	2	0	86	4	2	3	5	3	1	1	1	0.48659	1	0.5	0	23	62	63	0
11-Apr-13	sub2307	2307	2	0	87	4	2	1	1	6	1	1	1	0.47117	1	0.5	0	21	60	61	0
11-Apr-13	sub2307	2307	2	0	88	4	2	6	4	6	0	1	1	0.35056	0	0.5	0	26	87	68	0
11-Apr-13	sub2307	2307	2	0	89	4	2	4	2	3	1	2	1	0.19504	1	0.5	0	24	62	63	0
11-Apr-13	sub2307	2307	2	0	90	4	2	2	3	3	1	2	1	0.497	1	0.5	0	22	60	61	0
11-Apr-13	sub2307	2307	2	0	91	4	2	6	4	6	1	1	0	0.08041	0	0.5	0	26	85	86	0
11-Apr-13	sub2307	2307	2	0	92	4	2	5	6	3	0	2	1	0.47529	0	0.5	0	25	87	68	0
11-Apr-13	sub2307	2307	2	0	93	4	2	2	3	3	1	2	1	0.05335	1	0.5	0	22	60	61	0
11-Apr-13	sub2307	2307	2	0	94	4	2	5	6	3	0	2	1	0.15799	0	0.5	0	25	87	68	0
11-Apr-13	sub2307	2307	2	0	95	4	2	1	1	6	1	1	1	0.44908	1	0.5	0	21	60	61	0
11-Apr-13	sub2307	2307	2	0	96	4	2	4	2	3	0	2	0	0.45837	1	0.5	0	24	64	89	0
11-Apr-13	sub2307	2307	2	0	97	4	2	3	5	3	1	1	1	0.41277	1	0.5	0	23	62	63	0
11-Apr-13	sub2307	2307	2	0	98	4	2	5	6	3	0	2	1	0.46302	0	0.5	0	25	87	68	0
11-Apr-13	sub2307	2307	2	0	99	4	2	5	6	3	0	2	1	0.46541	0	0.5	0	25	87	68	0
11-Apr-13	sub2307	2307	2	0	100	4	2	1	1	6	1	1	1	0.49514	1	0.5	0	21	60	61	0
11-Apr-13	sub2307	2307	2	0	101	4	2	1	1	6	1	1	1	0.01357	1	0.4	0	21	60	61	0
11-Apr-13	sub2307	2307	2	0	102	4	2	6	4	6	1	2	1	0.04528	1	0.4	0	26	65	66	0
11-Apr-13	sub2307	2307	2	0	103	4	2	3	5	3	1	1	1	0.44274	1	0.4	1	23	62	51	0
11-Apr-13	sub2307	2307	2	0	104	4	2	4	2	3	1	2	1	0.06158	1	0.5	0	24	62	63	0
11-Apr-13	sub2307	2307	2	0	105	4	2	3	5	3	1	1	1	0.38629	1	0.5	0	23	62	63	0
11-Apr-13	sub2307	2307	2	0	106	4	2	6	4	6	1	2	1	0.0034	1	0.5	0	26	65	66	0
11-Apr-13	sub2307	2307	2	0	107	4	2	4	2	3	1	2	1	0.03912	1	0.5	0	24	62	63	0
11-Apr-13	sub2307	2307	2	0	108	4	2	6	4	6	1	2	1	0.07487	1	0.5	0	26	65	66	0
11-Apr-13	sub2307	2307	2	0	109	4	2	2	3	3	1	2	1	0.47216	1	0.5	0	22	60	61	0
11-Apr-13	sub2307	2307	2	0	110	4	2	2	3	3	1	2	1	0.40721	1	0.5	0	22	60	61	0
11-Apr-13	sub2307	2307	2	0	111	4	2	5	6	3	0	1	0	0.46439	1	0.5	0	25	67	88	0
11-Apr-13	sub2307	2307	2	0	112	4	2	6	4	6	0	1	1	0.45367	0	0.5	0	26	87	68	0
11-Apr-13	sub2307	2307	2	0	113	4	2	6	4	6	0	1	1	0.47187	0	0.5	0	26	87	68	0
11-Apr-13	sub2307	2307	2	0	114	4	2	5	6	3	0	2	1	0.4834	0	0.5	0	25	87	68	0
11-Apr-13	sub2307	2307	2	0	115	4	2	2	3	3	1	2	1	0.43639	1	0.5	0	22	60	61	0
11-Apr-13	sub2307	2307	2	0	116	4	2	4	2	3	1	2	1	0.01829	1	0.5	0	24	62	63	0
11-Apr-13	sub2307	2307	2	0	117	4	2	3	5	3	1	1	1	0.03268	1	0.5	0	23	62	63	0
11-Apr-13	sub2307	2307	2	0	118	4	2	6	4	6	1	1	0	0.02279	0	0.5	0	26	85	86	0
11-Apr-13	sub2307	2307	2	0	119	4	2	4	2	3	1	2	1	0.48001	1	0.5	0	24	62	63	0
11-Apr-13	sub2307	2307	2	0	120	4	2	4	2	3	1	2	1	0.06726	1	0.5	0	24	62	63	0
11-Apr-13	sub2307	2307	2	0	121	4	2	5	6	3	0	2	1	0.49951	0	0.5	0	25	87	68	0
11-Apr-13	sub2307	2307	2	0	122	4	2	2	3	3	1	2	1	0.40629	1	0.5	0	22	60	61	0
11-Apr-13	sub2307	2307	2	0	123	4	2	2	3	3	1	2	1	0.39968	1	0.5	0	22	60	61	0
11-Apr-13	sub2307	2307	2	0	124	4	2	2	3	3	1	2	1	0.39615	1	0.5	0	22	60	61	0
11-Apr-13	sub2307	2307	2	0	125	4	2	5	6	3	0	2	1	0.02239	0	0.5	0	25	87	68	0
11-Apr-13	sub2307	2307	2	0	126	4	2	4	2	3	0	2	0	0.48158	1	0.5	0	24	64	89	0
11-Apr-13	sub2307	2307	2	0	127	4	2	1	1	6	1	2	0	0.43955	0	0.5	0	21	80	81	0
11-Apr-13	sub2307	2307	2	0	128	4	2	1	1	6	1	1	1	0.09024	1	0.5	0	21	60	61	0
11-Apr-13	sub2307	2307	2	0	129	4	2	5	6	3	0	2	1	0.48356	0	0.5	0	25	87	68	0
11-Apr-13	sub2307	2307	2	0	130	4	2	4	2	3	1	2	1	0.47053	1	0.5	0	24	62	63	0
11-Apr-13	sub2307	2307	2	0	131	4	2	6	4	6	0	1	1	0.48247	0	0.5	0	26	87	68	0
11-Apr-13	sub2307	2307	2	0	132	4	2	5	6	3	0	2	1	0.46459	0	0.5	0	25	87	68	0
11-Apr-13	sub2307	2307	2	0	133	4	2	5	6	3	0	1	0	0.08928	1	0.5	0	25	67	88	0
11-Apr-13	sub2307	2307	2	0	134	4	2	3	5	3	1	1	1	0.01192	1	0.5	0	23	62	63	0
11-Apr-13	sub2307	2307	2	0	135	4	2	2	3	3	1	2	1	0.00569	1	0.4	0	22	60	61	0
11-Apr-13	sub2307	2307	2	0	136	4	2	3	5	3	0	1	0	0.47564	1	0.4	1	23	64	51	0
11-Apr-13	sub2307	2307	2	0	137	4	2	5	6	3	0	2	1	0.42251	0	0.5	0	25	87	68	0
11-Apr-13	sub2307	2307	2	0	138	4	2	3	5	3	1	2	0	0.42416	0	0.5	0	23	82	83	0
11-Apr-13	sub2307	2307	2	0	139	4	2	3	5	3	1	1	1	0.06576	1	0.5	0	23	62	63	0
11-Apr-13	sub2307	2307	2	0	140	4	2	2	3	3	1	2	1	0.43481	1	0.5	0	22	60	61	0
11-Apr-13	sub2307	2307	2	0	141	4	2	4	2	3	1	2	1	0.47023	1	0.5	0	24	62	63	0
11-Apr-13	sub2307	2307	2	0	142	4	2	3	5	3	1	1	1	0.48686	1	0.5	0	23	62	63	0
11-Apr-13	sub2307	2307	2	0	143	4	2	1	1	6	1	1	1	0.02354	1	0.5	0	21	60	61	0
11-Apr-13	sub2307	2307	2	0	144	4	2	1	1	6	1	1	1	0.41109	1	0.5	0	21	60	61	0
11-Apr-13	sub2307	2307	2	0	145	4	2	6	4	6	0	2	0	0.05214	1	0.5	0	26	67	88	0
11-Apr-13	sub2307	2307	2	0	146	4	2	4	2	3	0	2	0	0.15584	1	0.5	0	24	64	89	0
11-Apr-13	sub2307	2307	2	0	147	4	2	3	5	3	0	1	0	0.01352	1	0.5	0	23	64	89	0
11-Apr-13	sub2307	2307	2	0	148	4	2	2	3	3	1	2	1	0.45374	1	0.5	0	22	60	61	0
11-Apr-13	sub2307	2307	2	0	149	4	2	6	4	6	0	1	1	0.46108	0	0.5	0	26	87	68	0
11-Apr-13	sub2307	2307	2	0	150	4	2	2	3	3	1	2	1	0.00611	1	0.5	0	22	60	61	0
11-Apr-13	sub2307	2307	2	0	1	5	1	2	1	1	1	2	1	0.48393	1	0.6	0	12	30	31	0
11-Apr-13	sub2307	2307	2	0	2	5	1	4	4	2	1	2	1	0.44222	1	0.3	1	14	32	51	0
11-Apr-13	sub2307	2307	2	0	3	5	1	3	2	6	0	2	1	0.39189	0	0.9	0	13	44	39	0
11-Apr-13	sub2307	2307	2	0	4	5	1	2	1	1	1	2	1	0.49672	1	0.9	0	12	30	31	0
11-Apr-13	sub2307	2307	2	0	5	5	1	1	5	5	1	1	1	0.48716	1	0.9	0	11	30	31	0
11-Apr-13	sub2307	2307	2	0	6	5	1	1	5	5	1	1	1	0.38586	1	0.9	0	11	30	31	0
11-Apr-13	sub2307	2307	2	0	7	5	1	6	6	5	0	2	0	0.39123	1	0.9	0	16	37	48	0
11-Apr-13	sub2307	2307	2	0	8	5	1	6	6	5	0	1	1	0.41768	0	0.9	0	16	47	38	0
11-Apr-13	sub2307	2307	2	0	9	5	1	4	4	2	1	2	1	0.00386	1	0.9	0	14	32	33	0
11-Apr-13	sub2307	2307	2	0	10	5	1	3	2	6	1	2	0	0.45129	0	0.9	0	13	42	43	0
11-Apr-13	sub2307	2307	2	0	11	5	1	5	3	6	0	1	0	0.19584	1	0.9	0	15	37	48	0
11-Apr-13	sub2307	2307	2	0	12	5	1	5	3	6	0	2	1	0.49372	0	0.9	0	15	47	38	0
11-Apr-13	sub2307	2307	2	0	13	5	1	2	1	1	1	2	1	0.14828	1	0.9	0	12	30	31	0
11-Apr-13	sub2307	2307	2	0	14	5	1	6	6	5	1	2	1	0.01583	1	0.9	0	16	35	36	0
11-Apr-13	sub2307	2307	2	0	15	5	1	4	4	2	0	2	0	0.47418	1	0.9	0	14	34	49	0
11-Apr-13	sub2307	2307	2	0	16	5	1	4	4	2	1	2	1	0.49232	1	0.8	0	14	32	33	0
11-Apr-13	sub2307	2307	2	0	17	5	1	3	2	6	1	2	0	0.43406	0	0.8	0	13	42	43	0
11-Apr-13	sub2307	2307	2	0	18	5	1	3	2	6	1	1	1	0.46614	1	0.7	0	13	32	33	0
11-Apr-13	sub2307	2307	2	0	19	5	1	5	3	6	0	2	1	0.01213	0	0.7	0	15	47	38	0
11-Apr-13	sub2307	2307	2	0	20	5	1	3	2	6	1	2	0	0.41798	0	0.7	0	13	42	43	0
11-Apr-13	sub2307	2307	2	0	21	5	1	3	2	6	0	1	0	0.3894	1	0.6	0	13	34	49	0
11-Apr-13	sub2307	2307	2	0	22	5	1	4	4	2	0	2	0	0.01151	1	0.6	0	14	34	49	0
11-Apr-13	sub2307	2307	2	0	23	5	1	4	4	2	1	0	0	0	0	0.6	1	14	0	51	0
11-Apr-13	sub2307	2307	2	0	24	5	1	1	5	5	1	1	1	0.09819	1	0.9	0	11	30	31	0
11-Apr-13	sub2307	2307	2	0	25	5	1	5	3	6	1	2	0	0.45701	0	0.9	0	15	45	46	0
11-Apr-13	sub2307	2307	2	0	26	5	1	5	3	6	1	2	0	0.06013	0	0.9	0	15	45	46	0
11-Apr-13	sub2307	2307	2	0	27	5	1	5	3	6	0	2	1	0.43935	0	0.9	0	15	47	38	0
11-Apr-13	sub2307	2307	2	0	28	5	1	1	5	5	1	1	1	0.40102	1	0.9	0	11	30	31	0
11-Apr-13	sub2307	2307	2	0	29	5	1	6	6	5	0	1	1	0.35239	0	0.9	0	16	47	38	0
11-Apr-13	sub2307	2307	2	0	30	5	1	3	2	6	1	1	1	0.35143	1	0.8	0	13	32	33	0
11-Apr-13	sub2307	2307	2	0	31	5	1	3	2	6	1	1	1	0.41237	1	0.8	0	13	32	33	0
11-Apr-13	sub2307	2307	2	0	32	5	1	2	1	1	1	2	1	0.42731	1	0.8	0	12	30	31	0
11-Apr-13	sub2307	2307	2	0	33	5	1	2	1	1	1	2	1	0.46571	1	0.8	0	12	30	31	0
11-Apr-13	sub2307	2307	2	0	34	5	1	2	1	1	1	2	1	0.39941	1	0.8	0	12	30	31	0
11-Apr-13	sub2307	2307	2	0	35	5	1	5	3	6	0	2	1	0.02945	0	0.7	0	15	47	38	0
11-Apr-13	sub2307	2307	2	0	36	5	1	6	6	5	0	1	1	0.46427	0	0.7	0	16	47	38	0
11-Apr-13	sub2307	2307	2	0	37	5	1	5	3	6	1	2	0	0.47485	0	0.7	0	15	45	46	0
11-Apr-13	sub2307	2307	2	0	38	5	1	2	1	1	1	2	1	0.41662	1	0.7	0	12	30	31	0
11-Apr-13	sub2307	2307	2	0	39	5	1	5	3	6	1	2	0	0.41236	0	0.7	0	15	45	46	0
11-Apr-13	sub2307	2307	2	0	40	5	1	2	1	1	1	2	1	0.43701	1	0.7	0	12	30	31	0
11-Apr-13	sub2307	2307	2	0	41	5	1	1	5	5	1	1	1	0.4315	1	0.6	0	11	30	31	0
11-Apr-13	sub2307	2307	2	0	42	5	1	1	5	5	1	1	1	0.47953	1	0.6	0	11	30	31	0
11-Apr-13	sub2307	2307	2	0	43	5	1	6	6	5	1	1	0	0.42664	0	0.6	0	16	45	46	0
11-Apr-13	sub2307	2307	2	0	44	5	1	6	6	5	0	2	0	0.43001	1	0.6	0	16	37	48	0
11-Apr-13	sub2307	2307	2	0	45	5	1	5	3	6	1	2	0	0.43195	0	0.6	0	15	45	46	0
11-Apr-13	sub2307	2307	2	0	46	5	1	2	1	1	1	2	1	0.4562	1	0.6	0	12	30	31	0
11-Apr-13	sub2307	2307	2	0	47	5	1	1	5	5	1	1	1	0.06652	1	0.6	0	11	30	31	0
11-Apr-13	sub2307	2307	2	0	48	5	1	4	4	2	1	2	1	0.08305	1	0.6	0	14	32	33	0
11-Apr-13	sub2307	2307	2	0	49	5	1	6	6	5	1	1	0	0.00943	0	0.6	0	16	45	46	0
11-Apr-13	sub2307	2307	2	0	50	5	1	1	5	5	1	1	1	0.04078	1	0.6	0	11	30	31	0
11-Apr-13	sub2307	2307	2	0	51	5	1	3	2	6	1	1	1	0.04287	1	0.5	0	13	32	33	0
11-Apr-13	sub2307	2307	2	0	52	5	1	5	3	6	0	2	1	0.47543	0	0.5	0	15	47	38	0
11-Apr-13	sub2307	2307	2	0	53	5	1	4	4	2	1	2	1	0.49853	1	0.5	0	14	32	33	0
11-Apr-13	sub2307	2307	2	0	54	5	1	3	2	6	0	1	0	0.41541	1	0.5	0	13	34	49	0
11-Apr-13	sub2307	2307	2	0	55	5	1	6	6	5	0	1	1	0.49946	0	0.5	0	16	47	38	0
11-Apr-13	sub2307	2307	2	0	56	5	1	6	6	5	0	1	1	0.39203	0	0.5	0	16	47	38	0
11-Apr-13	sub2307	2307	2	0	57	5	1	6	6	5	1	1	0	0.04433	0	0.5	0	16	45	46	0
11-Apr-13	sub2307	2307	2	0	58	5	1	4	4	2	1	2	1	0.08301	1	0.5	0	14	32	33	0
11-Apr-13	sub2307	2307	2	0	59	5	1	4	4	2	1	2	1	0.0991	1	0.5	0	14	32	33	0
11-Apr-13	sub2307	2307	2	0	60	5	1	3	2	6	1	1	1	0.04701	1	0.5	0	13	32	33	0
11-Apr-13	sub2307	2307	2	0	61	5	1	1	5	5	1	1	1	0.42146	1	0.5	0	11	30	31	0
11-Apr-13	sub2307	2307	2	0	62	5	1	5	3	6	1	2	0	0.4774	0	0.5	0	15	45	46	0
11-Apr-13	sub2307	2307	2	0	63	5	1	3	2	6	1	1	1	0.41407	1	0.5	0	13	32	33	0
11-Apr-13	sub2307	2307	2	0	64	5	1	2	1	1	1	2	1	0.00828	1	0.5	0	12	30	31	0
11-Apr-13	sub2307	2307	2	0	65	5	1	2	1	1	1	2	1	0.43073	1	0.5	0	12	30	31	0
11-Apr-13	sub2307	2307	2	0	66	5	1	6	6	5	1	1	0	0.47052	0	0.5	0	16	45	46	0
11-Apr-13	sub2307	2307	2	0	67	5	1	4	4	2	1	2	1	0.4714	1	0.5	0	14	32	33	0
11-Apr-13	sub2307	2307	2	0	68	5	1	1	5	5	1	1	1	0.44133	1	0.4	1	11	30	51	0
11-Apr-13	sub2307	2307	2	0	69	5	1	2	1	1	1	2	1	0.48782	1	0.6	0	12	30	31	0
11-Apr-13	sub2307	2307	2	0	70	5	1	2	1	1	1	2	1	0.44842	1	0.6	0	12	30	31	0
11-Apr-13	sub2307	2307	2	0	71	5	1	3	2	6	1	2	0	0.42653	0	0.6	0	13	42	43	0
11-Apr-13	sub2307	2307	2	0	72	5	1	1	5	5	1	1	1	0.03614	1	0.6	0	11	30	31	0
11-Apr-13	sub2307	2307	2	0	73	5	1	6	6	5	1	1	0	0.42484	0	0.6	0	16	45	46	0
11-Apr-13	sub2307	2307	2	0	74	5	1	4	4	2	1	2	1	0.03803	1	0.6	0	14	32	33	0
11-Apr-13	sub2307	2307	2	0	75	5	1	1	5	5	1	1	1	0.02594	1	0.6	0	11	30	31	0
11-Apr-13	sub2307	2307	2	0	76	5	2	5	3	6	0	2	1	0.00013	0	0.5	0	25	87	68	0
11-Apr-13	sub2307	2307	2	0	77	5	2	4	4	2	0	1	1	0.04758	0	0.5	0	24	84	69	0
11-Apr-13	sub2307	2307	2	0	78	5	2	4	4	2	1	2	1	0.46226	1	0.5	0	24	62	63	0
11-Apr-13	sub2307	2307	2	0	79	5	2	3	2	6	1	2	0	0.45902	0	0.5	0	23	82	83	0
11-Apr-13	sub2307	2307	2	0	80	5	2	5	3	6	0	2	1	0.05095	0	0.5	0	25	87	68	0
11-Apr-13	sub2307	2307	2	0	81	5	2	3	2	6	0	1	0	0.04415	1	0.5	0	23	64	89	0
11-Apr-13	sub2307	2307	2	0	82	5	2	5	3	6	0	2	1	0.46387	0	0.5	0	25	87	68	0
11-Apr-13	sub2307	2307	2	0	83	5	2	5	3	6	0	2	1	0.49677	0	0.5	0	25	87	68	0
11-Apr-13	sub2307	2307	2	0	84	5	2	6	6	5	0	1	1	0.48155	0	0.5	0	26	87	68	0
11-Apr-13	sub2307	2307	2	0	85	5	2	6	6	5	1	2	1	0.00122	1	0.5	0	26	65	66	0
11-Apr-13	sub2307	2307	2	0	86	5	2	4	4	2	1	2	1	0.13204	1	0.5	0	24	62	63	0
11-Apr-13	sub2307	2307	2	0	87	5	2	4	4	2	1	2	1	0.4402	1	0.5	0	24	62	63	0
11-Apr-13	sub2307	2307	2	0	88	5	2	1	5	5	1	1	1	0.47802	1	0.5	0	21	60	61	0
11-Apr-13	sub2307	2307	2	0	89	5	2	3	2	6	1	1	1	0.46257	1	0.5	0	23	62	63	0
11-Apr-13	sub2307	2307	2	0	90	5	2	4	4	2	1	2	1	0.08011	1	0.5	0	24	62	63	0
11-Apr-13	sub2307	2307	2	0	91	5	2	5	3	6	0	2	1	0.42088	0	0.5	0	25	87	68	0
11-Apr-13	sub2307	2307	2	0	92	5	2	1	5	5	1	1	1	0.45536	1	0.5	0	21	60	61	0
11-Apr-13	sub2307	2307	2	0	93	5	2	2	1	1	1	2	1	0.04489	1	0.5	0	22	60	61	0
11-Apr-13	sub2307	2307	2	0	94	5	2	2	1	1	1	2	1	0.45718	1	0.5	0	22	60	61	0
11-Apr-13	sub2307	2307	2	0	95	5	2	6	6	5	1	1	0	0.49415	0	0.5	0	26	85	86	0
11-Apr-13	sub2307	2307	2	0	96	5	2	1	5	5	1	1	1	0.07724	1	0.5	0	21	60	61	0
11-Apr-13	sub2307	2307	2	0	97	5	2	2	1	1	1	2	1	0.48414	1	0.5	0	22	60	61	0
11-Apr-13	sub2307	2307	2	0	98	5	2	2	1	1	1	2	1	0.04251	1	0.5	0	22	60	61	0
11-Apr-13	sub2307	2307	2	0	99	5	2	4	4	2	1	2	1	0.05538	1	0.5	0	24	62	63	0
11-Apr-13	sub2307	2307	2	0	100	5	2	1	5	5	1	1	1	0.04675	1	0.5	0	21	60	61	0
11-Apr-13	sub2307	2307	2	0	101	5	2	5	3	6	0	2	1	0.01919	0	0.4	0	25	87	68	0
11-Apr-13	sub2307	2307	2	0	102	5	2	1	5	5	1	1	1	0.47021	1	0.4	1	21	60	51	0
11-Apr-13	sub2307	2307	2	0	103	5	2	1	5	5	1	1	1	0.45626	1	0.5	0	21	60	61	0
11-Apr-13	sub2307	2307	2	0	104	5	2	4	4	2	1	2	1	0.49604	1	0.5	0	24	62	63	0
11-Apr-13	sub2307	2307	2	0	105	5	2	3	2	6	1	1	1	0.02563	1	0.5	0	23	62	63	0
11-Apr-13	sub2307	2307	2	0	106	5	2	5	3	6	0	2	1	0.47476	0	0.5	0	25	87	68	0
11-Apr-13	sub2307	2307	2	0	107	5	2	2	1	1	1	2	1	0.4616	1	0.5	0	22	60	61	0
11-Apr-13	sub2307	2307	2	0	108	5	2	3	2	6	1	1	1	0.05048	1	0.5	0	23	62	63	0
11-Apr-13	sub2307	2307	2	0	109	5	2	2	1	1	1	2	1	0.05918	1	0.5	0	22	60	61	0
11-Apr-13	sub2307	2307	2	0	110	5	2	1	5	5	1	1	1	0.05205	1	0.5	0	21	60	61	0
11-Apr-13	sub2307	2307	2	0	111	5	2	6	6	5	0	1	1	0.00775	0	0.5	0	26	87	68	0
11-Apr-13	sub2307	2307	2	0	112	5	2	3	2	6	1	1	1	0.02462	1	0.5	0	23	62	63	0
11-Apr-13	sub2307	2307	2	0	113	5	2	1	5	5	1	1	1	0.05019	1	0.5	0	21	60	61	0
11-Apr-13	sub2307	2307	2	0	114	5	2	3	2	6	1	1	1	0.06962	1	0.5	0	23	62	63	0
11-Apr-13	sub2307	2307	2	0	115	5	2	4	4	2	1	2	1	0.49254	1	0.5	0	24	62	63	0
11-Apr-13	sub2307	2307	2	0	116	5	2	1	5	5	1	1	1	0.46984	1	0.5	0	21	60	61	0
11-Apr-13	sub2307	2307	2	0	117	5	2	6	6	5	0	2	0	0.42783	1	0.5	0	26	67	88	0
11-Apr-13	sub2307	2307	2	0	118	5	2	3	2	6	0	1	0	0.45494	1	0.5	0	23	64	89	0
11-Apr-13	sub2307	2307	2	0	119	5	2	5	3	6	0	2	1	0.04786	0	0.5	0	25	87	68	0
11-Apr-13	sub2307	2307	2	0	120	5	2	2	1	1	1	2	1	0.03846	1	0.5	0	22	60	61	0
11-Apr-13	sub2307	2307	2	0	121	5	2	3	2	6	1	1	1	0.06892	1	0.5	0	23	62	63	0
11-Apr-13	sub2307	2307	2	0	122	5	2	3	2	6	1	1	1	0.42036	1	0.5	0	23	62	63	0
11-Apr-13	sub2307	2307	2	0	123	5	2	1	5	5	1	0	0	0	0	0.5	1	21	0	51	0
11-Apr-13	sub2307	2307	2	0	124	5	2	5	3	6	0	2	1	0.02152	0	0.6	0	25	87	68	0
11-Apr-13	sub2307	2307	2	0	125	5	2	4	4	2	0	2	0	0.00162	1	0.6	0	24	64	89	0
11-Apr-13	sub2307	2307	2	0	126	5	2	5	3	6	0	1	0	0.44506	1	0.5	0	25	67	88	0
11-Apr-13	sub2307	2307	2	0	127	5	2	2	1	1	1	2	1	0.4913	1	0.5	0	22	60	61	0
11-Apr-13	sub2307	2307	2	0	128	5	2	4	4	2	0	2	0	0.02301	1	0.5	0	24	64	89	0
11-Apr-13	sub2307	2307	2	0	129	5	2	1	5	5	1	1	1	0.49717	1	0.5	0	21	60	61	0
11-Apr-13	sub2307	2307	2	0	130	5	2	6	6	5	1	2	1	0.05502	1	0.5	0	26	65	66	0
11-Apr-13	sub2307	2307	2	0	131	5	2	4	4	2	1	2	1	0.46089	1	0.5	0	24	62	63	0
11-Apr-13	sub2307	2307	2	0	132	5	2	5	3	6	0	2	1	0.46446	0	0.5	0	25	87	68	0
11-Apr-13	sub2307	2307	2	0	133	5	2	5	3	6	0	2	1	0.46673	0	0.5	0	25	87	68	0
11-Apr-13	sub2307	2307	2	0	134	5	2	2	1	1	1	2	1	0.48743	1	0.5	0	22	60	61	0
11-Apr-13	sub2307	2307	2	0	135	5	2	1	5	5	1	1	1	0.02335	1	0.5	0	21	60	61	0
11-Apr-13	sub2307	2307	2	0	136	5	2	5	3	6	0	2	1	0.06637	0	0.5	0	25	87	68	0
11-Apr-13	sub2307	2307	2	0	137	5	2	6	6	5	1	2	1	0.04731	1	0.5	0	26	65	66	0
11-Apr-13	sub2307	2307	2	0	138	5	2	1	5	5	1	1	1	0.05013	1	0.5	0	21	60	61	0
11-Apr-13	sub2307	2307	2	0	139	5	2	2	1	1	1	2	1	0.45021	1	0.5	0	22	60	61	0
11-Apr-13	sub2307	2307	2	0	140	5	2	6	6	5	0	2	0	0.00285	1	0.5	0	26	67	88	0
11-Apr-13	sub2307	2307	2	0	141	5	2	2	1	1	1	2	1	0.01221	1	0.5	0	22	60	61	0
11-Apr-13	sub2307	2307	2	0	142	5	2	2	1	1	1	2	1	0.47865	1	0.5	0	22	60	61	0
11-Apr-13	sub2307	2307	2	0	143	5	2	3	2	6	1	1	1	0.01067	1	0.5	0	23	62	63	0
11-Apr-13	sub2307	2307	2	0	144	5	2	6	6	5	0	2	0	0.49654	1	0.5	0	26	67	88	0
11-Apr-13	sub2307	2307	2	0	145	5	2	6	6	5	0	2	0	0.42666	1	0.5	0	26	67	88	0
11-Apr-13	sub2307	2307	2	0	146	5	2	3	2	6	1	1	1	0.49309	1	0.5	0	23	62	63	0
11-Apr-13	sub2307	2307	2	0	147	5	2	4	4	2	1	2	1	0.48403	1	0.5	0	24	62	63	0
11-Apr-13	sub2307	2307	2	0	148	5	2	6	6	5	1	1	0	0.43388	0	0.5	0	26	85	86	0
11-Apr-13	sub2307	2307	2	0	149	5	2	6	6	5	1	2	1	0.48125	1	0.5	0	26	65	66	0
11-Apr-13	sub2307	2307	2	0	150	5	2	4	4	2	1	1	0	0.06902	0	0.5	0	24	82	83	0
11-Apr-13	sub2307	2307	2	0	1	6	1	3	5	6	1	2	0	0.09674	0	0.6	0	13	42	43	0
11-Apr-13	sub2307	2307	2	0	2	6	1	2	6	6	1	1	0	0.09223	0	0.3	0	12	40	41	0
11-Apr-13	sub2307	2307	2	0	3	6	1	1	4	5	1	2	0	0.44397	0	0.3	1	11	40	51	0
11-Apr-13	sub2307	2307	2	0	4	6	1	2	6	6	1	2	1	0.46617	1	0.9	0	12	30	31	0
11-Apr-13	sub2307	2307	2	0	5	6	1	5	3	2	1	1	1	0.01148	1	0.9	0	15	35	36	0
11-Apr-13	sub2307	2307	2	0	6	6	1	4	2	2	1	2	1	0.43675	1	0.9	0	14	32	33	0
11-Apr-13	sub2307	2307	2	0	7	6	1	5	3	2	0	2	1	0.49613	0	0.9	0	15	47	38	0
11-Apr-13	sub2307	2307	2	0	8	6	1	1	4	5	1	2	0	0.00156	0	0.9	0	11	40	41	0
11-Apr-13	sub2307	2307	2	0	9	6	1	5	3	2	0	1	0	0.14523	1	0.9	0	15	37	48	0
11-Apr-13	sub2307	2307	2	0	10	6	1	5	3	2	0	2	1	0.12662	0	0.9	0	15	47	38	0
11-Apr-13	sub2307	2307	2	0	11	6	1	6	1	4	0	1	1	0.01528	0	0.9	0	16	47	38	0
11-Apr-13	sub2307	2307	2	0	12	6	1	5	3	2	0	2	1	0.03338	0	0.9	0	15	47	38	0
11-Apr-13	sub2307	2307	2	0	13	6	1	4	2	2	1	2	1	0.02223	1	0.9	0	14	32	33	0
11-Apr-13	sub2307	2307	2	0	14	6	1	6	1	4	1	1	0	0.29666	0	0.9	0	16	45	46	0
11-Apr-13	sub2307	2307	2	0	15	6	1	6	1	4	1	2	1	0.00801	1	0.9	0	16	35	36	0
11-Apr-13	sub2307	2307	2	0	16	6	1	4	2	2	0	2	0	0.1244	1	0.8	0	14	34	49	0
11-Apr-13	sub2307	2307	2	0	17	6	1	2	6	6	1	2	1	0.08036	1	0.8	0	12	30	31	0
11-Apr-13	sub2307	2307	2	0	18	6	1	2	6	6	1	2	1	0.39448	1	0.7	0	12	30	31	0
11-Apr-13	sub2307	2307	2	0	19	6	1	3	5	6	1	1	1	0.40271	1	0.7	0	13	32	33	0
11-Apr-13	sub2307	2307	2	0	20	6	1	6	1	4	1	2	1	0.02359	1	0.7	0	16	35	36	0
11-Apr-13	sub2307	2307	2	0	21	6	1	1	4	5	1	1	1	0.44289	1	0.6	0	11	30	31	0
11-Apr-13	sub2307	2307	2	0	22	6	1	1	4	5	1	1	1	0.41441	1	0.6	0	11	30	31	0
11-Apr-13	sub2307	2307	2	0	23	6	1	5	3	2	0	2	1	0.0118	0	0.6	0	15	47	38	0
11-Apr-13	sub2307	2307	2	0	24	6	1	3	5	6	1	1	1	0.40044	1	0.6	0	13	32	33	0
11-Apr-13	sub2307	2307	2	0	25	6	1	2	6	6	1	2	1	0.48188	1	0.6	0	12	30	31	0
11-Apr-13	sub2307	2307	2	0	26	6	1	4	2	2	1	2	1	0.02525	1	0.5	0	14	32	33	0
11-Apr-13	sub2307	2307	2	0	27	6	1	1	4	5	1	1	1	0.4389	1	0.5	0	11	30	31	0
11-Apr-13	sub2307	2307	2	0	28	6	1	2	6	6	1	1	0	0.00147	0	0.5	0	12	40	41	0
11-Apr-13	sub2307	2307	2	0	29	6	1	4	2	2	1	2	1	0.44151	1	0.5	0	14	32	33	0
11-Apr-13	sub2307	2307	2	0	30	6	1	4	2	2	1	2	1	0.45749	1	0.5	0	14	32	33	0
11-Apr-13	sub2307	2307	2	0	31	6	1	3	5	6	1	1	1	0.46044	1	0.5	0	13	32	33	0
11-Apr-13	sub2307	2307	2	0	32	6	1	2	6	6	1	2	1	0.45345	1	0.5	0	12	30	31	0
11-Apr-13	sub2307	2307	2	0	33	6	1	3	5	6	0	2	1	0.44227	0	0.5	0	13	44	39	0
11-Apr-13	sub2307	2307	2	0	34	6	1	2	6	6	1	2	1	0.03177	1	0.5	0	12	30	31	0
11-Apr-13	sub2307	2307	2	0	35	6	1	2	6	6	1	2	1	0.02698	1	0.4	0	12	30	31	0
11-Apr-13	sub2307	2307	2	0	36	6	1	2	6	6	1	2	1	0.43435	1	0.4	1	12	30	51	0
11-Apr-13	sub2307	2307	2	0	37	6	1	6	1	4	0	1	1	0.003	0	0.7	0	16	47	38	0
11-Apr-13	sub2307	2307	2	0	38	6	1	3	5	6	1	1	1	0.02325	1	0.7	0	13	32	33	0
11-Apr-13	sub2307	2307	2	0	39	6	1	5	3	2	0	2	1	0.47967	0	0.7	0	15	47	38	0
11-Apr-13	sub2307	2307	2	0	40	6	1	5	3	2	1	2	0	0.42674	0	0.7	0	15	45	46	0
11-Apr-13	sub2307	2307	2	0	41	6	1	3	5	6	0	1	0	0.45039	1	0.6	0	13	34	49	0
11-Apr-13	sub2307	2307	2	0	42	6	1	2	6	6	1	2	1	0.47934	1	0.6	0	12	30	31	0
11-Apr-13	sub2307	2307	2	0	43	6	1	3	5	6	1	1	1	0.13259	1	0.6	0	13	32	33	0
11-Apr-13	sub2307	2307	2	0	44	6	1	1	4	5	1	1	1	0.00531	1	0.6	0	11	30	31	0
11-Apr-13	sub2307	2307	2	0	45	6	1	4	2	2	1	2	1	0.45117	1	0.6	0	14	32	33	0
11-Apr-13	sub2307	2307	2	0	46	6	1	6	1	4	0	2	0	0.02369	1	0.6	0	16	37	48	0
11-Apr-13	sub2307	2307	2	0	47	6	1	4	2	2	0	2	0	0.01681	1	0.6	0	14	34	49	0
11-Apr-13	sub2307	2307	2	0	48	6	1	6	1	4	0	1	1	0.48968	0	0.6	0	16	47	38	0
11-Apr-13	sub2307	2307	2	0	49	6	1	6	1	4	1	2	1	0.49594	1	0.6	0	16	35	36	0
11-Apr-13	sub2307	2307	2	0	50	6	1	1	4	5	1	2	0	0.41312	0	0.6	0	11	40	41	0
11-Apr-13	sub2307	2307	2	0	51	6	1	5	3	2	1	2	0	0.44986	0	0.5	0	15	45	46	0
11-Apr-13	sub2307	2307	2	0	52	6	1	3	5	6	1	1	1	0.45618	1	0.5	0	13	32	33	0
11-Apr-13	sub2307	2307	2	0	53	6	1	1	4	5	1	1	1	0.02365	1	0.5	0	11	30	31	0
11-Apr-13	sub2307	2307	2	0	54	6	1	3	5	6	0	2	1	0.01521	0	0.5	0	13	44	39	0
11-Apr-13	sub2307	2307	2	0	55	6	1	5	3	2	1	2	0	0.01762	0	0.5	0	15	45	46	0
11-Apr-13	sub2307	2307	2	0	56	6	1	5	3	2	1	1	1	0.42261	1	0.5	0	15	35	36	0
11-Apr-13	sub2307	2307	2	0	57	6	1	6	1	4	1	2	1	0.02502	1	0.5	0	16	35	36	0
11-Apr-13	sub2307	2307	2	0	58	6	1	3	5	6	1	1	1	0.41904	1	0.5	0	13	32	33	0
11-Apr-13	sub2307	2307	2	0	59	6	1	6	1	4	1	1	0	0.42006	0	0.5	0	16	45	46	0
11-Apr-13	sub2307	2307	2	0	60	6	1	5	3	2	1	2	0	0.06653	0	0.5	0	15	45	46	0
11-Apr-13	sub2307	2307	2	0	61	6	1	4	2	2	1	2	1	0.4516	1	0.5	0	14	32	33	0
11-Apr-13	sub2307	2307	2	0	62	6	1	3	5	6	1	1	1	0.37011	1	0.5	0	13	32	33	0
11-Apr-13	sub2307	2307	2	0	63	6	1	1	4	5	1	1	1	0.44917	1	0.5	0	11	30	31	0
11-Apr-13	sub2307	2307	2	0	64	6	1	6	1	4	0	1	1	0.4785	0	0.5	0	16	47	38	0
11-Apr-13	sub2307	2307	2	0	65	6	1	4	2	2	1	1	0	0.40875	0	0.5	0	14	42	43	0
11-Apr-13	sub2307	2307	2	0	66	6	1	6	1	4	1	1	0	0.47504	0	0.5	0	16	45	46	0
11-Apr-13	sub2307	2307	2	0	67	6	1	4	2	2	1	2	1	0.47661	1	0.5	0	14	32	33	0
11-Apr-13	sub2307	2307	2	0	68	6	1	6	1	4	0	1	1	0.36032	0	0.4	0	16	47	38	0
11-Apr-13	sub2307	2307	2	0	69	6	1	2	6	6	1	2	1	0.04647	1	0.4	0	12	30	31	0
11-Apr-13	sub2307	2307	2	0	70	6	1	3	5	6	1	1	1	0.01816	1	0.4	0	13	32	33	0
11-Apr-13	sub2307	2307	2	0	71	6	1	4	2	2	1	2	1	0.09152	1	0.4	0	14	32	33	0
11-Apr-13	sub2307	2307	2	0	72	6	1	2	6	6	1	2	1	0.41283	1	0.4	1	12	30	51	0
11-Apr-13	sub2307	2307	2	0	73	6	1	1	4	5	1	1	1	0.43009	1	0.6	0	11	30	31	0
11-Apr-13	sub2307	2307	2	0	74	6	1	1	4	5	1	1	1	0.38794	1	0.6	0	11	30	31	0
11-Apr-13	sub2307	2307	2	0	75	6	1	1	4	5	1	1	1	0.39061	1	0.6	0	11	30	31	0
11-Apr-13	sub2307	2307	2	0	76	6	2	5	3	2	0	2	1	0.43771	0	0.5	0	25	87	68	0
11-Apr-13	sub2307	2307	2	0	77	6	2	6	1	4	1	2	1	0.3953	1	0.5	0	26	65	66	0
11-Apr-13	sub2307	2307	2	0	78	6	2	4	2	2	1	2	1	0.04176	1	0.5	0	24	62	63	0
11-Apr-13	sub2307	2307	2	0	79	6	2	2	6	6	1	2	1	0.46064	1	0.5	0	22	60	61	0
11-Apr-13	sub2307	2307	2	0	80	6	2	6	1	4	0	1	1	0.45692	0	0.5	0	26	87	68	0
11-Apr-13	sub2307	2307	2	0	81	6	2	4	2	2	1	2	1	0.00109	1	0.5	0	24	62	63	0
11-Apr-13	sub2307	2307	2	0	82	6	2	6	1	4	1	2	1	0.03812	1	0.5	0	26	65	66	0
11-Apr-13	sub2307	2307	2	0	83	6	2	1	4	5	1	1	1	0.02284	1	0.5	0	21	60	61	0
11-Apr-13	sub2307	2307	2	0	84	6	2	1	4	5	1	2	0	0.48977	0	0.5	0	21	80	81	0
11-Apr-13	sub2307	2307	2	0	85	6	2	3	5	6	1	1	1	0.47226	1	0.5	0	23	62	63	0
11-Apr-13	sub2307	2307	2	0	86	6	2	2	6	6	1	2	1	0.44263	1	0.5	0	22	60	61	0
11-Apr-13	sub2307	2307	2	0	87	6	2	6	1	4	0	2	0	0.38178	1	0.5	0	26	67	88	0
11-Apr-13	sub2307	2307	2	0	88	6	2	2	6	6	1	2	1	0.46569	1	0.5	0	22	60	61	0
11-Apr-13	sub2307	2307	2	0	89	6	2	6	1	4	0	2	0	0.46393	1	0.5	0	26	67	88	0
11-Apr-13	sub2307	2307	2	0	90	6	2	4	2	2	1	2	1	0.48288	1	0.5	0	24	62	63	0
11-Apr-13	sub2307	2307	2	0	91	6	2	5	3	2	0	2	1	0.01934	0	0.5	0	25	87	68	0
11-Apr-13	sub2307	2307	2	0	92	6	2	5	3	2	0	2	1	0.4724	0	0.5	0	25	87	68	0
11-Apr-13	sub2307	2307	2	0	93	6	2	5	3	2	0	1	0	0.39614	1	0.5	0	25	67	88	0
11-Apr-13	sub2307	2307	2	0	94	6	2	1	4	5	1	1	1	0.01011	1	0.5	0	21	60	61	0
11-Apr-13	sub2307	2307	2	0	95	6	2	5	3	2	0	2	1	0.49628	0	0.5	0	25	87	68	0
11-Apr-13	sub2307	2307	2	0	96	6	2	5	3	2	0	2	1	0.42777	0	0.5	0	25	87	68	0
11-Apr-13	sub2307	2307	2	0	97	6	2	2	6	6	1	2	1	0.00131	1	0.5	0	22	60	61	0
11-Apr-13	sub2307	2307	2	0	98	6	2	6	1	4	1	1	0	0.47872	0	0.5	0	26	85	86	0
11-Apr-13	sub2307	2307	2	0	99	6	2	2	6	6	1	2	1	0.45149	1	0.5	0	22	60	61	0
11-Apr-13	sub2307	2307	2	0	100	6	2	2	6	6	1	2	1	0.40274	1	0.5	0	22	60	61	0
11-Apr-13	sub2307	2307	2	0	101	6	2	1	4	5	1	1	1	0.47632	1	0.4	1	21	60	51	0
11-Apr-13	sub2307	2307	2	0	102	6	2	3	5	6	1	1	1	0.03236	1	0.5	0	23	62	63	0
11-Apr-13	sub2307	2307	2	0	103	6	2	2	6	6	1	2	1	0.45087	1	0.5	0	22	60	61	0
11-Apr-13	sub2307	2307	2	0	104	6	2	3	5	6	1	1	1	0.49893	1	0.5	0	23	62	63	0
11-Apr-13	sub2307	2307	2	0	105	6	2	6	1	4	1	1	0	0.44341	0	0.5	0	26	85	86	0
11-Apr-13	sub2307	2307	2	0	106	6	2	1	4	5	1	1	1	0.36424	1	0.5	0	21	60	61	0
11-Apr-13	sub2307	2307	2	0	107	6	2	4	2	2	1	2	1	0.46879	1	0.5	0	24	62	63	0
11-Apr-13	sub2307	2307	2	0	108	6	2	1	4	5	1	1	1	0.46527	1	0.5	0	21	60	61	0
11-Apr-13	sub2307	2307	2	0	109	6	2	4	2	2	1	2	1	0.44162	1	0.5	0	24	62	63	0
11-Apr-13	sub2307	2307	2	0	110	6	2	5	3	2	0	1	0	0.45078	1	0.5	0	25	67	88	0
11-Apr-13	sub2307	2307	2	0	111	6	2	3	5	6	1	1	1	0.4767	1	0.5	0	23	62	63	0
11-Apr-13	sub2307	2307	2	0	112	6	2	3	5	6	1	1	1	0.49464	1	0.5	0	23	62	63	0
11-Apr-13	sub2307	2307	2	0	113	6	2	5	3	2	0	1	0	0.17846	1	0.5	0	25	67	88	0
11-Apr-13	sub2307	2307	2	0	114	6	2	2	6	6	1	2	1	0.02344	1	0.5	0	22	60	61	0
11-Apr-13	sub2307	2307	2	0	115	6	2	4	2	2	1	2	1	0.02781	1	0.5	0	24	62	63	0
11-Apr-13	sub2307	2307	2	0	116	6	2	1	4	5	1	1	1	0.04191	1	0.5	0	21	60	61	0
11-Apr-13	sub2307	2307	2	0	117	6	2	1	4	5	1	1	1	0.47784	1	0.5	0	21	60	61	0
11-Apr-13	sub2307	2307	2	0	118	6	2	3	5	6	1	1	1	0.03256	1	0.5	0	23	62	63	0
11-Apr-13	sub2307	2307	2	0	119	6	2	6	1	4	0	1	1	0.11215	0	0.5	0	26	87	68	0
11-Apr-13	sub2307	2307	2	0	120	6	2	2	6	6	1	2	1	0.49887	1	0.5	0	22	60	61	0
11-Apr-13	sub2307	2307	2	0	121	6	2	2	6	6	1	2	1	0.4415	1	0.5	0	22	60	61	0
11-Apr-13	sub2307	2307	2	0	122	6	2	6	1	4	1	2	1	0.36195	1	0.5	0	26	65	66	0
11-Apr-13	sub2307	2307	2	0	123	6	2	1	4	5	1	1	1	0.38864	1	0.5	0	21	60	61	0
11-Apr-13	sub2307	2307	2	0	124	6	2	4	2	2	0	2	0	0.46146	1	0.5	0	24	64	89	0
11-Apr-13	sub2307	2307	2	0	125	6	2	4	2	2	0	2	0	0.03102	1	0.5	0	24	64	89	0
11-Apr-13	sub2307	2307	2	0	126	6	2	1	4	5	1	1	1	0.44038	1	0.5	0	21	60	61	0
11-Apr-13	sub2307	2307	2	0	127	6	2	5	3	2	0	2	1	0.37559	0	0.5	0	25	87	68	0
11-Apr-13	sub2307	2307	2	0	128	6	2	1	4	5	1	1	1	0.40165	1	0.5	0	21	60	61	0
11-Apr-13	sub2307	2307	2	0	129	6	2	1	4	5	1	1	1	0.46853	1	0.5	0	21	60	61	0
11-Apr-13	sub2307	2307	2	0	130	6	2	2	6	6	1	2	1	0.43032	1	0.5	0	22	60	61	0
11-Apr-13	sub2307	2307	2	0	131	6	2	3	5	6	0	1	0	0.07553	1	0.5	0	23	64	89	0
11-Apr-13	sub2307	2307	2	0	132	6	2	4	2	2	1	2	1	0.0058	1	0.5	0	24	62	63	0
11-Apr-13	sub2307	2307	2	0	133	6	2	4	2	2	0	2	0	0.46846	1	0.5	0	24	64	89	0
11-Apr-13	sub2307	2307	2	0	134	6	2	4	2	2	1	2	1	0.4231	1	0.5	0	24	62	63	0
11-Apr-13	sub2307	2307	2	0	135	6	2	6	1	4	0	1	1	0.43092	0	0.4	1	26	87	51	0
11-Apr-13	sub2307	2307	2	0	136	6	2	4	2	2	1	2	1	0.02545	1	0.5	0	24	62	63	0
11-Apr-13	sub2307	2307	2	0	137	6	2	3	5	6	1	1	1	0.07052	1	0.5	0	23	62	63	0
11-Apr-13	sub2307	2307	2	0	138	6	2	1	4	5	1	1	1	0.49003	1	0.5	0	21	60	61	0
11-Apr-13	sub2307	2307	2	0	139	6	2	3	5	6	1	1	1	0.46732	1	0.5	0	23	62	63	0
11-Apr-13	sub2307	2307	2	0	140	6	2	6	1	4	0	2	0	0.41643	1	0.5	0	26	67	88	0
11-Apr-13	sub2307	2307	2	0	141	6	2	3	5	6	1	2	0	0.43044	0	0.5	0	23	82	83	0
11-Apr-13	sub2307	2307	2	0	142	6	2	5	3	2	0	2	1	0.42968	0	0.5	0	25	87	68	0
11-Apr-13	sub2307	2307	2	0	143	6	2	3	5	6	0	1	0	0.38819	1	0.5	0	23	64	89	0
11-Apr-13	sub2307	2307	2	0	144	6	2	5	3	2	0	2	1	0.48868	0	0.5	0	25	87	68	0
11-Apr-13	sub2307	2307	2	0	145	6	2	4	2	2	1	2	1	0.0313	1	0.5	0	24	62	63	0
11-Apr-13	sub2307	2307	2	0	146	6	2	5	3	2	0	2	1	0.46326	0	0.5	0	25	87	68	0
11-Apr-13	sub2307	2307	2	0	147	6	2	2	6	6	1	2	1	0.48644	1	0.5	0	22	60	61	0
11-Apr-13	sub2307	2307	2	0	148	6	2	3	5	6	1	1	1	0.49669	1	0.5	0	23	62	63	0
11-Apr-13	sub2307	2307	2	0	149	6	2	5	3	2	0	2	1	0.03299	0	0.5	0	25	87	68	0
11-Apr-13	sub2307	2307	2	0	150	6	2	6	1	4	1	1	0	0.4952	0	0.5	0	26	85	86	0
