Date 	 Name 	 ID 	 Gender 	 Appearance 	 Trial 	 Block 	 Bin 	 Condition 	 Category 	 Number 	 Valid 	 Keypress 	 Correct 	 RT 	 Realcorrect 	 Deadline 	 Timeout 	 Stimtrigger 	 Resptrigger 	 Fedtrigger 	WithinTime
11-Apr-13	sub2308	2308	1	1	1	1	1	2	3	5	1	0	0	0	0	0.6	1	12	0	51	0
11-Apr-13	sub2308	2308	1	1	2	1	1	3	4	4	1	1	1	0.26337	1	0.9	0	13	32	33	0
11-Apr-13	sub2308	2308	1	1	3	1	1	4	6	5	1	1	0	0.48834	0	0.9	0	14	42	43	0
11-Apr-13	sub2308	2308	1	1	4	1	1	6	1	6	0	1	1	0.42096	0	0.9	0	16	47	38	0
11-Apr-13	sub2308	2308	1	1	5	1	1	6	1	6	0	1	1	0.3837	0	0.9	0	16	47	38	0
11-Apr-13	sub2308	2308	1	1	6	1	1	6	1	6	1	1	0	0.24482	0	0.9	0	16	45	46	0
11-Apr-13	sub2308	2308	1	1	7	1	1	1	5	5	1	1	1	0.44994	1	0.9	0	11	30	31	0
11-Apr-13	sub2308	2308	1	1	8	1	1	3	4	4	1	1	1	0.39988	1	0.9	0	13	32	33	0
11-Apr-13	sub2308	2308	1	1	9	1	1	6	1	6	1	1	0	0.45231	0	0.9	0	16	45	46	0
11-Apr-13	sub2308	2308	1	1	10	1	1	2	3	5	1	1	0	0.42532	0	0.9	0	12	40	41	0
11-Apr-13	sub2308	2308	1	1	11	1	1	1	5	5	1	2	0	0.06251	0	0.9	0	11	40	41	0
11-Apr-13	sub2308	2308	1	1	12	1	1	1	5	5	1	2	0	0.11077	0	0.9	0	11	40	41	0
11-Apr-13	sub2308	2308	1	1	13	1	1	2	3	5	1	1	0	0.47129	0	0.9	0	12	40	41	0
11-Apr-13	sub2308	2308	1	1	14	1	1	3	4	4	0	1	0	0.48655	1	0.9	0	13	34	49	0
11-Apr-13	sub2308	2308	1	1	15	1	1	1	5	5	1	1	1	0.29199	1	0.9	0	11	30	31	0
11-Apr-13	sub2308	2308	1	1	16	1	1	5	2	5	0	1	0	0.47731	1	0.8	0	15	37	48	0
11-Apr-13	sub2308	2308	1	1	17	1	1	4	6	5	1	1	0	0.09609	0	0.8	0	14	42	43	0
11-Apr-13	sub2308	2308	1	1	18	1	1	1	5	5	1	1	1	0.38993	1	0.7	0	11	30	31	0
11-Apr-13	sub2308	2308	1	1	19	1	1	5	2	5	1	1	1	0.0441	1	0.7	0	15	35	36	0
11-Apr-13	sub2308	2308	1	1	20	1	1	2	3	5	1	0	0	0	0	0.7	1	12	0	51	0
11-Apr-13	sub2308	2308	1	1	21	1	1	3	4	4	1	1	1	0.37827	1	0.9	0	13	32	33	0
11-Apr-13	sub2308	2308	1	1	22	1	1	2	3	5	1	1	0	0.38748	0	0.9	0	12	40	41	0
11-Apr-13	sub2308	2308	1	1	23	1	1	1	5	5	1	1	1	0.37145	1	0.9	0	11	30	31	0
11-Apr-13	sub2308	2308	1	1	24	1	1	5	2	5	1	1	1	0.34209	1	0.9	0	15	35	36	0
11-Apr-13	sub2308	2308	1	1	25	1	1	3	4	4	0	1	0	0.39988	1	0.9	0	13	34	49	0
11-Apr-13	sub2308	2308	1	1	26	1	1	4	6	5	0	1	1	0.45821	0	0.9	0	14	44	39	0
11-Apr-13	sub2308	2308	1	1	27	1	1	5	2	5	0	1	0	0.41581	1	0.9	0	15	37	48	0
11-Apr-13	sub2308	2308	1	1	28	1	1	6	1	6	0	1	1	0.07933	0	0.9	0	16	47	38	0
11-Apr-13	sub2308	2308	1	1	29	1	1	4	6	5	1	1	0	0.34338	0	0.9	0	14	42	43	0
11-Apr-13	sub2308	2308	1	1	30	1	1	4	6	5	1	1	0	0.47697	0	0.8	0	14	42	43	0
11-Apr-13	sub2308	2308	1	1	31	1	1	6	1	6	1	1	0	0.0684	0	0.8	0	16	45	46	0
11-Apr-13	sub2308	2308	1	1	32	1	1	5	2	5	1	1	1	0.45172	1	0.8	0	15	35	36	0
11-Apr-13	sub2308	2308	1	1	33	1	1	2	3	5	1	1	0	0.45357	0	0.8	0	12	40	41	0
11-Apr-13	sub2308	2308	1	1	34	1	1	3	4	4	0	1	0	0.26026	1	0.8	0	13	34	49	0
11-Apr-13	sub2308	2308	1	1	35	1	1	6	1	6	0	1	1	0.4013	0	0.7	0	16	47	38	0
11-Apr-13	sub2308	2308	1	1	36	1	1	2	3	5	1	2	1	0.38764	1	0.7	0	12	30	31	0
11-Apr-13	sub2308	2308	1	1	37	1	1	2	3	5	1	2	1	0.46599	1	0.7	0	12	30	31	0
11-Apr-13	sub2308	2308	1	1	38	1	1	5	2	5	0	1	0	0.02903	1	0.7	0	15	37	48	0
11-Apr-13	sub2308	2308	1	1	39	1	1	4	6	5	1	1	0	0.09186	0	0.7	0	14	42	43	0
11-Apr-13	sub2308	2308	1	1	40	1	1	1	5	5	1	2	0	0.08138	0	0.7	0	11	40	41	0
11-Apr-13	sub2308	2308	1	1	41	1	1	2	3	5	1	1	0	0.39777	0	0.6	0	12	40	41	0
11-Apr-13	sub2308	2308	1	1	42	1	1	1	5	5	1	0	0	0	0	0.6	1	11	0	51	0
11-Apr-13	sub2308	2308	1	1	43	1	1	5	2	5	0	1	0	0.30302	1	0.9	0	15	37	48	0
11-Apr-13	sub2308	2308	1	1	44	1	1	3	4	4	1	1	1	0.25776	1	0.8	0	13	32	33	0
11-Apr-13	sub2308	2308	1	1	45	1	1	4	6	5	1	1	0	0.31962	0	0.8	0	14	42	43	0
11-Apr-13	sub2308	2308	1	1	46	1	1	6	1	6	0	2	0	0.41456	1	0.8	0	16	37	48	0
11-Apr-13	sub2308	2308	1	1	47	1	1	4	6	5	0	1	1	0.06767	0	0.8	0	14	44	39	0
11-Apr-13	sub2308	2308	1	1	48	1	1	3	4	4	1	1	1	0.3351	1	0.8	0	13	32	33	0
11-Apr-13	sub2308	2308	1	1	49	1	1	4	6	5	1	1	0	0.35952	0	0.8	0	14	42	43	0
11-Apr-13	sub2308	2308	1	1	50	1	1	4	6	5	1	1	0	0.00018	0	0.8	0	14	42	43	0
11-Apr-13	sub2308	2308	1	1	51	1	1	6	1	6	1	1	0	0.29032	0	0.7	0	16	45	46	0
11-Apr-13	sub2308	2308	1	1	52	1	1	1	5	5	1	1	1	0.29073	1	0.7	0	11	30	31	0
11-Apr-13	sub2308	2308	1	1	53	1	1	4	6	5	1	1	0	0.31146	0	0.7	0	14	42	43	0
11-Apr-13	sub2308	2308	1	1	54	1	1	5	2	5	0	1	0	0.42611	1	0.7	0	15	37	48	0
11-Apr-13	sub2308	2308	1	1	55	1	1	3	4	4	1	2	0	0.39576	0	0.7	0	13	42	43	0
11-Apr-13	sub2308	2308	1	1	56	1	1	5	2	5	1	1	1	0.24286	1	0.7	0	15	35	36	0
11-Apr-13	sub2308	2308	1	1	57	1	1	3	4	4	1	1	1	0.45812	1	0.7	0	13	32	33	0
11-Apr-13	sub2308	2308	1	1	58	1	1	6	1	6	0	1	1	0.45757	0	0.7	0	16	47	38	0
11-Apr-13	sub2308	2308	1	1	59	1	1	1	5	5	1	1	1	0.01357	1	0.7	0	11	30	31	0
11-Apr-13	sub2308	2308	1	1	60	1	1	3	4	4	1	1	1	0.3293	1	0.7	0	13	32	33	0
11-Apr-13	sub2308	2308	1	1	61	1	1	2	3	5	1	1	0	0.32094	0	0.6	0	12	40	41	0
11-Apr-13	sub2308	2308	1	1	62	1	1	3	4	4	1	1	1	0.42826	1	0.6	0	13	32	33	0
11-Apr-13	sub2308	2308	1	1	63	1	1	1	5	5	1	1	1	0.43227	1	0.6	0	11	30	31	0
11-Apr-13	sub2308	2308	1	1	64	1	1	6	1	6	0	1	1	0.46495	0	0.6	0	16	47	38	0
11-Apr-13	sub2308	2308	1	1	65	1	1	2	3	5	1	1	0	0.10379	0	0.6	0	12	40	41	0
11-Apr-13	sub2308	2308	1	1	66	1	1	6	1	6	1	1	0	0.0065	0	0.6	0	16	45	46	0
11-Apr-13	sub2308	2308	1	1	67	1	1	5	2	5	1	1	1	0.39536	1	0.6	0	15	35	36	0
11-Apr-13	sub2308	2308	1	1	68	1	1	5	2	5	1	1	1	0.47783	1	0.6	0	15	35	36	0
11-Apr-13	sub2308	2308	1	1	69	1	1	2	3	5	1	1	0	0.45629	0	0.6	0	12	40	41	0
11-Apr-13	sub2308	2308	1	1	70	1	1	5	2	5	1	1	1	0.47312	1	0.6	0	15	35	36	0
11-Apr-13	sub2308	2308	1	1	71	1	1	2	3	5	1	1	0	0.48569	0	0.6	0	12	40	41	0
11-Apr-13	sub2308	2308	1	1	72	1	1	6	1	6	1	1	0	0.4022	0	0.6	0	16	45	46	0
11-Apr-13	sub2308	2308	1	1	73	1	1	1	5	5	1	1	1	0.45074	1	0.6	0	11	30	31	0
11-Apr-13	sub2308	2308	1	1	74	1	1	3	4	4	1	1	1	0.40616	1	0.6	0	13	32	33	0
11-Apr-13	sub2308	2308	1	1	75	1	1	4	6	5	1	1	0	0.49475	0	0.6	0	14	42	43	0
11-Apr-13	sub2308	2308	1	1	1	2	1	5	1	3	1	1	1	0.4513	1	0.6	0	15	35	36	0
11-Apr-13	sub2308	2308	1	1	2	2	1	3	5	3	1	1	1	0.08141	1	0.3	0	13	32	33	0
11-Apr-13	sub2308	2308	1	1	3	2	1	4	3	1	1	1	0	0.40332	0	0.3	1	14	42	51	0
11-Apr-13	sub2308	2308	1	1	4	2	1	6	6	3	0	1	1	0.43086	0	0.9	0	16	47	38	0
11-Apr-13	sub2308	2308	1	1	5	2	1	5	1	3	0	1	0	0.36976	1	0.9	0	15	37	48	0
11-Apr-13	sub2308	2308	1	1	6	2	1	3	5	3	0	1	0	0.46097	1	0.9	0	13	34	49	0
11-Apr-13	sub2308	2308	1	1	7	2	1	5	1	3	0	2	1	0.06053	0	0.9	0	15	47	38	0
11-Apr-13	sub2308	2308	1	1	8	2	1	6	6	3	1	2	1	0.01525	1	0.9	0	16	35	36	0
11-Apr-13	sub2308	2308	1	1	9	2	1	5	1	3	0	2	1	0.45319	0	0.9	0	15	47	38	0
11-Apr-13	sub2308	2308	1	1	10	2	1	4	3	1	1	1	0	0.47248	0	0.9	0	14	42	43	0
11-Apr-13	sub2308	2308	1	1	11	2	1	1	4	6	1	2	0	0.08717	0	0.9	0	11	40	41	0
11-Apr-13	sub2308	2308	1	1	12	2	1	2	2	1	1	1	0	0.34997	0	0.9	0	12	40	41	0
11-Apr-13	sub2308	2308	1	1	13	2	1	2	2	1	1	1	0	0.41678	0	0.9	0	12	40	41	0
11-Apr-13	sub2308	2308	1	1	14	2	1	6	6	3	0	1	1	0.43925	0	0.9	0	16	47	38	0
11-Apr-13	sub2308	2308	1	1	15	2	1	2	2	1	1	1	0	0.46194	0	0.9	0	12	40	41	0
11-Apr-13	sub2308	2308	1	1	16	2	1	2	2	1	1	1	0	0.04147	0	0.8	0	12	40	41	0
11-Apr-13	sub2308	2308	1	1	17	2	1	4	3	1	1	2	1	0.38194	1	0.8	0	14	32	33	0
11-Apr-13	sub2308	2308	1	1	18	2	1	2	2	1	1	2	1	0.45574	1	0.7	0	12	30	31	0
11-Apr-13	sub2308	2308	1	1	19	2	1	2	2	1	1	2	1	0.03655	1	0.7	0	12	30	31	0
11-Apr-13	sub2308	2308	1	1	20	2	1	3	5	3	1	2	0	0.43195	0	0.7	0	13	42	43	0
11-Apr-13	sub2308	2308	1	1	21	2	1	3	5	3	1	1	1	0.33858	1	0.6	0	13	32	33	0
11-Apr-13	sub2308	2308	1	1	22	2	1	3	5	3	1	2	0	0.37731	0	0.6	0	13	42	43	0
11-Apr-13	sub2308	2308	1	1	23	2	1	4	3	1	1	1	0	0.41033	0	0.6	0	14	42	43	0
11-Apr-13	sub2308	2308	1	1	24	2	1	1	4	6	1	2	0	0.4944	0	0.6	0	11	40	41	0
11-Apr-13	sub2308	2308	1	1	25	2	1	1	4	6	1	1	1	0.37821	1	0.6	0	11	30	31	0
11-Apr-13	sub2308	2308	1	1	26	2	1	6	6	3	1	1	0	0.41889	0	0.5	0	16	45	46	0
11-Apr-13	sub2308	2308	1	1	27	2	1	6	6	3	0	1	1	0.45026	0	0.5	0	16	47	38	0
11-Apr-13	sub2308	2308	1	1	28	2	1	5	1	3	0	1	0	0.03615	1	0.5	0	15	37	48	0
11-Apr-13	sub2308	2308	1	1	29	2	1	2	2	1	1	1	0	0.33848	0	0.5	0	12	40	41	0
11-Apr-13	sub2308	2308	1	1	30	2	1	2	2	1	1	1	0	0.48847	0	0.5	0	12	40	41	0
11-Apr-13	sub2308	2308	1	1	31	2	1	1	4	6	1	2	0	0.44038	0	0.5	0	11	40	41	0
11-Apr-13	sub2308	2308	1	1	32	2	1	5	1	3	1	1	1	0.40141	1	0.5	0	15	35	36	0
11-Apr-13	sub2308	2308	1	1	33	2	1	4	3	1	1	1	0	0.1189	0	0.5	0	14	42	43	0
11-Apr-13	sub2308	2308	1	1	34	2	1	1	4	6	1	1	1	0.23881	1	0.5	0	11	30	31	0
11-Apr-13	sub2308	2308	1	1	35	2	1	6	6	3	0	1	1	0.33641	0	0.4	0	16	47	38	0
11-Apr-13	sub2308	2308	1	1	36	2	1	5	1	3	0	1	0	0.44335	1	0.4	1	15	37	51	0
11-Apr-13	sub2308	2308	1	1	37	2	1	3	5	3	1	1	1	0.43987	1	0.7	0	13	32	33	0
11-Apr-13	sub2308	2308	1	1	38	2	1	4	3	1	0	1	1	0.20987	0	0.7	0	14	44	39	0
11-Apr-13	sub2308	2308	1	1	39	2	1	1	4	6	1	1	1	0.46034	1	0.7	0	11	30	31	0
11-Apr-13	sub2308	2308	1	1	40	2	1	2	2	1	1	1	0	0.2427	0	0.7	0	12	40	41	0
11-Apr-13	sub2308	2308	1	1	41	2	1	2	2	1	1	1	0	0.39143	0	0.6	0	12	40	41	0
11-Apr-13	sub2308	2308	1	1	42	2	1	6	6	3	1	1	0	0.01845	0	0.6	0	16	45	46	0
11-Apr-13	sub2308	2308	1	1	43	2	1	3	5	3	1	1	1	0.30769	1	0.6	0	13	32	33	0
11-Apr-13	sub2308	2308	1	1	44	2	1	6	6	3	0	1	1	0.38035	0	0.6	0	16	47	38	0
11-Apr-13	sub2308	2308	1	1	45	2	1	6	6	3	1	1	0	0.43911	0	0.6	0	16	45	46	0
11-Apr-13	sub2308	2308	1	1	46	2	1	4	3	1	0	2	0	0.03024	1	0.6	0	14	34	49	0
11-Apr-13	sub2308	2308	1	1	47	2	1	4	3	1	1	1	0	0.35422	0	0.6	0	14	42	43	0
11-Apr-13	sub2308	2308	1	1	48	2	1	5	1	3	1	1	1	0.43196	1	0.6	0	15	35	36	0
11-Apr-13	sub2308	2308	1	1	49	2	1	1	4	6	1	1	1	0.38146	1	0.6	0	11	30	31	0
11-Apr-13	sub2308	2308	1	1	50	2	1	2	2	1	1	2	1	0.02352	1	0.6	0	12	30	31	0
11-Apr-13	sub2308	2308	1	1	51	2	1	4	3	1	1	1	0	0.02486	0	0.5	0	14	42	43	0
11-Apr-13	sub2308	2308	1	1	52	2	1	6	6	3	0	2	0	0.48645	1	0.5	0	16	37	48	0
11-Apr-13	sub2308	2308	1	1	53	2	1	2	2	1	1	1	0	0.37329	0	0.5	0	12	40	41	0
11-Apr-13	sub2308	2308	1	1	54	2	1	3	5	3	1	2	0	0.4757	0	0.5	0	13	42	43	0
11-Apr-13	sub2308	2308	1	1	55	2	1	1	4	6	1	1	1	0.31851	1	0.5	0	11	30	31	0
11-Apr-13	sub2308	2308	1	1	56	2	1	5	1	3	1	1	1	0.3085	1	0.5	0	15	35	36	0
11-Apr-13	sub2308	2308	1	1	57	2	1	3	5	3	1	2	0	0.45982	0	0.5	0	13	42	43	0
11-Apr-13	sub2308	2308	1	1	58	2	1	1	4	6	1	1	1	0.32339	1	0.5	0	11	30	31	0
11-Apr-13	sub2308	2308	1	1	59	2	1	4	3	1	1	2	1	0.39837	1	0.5	0	14	32	33	0
11-Apr-13	sub2308	2308	1	1	60	2	1	6	6	3	0	1	1	0.41356	0	0.5	0	16	47	38	0
11-Apr-13	sub2308	2308	1	1	61	2	1	1	4	6	1	1	1	0.12808	1	0.5	0	11	30	31	0
11-Apr-13	sub2308	2308	1	1	62	2	1	3	5	3	0	1	0	0.41616	1	0.5	0	13	34	49	0
11-Apr-13	sub2308	2308	1	1	63	2	1	3	5	3	0	2	1	0.42413	0	0.5	0	13	44	39	0
11-Apr-13	sub2308	2308	1	1	64	2	1	5	1	3	1	1	1	0.0842	1	0.5	0	15	35	36	0
11-Apr-13	sub2308	2308	1	1	65	2	1	5	1	3	1	2	0	0.43123	0	0.5	0	15	45	46	0
11-Apr-13	sub2308	2308	1	1	66	2	1	5	1	3	1	1	1	0.41665	1	0.5	0	15	35	36	0
11-Apr-13	sub2308	2308	1	1	67	2	1	1	4	6	1	1	1	0.44496	1	0.5	0	11	30	31	0
11-Apr-13	sub2308	2308	1	1	68	2	1	4	3	1	1	2	1	0.05079	1	0.4	0	14	32	33	0
11-Apr-13	sub2308	2308	1	1	69	2	1	3	5	3	1	2	0	0.4837	0	0.4	1	13	42	51	0
11-Apr-13	sub2308	2308	1	1	70	2	1	4	3	1	1	1	0	0.02309	0	0.6	0	14	42	43	0
11-Apr-13	sub2308	2308	1	1	71	2	1	3	5	3	1	2	0	0.49904	0	0.6	0	13	42	43	0
11-Apr-13	sub2308	2308	1	1	72	2	1	2	2	1	1	1	0	0.42922	0	0.6	0	12	40	41	0
11-Apr-13	sub2308	2308	1	1	73	2	1	6	6	3	0	1	1	0.42114	0	0.6	0	16	47	38	0
11-Apr-13	sub2308	2308	1	1	74	2	1	1	4	6	1	1	1	0.44057	1	0.6	0	11	30	31	0
11-Apr-13	sub2308	2308	1	1	75	2	1	6	6	3	1	1	0	0.44412	0	0.6	0	16	45	46	0
11-Apr-13	sub2308	2308	1	1	76	2	2	6	6	3	0	2	0	0.01164	1	0.5	0	26	67	88	0
11-Apr-13	sub2308	2308	1	1	77	2	2	6	6	3	1	2	1	0.43087	1	0.5	0	26	65	66	0
11-Apr-13	sub2308	2308	1	1	78	2	2	4	3	1	1	2	1	0.41758	1	0.5	0	24	62	63	0
11-Apr-13	sub2308	2308	1	1	79	2	2	2	2	1	1	2	1	0.41831	1	0.5	0	22	60	61	0
11-Apr-13	sub2308	2308	1	1	80	2	2	1	4	6	1	1	1	0.45462	1	0.5	0	21	60	61	0
11-Apr-13	sub2308	2308	1	1	81	2	2	4	3	1	1	2	1	0.43865	1	0.5	0	24	62	63	0
11-Apr-13	sub2308	2308	1	1	82	2	2	6	6	3	0	1	1	0.42433	0	0.5	0	26	87	68	0
11-Apr-13	sub2308	2308	1	1	83	2	2	4	3	1	1	1	0	0.3188	0	0.5	0	24	82	83	0
11-Apr-13	sub2308	2308	1	1	84	2	2	2	2	1	1	2	1	0.43623	1	0.5	0	22	60	61	0
11-Apr-13	sub2308	2308	1	1	85	2	2	5	1	3	0	1	0	0.02657	1	0.5	0	25	67	88	0
11-Apr-13	sub2308	2308	1	1	86	2	2	3	5	3	1	2	0	0.42261	0	0.5	0	23	82	83	0
11-Apr-13	sub2308	2308	1	1	87	2	2	2	2	1	1	1	0	0.45374	0	0.5	0	22	80	81	0
11-Apr-13	sub2308	2308	1	1	88	2	2	5	1	3	0	2	1	0.38883	0	0.5	0	25	87	68	0
11-Apr-13	sub2308	2308	1	1	89	2	2	1	4	6	1	1	1	0.4313	1	0.5	0	21	60	61	0
11-Apr-13	sub2308	2308	1	1	90	2	2	2	2	1	1	2	1	0.4813	1	0.5	0	22	60	61	0
11-Apr-13	sub2308	2308	1	1	91	2	2	4	3	1	0	1	1	0.48676	0	0.5	0	24	84	69	0
11-Apr-13	sub2308	2308	1	1	92	2	2	5	1	3	0	2	1	0.44806	0	0.5	0	25	87	68	0
11-Apr-13	sub2308	2308	1	1	93	2	2	4	3	1	1	2	1	0.48537	1	0.5	0	24	62	63	0
11-Apr-13	sub2308	2308	1	1	94	2	2	5	1	3	0	2	1	0.45352	0	0.5	0	25	87	68	0
11-Apr-13	sub2308	2308	1	1	95	2	2	3	5	3	1	2	0	0.47135	0	0.5	0	23	82	83	0
11-Apr-13	sub2308	2308	1	1	96	2	2	1	4	6	1	1	1	0.42722	1	0.5	0	21	60	61	0
11-Apr-13	sub2308	2308	1	1	97	2	2	2	2	1	1	2	1	0.46276	1	0.5	0	22	60	61	0
11-Apr-13	sub2308	2308	1	1	98	2	2	5	1	3	0	1	0	0.07281	1	0.5	0	25	67	88	0
11-Apr-13	sub2308	2308	1	1	99	2	2	4	3	1	1	2	1	0.40206	1	0.5	0	24	62	63	0
11-Apr-13	sub2308	2308	1	1	100	2	2	1	4	6	1	2	0	0.14683	0	0.5	0	21	80	81	0
11-Apr-13	sub2308	2308	1	1	101	2	2	3	5	3	1	2	0	0.39276	0	0.4	0	23	82	83	0
11-Apr-13	sub2308	2308	1	1	102	2	2	1	4	6	1	2	0	0.06491	0	0.4	0	21	80	81	0
11-Apr-13	sub2308	2308	1	1	103	2	2	2	2	1	1	2	1	0.45856	1	0.4	1	22	60	51	0
11-Apr-13	sub2308	2308	1	1	104	2	2	1	4	6	1	2	0	0.41244	0	0.5	0	21	80	81	0
11-Apr-13	sub2308	2308	1	1	105	2	2	1	4	6	1	2	0	0.47169	0	0.5	0	21	80	81	0
11-Apr-13	sub2308	2308	1	1	106	2	2	5	1	3	0	1	0	0.30691	1	0.5	0	25	67	88	0
11-Apr-13	sub2308	2308	1	1	107	2	2	3	5	3	1	2	0	0.41645	0	0.5	0	23	82	83	0
11-Apr-13	sub2308	2308	1	1	108	2	2	3	5	3	1	2	0	0.45263	0	0.5	0	23	82	83	0
11-Apr-13	sub2308	2308	1	1	109	2	2	2	2	1	1	2	1	0.40762	1	0.5	0	22	60	61	0
11-Apr-13	sub2308	2308	1	1	110	2	2	5	1	3	0	2	1	0.43126	0	0.5	0	25	87	68	0
11-Apr-13	sub2308	2308	1	1	111	2	2	6	6	3	1	1	0	0.08468	0	0.5	0	26	85	86	0
11-Apr-13	sub2308	2308	1	1	112	2	2	2	2	1	1	2	1	0.27965	1	0.5	0	22	60	61	0
11-Apr-13	sub2308	2308	1	1	113	2	2	6	6	3	1	1	0	0.20462	0	0.5	0	26	85	86	0
11-Apr-13	sub2308	2308	1	1	114	2	2	6	6	3	0	2	0	0.40065	1	0.5	0	26	67	88	0
11-Apr-13	sub2308	2308	1	1	115	2	2	6	6	3	0	1	1	0.32801	0	0.5	0	26	87	68	0
11-Apr-13	sub2308	2308	1	1	116	2	2	4	3	1	1	2	1	0.00478	1	0.5	0	24	62	63	0
11-Apr-13	sub2308	2308	1	1	117	2	2	4	3	1	1	2	1	0.35997	1	0.5	0	24	62	63	0
11-Apr-13	sub2308	2308	1	1	118	2	2	3	5	3	1	1	1	0.40069	1	0.5	0	23	62	63	0
11-Apr-13	sub2308	2308	1	1	119	2	2	5	1	3	0	2	1	0.37285	0	0.5	0	25	87	68	0
11-Apr-13	sub2308	2308	1	1	120	2	2	3	5	3	1	2	0	0.37546	0	0.5	0	23	82	83	0
11-Apr-13	sub2308	2308	1	1	121	2	2	6	6	3	1	1	0	0.00153	0	0.5	0	26	85	86	0
11-Apr-13	sub2308	2308	1	1	122	2	2	2	2	1	1	2	1	0.03823	1	0.5	0	22	60	61	0
11-Apr-13	sub2308	2308	1	1	123	2	2	5	1	3	0	2	1	0.32279	0	0.5	0	25	87	68	0
11-Apr-13	sub2308	2308	1	1	124	2	2	4	3	1	1	2	1	0.3954	1	0.5	0	24	62	63	0
11-Apr-13	sub2308	2308	1	1	125	2	2	1	4	6	1	1	1	0.43307	1	0.5	0	21	60	61	0
11-Apr-13	sub2308	2308	1	1	126	2	2	4	3	1	0	2	0	0.41752	1	0.5	0	24	64	89	0
11-Apr-13	sub2308	2308	1	1	127	2	2	3	5	3	1	1	1	0.38999	1	0.5	0	23	62	63	0
11-Apr-13	sub2308	2308	1	1	128	2	2	1	4	6	1	2	0	0.48286	0	0.5	0	21	80	81	0
11-Apr-13	sub2308	2308	1	1	129	2	2	5	1	3	0	2	1	0.06644	0	0.5	0	25	87	68	0
11-Apr-13	sub2308	2308	1	1	130	2	2	1	4	6	1	1	1	0.43196	1	0.5	0	21	60	61	0
11-Apr-13	sub2308	2308	1	1	131	2	2	5	1	3	0	2	1	0.4726	0	0.5	0	25	87	68	0
11-Apr-13	sub2308	2308	1	1	132	2	2	4	3	1	1	2	1	0.43992	1	0.5	0	24	62	63	0
11-Apr-13	sub2308	2308	1	1	133	2	2	2	2	1	1	2	1	0.47758	1	0.5	0	22	60	61	0
11-Apr-13	sub2308	2308	1	1	134	2	2	3	5	3	1	2	0	0.46762	0	0.5	0	23	82	83	0
11-Apr-13	sub2308	2308	1	1	135	2	2	6	6	3	1	2	1	0.44956	1	0.4	1	26	65	51	0
11-Apr-13	sub2308	2308	1	1	136	2	2	3	5	3	0	2	1	0.46722	0	0.5	0	23	84	69	0
11-Apr-13	sub2308	2308	1	1	137	2	2	2	2	1	1	1	0	0.41962	0	0.5	0	22	80	81	0
11-Apr-13	sub2308	2308	1	1	138	2	2	1	4	6	1	1	1	0.48817	1	0.5	0	21	60	61	0
11-Apr-13	sub2308	2308	1	1	139	2	2	1	4	6	1	2	0	0.42612	0	0.5	0	21	80	81	0
11-Apr-13	sub2308	2308	1	1	140	2	2	3	5	3	0	2	1	0.44448	0	0.5	0	23	84	69	0
11-Apr-13	sub2308	2308	1	1	141	2	2	4	3	1	0	2	0	0.49194	1	0.5	0	24	64	89	0
11-Apr-13	sub2308	2308	1	1	142	2	2	4	3	1	1	2	1	0.39665	1	0.5	0	24	62	63	0
11-Apr-13	sub2308	2308	1	1	143	2	2	6	6	3	1	1	0	0.4204	0	0.5	0	26	85	86	0
11-Apr-13	sub2308	2308	1	1	144	2	2	6	6	3	0	2	0	0.45567	1	0.5	0	26	67	88	0
11-Apr-13	sub2308	2308	1	1	145	2	2	6	6	3	0	2	0	0.00797	1	0.5	0	26	67	88	0
11-Apr-13	sub2308	2308	1	1	146	2	2	5	1	3	0	2	1	0.15131	0	0.5	0	25	87	68	0
11-Apr-13	sub2308	2308	1	1	147	2	2	5	1	3	0	2	1	0.3779	0	0.5	0	25	87	68	0
11-Apr-13	sub2308	2308	1	1	148	2	2	1	4	6	1	1	1	0.00233	1	0.5	0	21	60	61	0
11-Apr-13	sub2308	2308	1	1	149	2	2	3	5	3	1	2	0	0.46742	0	0.5	0	23	82	83	0
11-Apr-13	sub2308	2308	1	1	150	2	2	2	2	1	1	2	1	0.02137	1	0.5	0	22	60	61	0
11-Apr-13	sub2308	2308	1	1	1	3	1	6	6	6	0	1	1	0.08721	0	0.6	0	16	47	38	0
11-Apr-13	sub2308	2308	1	1	2	3	1	2	2	6	1	1	0	0.46849	0	0.3	1	12	40	51	0
11-Apr-13	sub2308	2308	1	1	3	3	1	1	5	6	1	1	1	0.33653	1	0.9	0	11	30	31	0
11-Apr-13	sub2308	2308	1	1	4	3	1	5	1	4	1	1	1	0.42843	1	0.9	0	15	35	36	0
11-Apr-13	sub2308	2308	1	1	5	3	1	3	3	6	1	1	1	0.40098	1	0.9	0	13	32	33	0
11-Apr-13	sub2308	2308	1	1	6	3	1	3	3	6	1	1	1	0.34195	1	0.9	0	13	32	33	0
11-Apr-13	sub2308	2308	1	1	7	3	1	2	2	6	1	1	0	0.41743	0	0.9	0	12	40	41	0
11-Apr-13	sub2308	2308	1	1	8	3	1	6	6	6	1	1	0	0.39742	0	0.9	0	16	45	46	0
11-Apr-13	sub2308	2308	1	1	9	3	1	1	5	6	1	1	1	0.4069	1	0.9	0	11	30	31	0
11-Apr-13	sub2308	2308	1	1	10	3	1	4	4	2	1	1	0	0.40733	0	0.9	0	14	42	43	0
11-Apr-13	sub2308	2308	1	1	11	3	1	5	1	4	1	1	1	0.41077	1	0.9	0	15	35	36	0
11-Apr-13	sub2308	2308	1	1	12	3	1	1	5	6	1	1	1	0.05857	1	0.9	0	11	30	31	0
11-Apr-13	sub2308	2308	1	1	13	3	1	3	3	6	1	1	1	0.16358	1	0.9	0	13	32	33	0
11-Apr-13	sub2308	2308	1	1	14	3	1	5	1	4	1	1	1	0.41639	1	0.9	0	15	35	36	0
11-Apr-13	sub2308	2308	1	1	15	3	1	4	4	2	1	1	0	0.33278	0	0.9	0	14	42	43	0
11-Apr-13	sub2308	2308	1	1	16	3	1	4	4	2	1	2	1	0.48778	1	0.8	0	14	32	33	0
11-Apr-13	sub2308	2308	1	1	17	3	1	1	5	6	1	2	0	0.44862	0	0.8	0	11	40	41	0
11-Apr-13	sub2308	2308	1	1	18	3	1	6	6	6	1	1	0	0.39666	0	0.7	0	16	45	46	0
11-Apr-13	sub2308	2308	1	1	19	3	1	5	1	4	1	1	1	0.00025	1	0.7	0	15	35	36	0
11-Apr-13	sub2308	2308	1	1	20	3	1	6	6	6	0	2	0	0.41227	1	0.7	0	16	37	48	0
11-Apr-13	sub2308	2308	1	1	21	3	1	2	2	6	1	1	0	0.43323	0	0.6	0	12	40	41	0
11-Apr-13	sub2308	2308	1	1	22	3	1	1	5	6	1	1	1	0.14457	1	0.6	0	11	30	31	0
11-Apr-13	sub2308	2308	1	1	23	3	1	1	5	6	1	1	1	0.44985	1	0.6	0	11	30	31	0
11-Apr-13	sub2308	2308	1	1	24	3	1	1	5	6	1	1	1	0.42411	1	0.6	0	11	30	31	0
11-Apr-13	sub2308	2308	1	1	25	3	1	1	5	6	1	1	1	0.43478	1	0.6	0	11	30	31	0
11-Apr-13	sub2308	2308	1	1	26	3	1	2	2	6	1	2	1	0.03441	1	0.5	0	12	30	31	0
11-Apr-13	sub2308	2308	1	1	27	3	1	5	1	4	0	1	0	0.45437	1	0.5	0	15	37	48	0
11-Apr-13	sub2308	2308	1	1	28	3	1	6	6	6	1	2	1	0.4559	1	0.5	0	16	35	36	0
11-Apr-13	sub2308	2308	1	1	29	3	1	5	1	4	1	1	1	0.06839	1	0.5	0	15	35	36	0
11-Apr-13	sub2308	2308	1	1	30	3	1	3	3	6	1	1	1	0.43482	1	0.5	0	13	32	33	0
11-Apr-13	sub2308	2308	1	1	31	3	1	5	1	4	0	1	0	0.40143	1	0.5	0	15	37	48	0
11-Apr-13	sub2308	2308	1	1	32	3	1	2	2	6	1	1	0	0.36033	0	0.5	0	12	40	41	0
11-Apr-13	sub2308	2308	1	1	33	3	1	5	1	4	0	1	0	0.38871	1	0.5	0	15	37	48	0
11-Apr-13	sub2308	2308	1	1	34	3	1	6	6	6	0	2	0	0.44948	1	0.5	0	16	37	48	0
11-Apr-13	sub2308	2308	1	1	35	3	1	6	6	6	0	2	0	0.40746	1	0.4	1	16	37	51	0
11-Apr-13	sub2308	2308	1	1	36	3	1	3	3	6	1	1	1	0.43704	1	0.7	0	13	32	33	0
11-Apr-13	sub2308	2308	1	1	37	3	1	3	3	6	1	1	1	0.00539	1	0.7	0	13	32	33	0
11-Apr-13	sub2308	2308	1	1	38	3	1	4	4	2	0	2	0	0.41464	1	0.7	0	14	34	49	0
11-Apr-13	sub2308	2308	1	1	39	3	1	1	5	6	1	1	1	0.36647	1	0.7	0	11	30	31	0
11-Apr-13	sub2308	2308	1	1	40	3	1	1	5	6	1	2	0	0.41085	0	0.7	0	11	40	41	0
11-Apr-13	sub2308	2308	1	1	41	3	1	3	3	6	0	1	0	0.43453	1	0.6	0	13	34	49	0
11-Apr-13	sub2308	2308	1	1	42	3	1	2	2	6	1	1	0	0.44088	0	0.6	0	12	40	41	0
11-Apr-13	sub2308	2308	1	1	43	3	1	2	2	6	1	1	0	0.43748	0	0.6	0	12	40	41	0
11-Apr-13	sub2308	2308	1	1	44	3	1	2	2	6	1	2	1	0.45166	1	0.6	0	12	30	31	0
11-Apr-13	sub2308	2308	1	1	45	3	1	4	4	2	1	1	0	0.06248	0	0.6	0	14	42	43	0
11-Apr-13	sub2308	2308	1	1	46	3	1	6	6	6	0	1	1	0.03013	0	0.6	0	16	47	38	0
11-Apr-13	sub2308	2308	1	1	47	3	1	4	4	2	1	2	1	0.41618	1	0.6	0	14	32	33	0
11-Apr-13	sub2308	2308	1	1	48	3	1	3	3	6	1	1	1	0.06131	1	0.6	0	13	32	33	0
11-Apr-13	sub2308	2308	1	1	49	3	1	4	4	2	1	2	1	0.44655	1	0.6	0	14	32	33	0
11-Apr-13	sub2308	2308	1	1	50	3	1	3	3	6	0	1	0	0.41378	1	0.6	0	13	34	49	0
11-Apr-13	sub2308	2308	1	1	51	3	1	2	2	6	1	2	1	0.43775	1	0.5	0	12	30	31	0
11-Apr-13	sub2308	2308	1	1	52	3	1	6	6	6	0	2	0	0.02277	1	0.5	0	16	37	48	0
11-Apr-13	sub2308	2308	1	1	53	3	1	3	3	6	1	1	1	0.274	1	0.5	0	13	32	33	0
11-Apr-13	sub2308	2308	1	1	54	3	1	4	4	2	0	2	0	0.4225	1	0.5	0	14	34	49	0
11-Apr-13	sub2308	2308	1	1	55	3	1	4	4	2	1	2	1	0.47172	1	0.5	0	14	32	33	0
11-Apr-13	sub2308	2308	1	1	56	3	1	3	3	6	1	1	1	0.39518	1	0.5	0	13	32	33	0
11-Apr-13	sub2308	2308	1	1	57	3	1	6	6	6	0	2	0	0.02196	1	0.5	0	16	37	48	0
11-Apr-13	sub2308	2308	1	1	58	3	1	4	4	2	1	1	0	0.39676	0	0.5	0	14	42	43	0
11-Apr-13	sub2308	2308	1	1	59	3	1	3	3	6	0	2	1	0.42847	0	0.5	0	13	44	39	0
11-Apr-13	sub2308	2308	1	1	60	3	1	4	4	2	1	2	1	0.44326	1	0.5	0	14	32	33	0
11-Apr-13	sub2308	2308	1	1	61	3	1	5	1	4	0	1	0	0.01498	1	0.5	0	15	37	48	0
11-Apr-13	sub2308	2308	1	1	62	3	1	1	5	6	1	2	0	0.40511	0	0.5	0	11	40	41	0
11-Apr-13	sub2308	2308	1	1	63	3	1	2	2	6	1	2	1	0.44275	1	0.5	0	12	30	31	0
11-Apr-13	sub2308	2308	1	1	64	3	1	4	4	2	1	2	1	0.4452	1	0.5	0	14	32	33	0
11-Apr-13	sub2308	2308	1	1	65	3	1	1	5	6	1	1	1	0.16002	1	0.5	0	11	30	31	0
11-Apr-13	sub2308	2308	1	1	66	3	1	6	6	6	1	1	0	0.15855	0	0.5	0	16	45	46	0
11-Apr-13	sub2308	2308	1	1	67	3	1	5	1	4	1	2	0	0.43641	0	0.5	0	15	45	46	0
11-Apr-13	sub2308	2308	1	1	68	3	1	3	3	6	1	1	1	0.02332	1	0.4	0	13	32	33	0
11-Apr-13	sub2308	2308	1	1	69	3	1	6	6	6	1	1	0	0.19273	0	0.4	0	16	45	46	0
11-Apr-13	sub2308	2308	1	1	70	3	1	2	2	6	1	2	1	0.41603	1	0.4	1	12	30	51	0
11-Apr-13	sub2308	2308	1	1	71	3	1	2	2	6	1	2	1	0.42573	1	0.6	0	12	30	31	0
11-Apr-13	sub2308	2308	1	1	72	3	1	6	6	6	1	1	0	0.47672	0	0.6	0	16	45	46	0
11-Apr-13	sub2308	2308	1	1	73	3	1	5	1	4	0	1	0	0.49562	1	0.6	0	15	37	48	0
11-Apr-13	sub2308	2308	1	1	74	3	1	5	1	4	0	1	0	0.48619	1	0.6	0	15	37	48	0
11-Apr-13	sub2308	2308	1	1	75	3	1	2	2	6	1	2	1	0.06892	1	0.6	0	12	30	31	0
11-Apr-13	sub2308	2308	1	1	76	3	2	1	5	6	1	1	1	0.15732	1	0.5	0	21	60	61	0
11-Apr-13	sub2308	2308	1	1	77	3	2	5	1	4	0	1	0	0.45771	1	0.5	0	25	67	88	0
11-Apr-13	sub2308	2308	1	1	78	3	2	3	3	6	1	1	1	0.45858	1	0.5	0	23	62	63	0
11-Apr-13	sub2308	2308	1	1	79	3	2	3	3	6	1	1	1	0.46218	1	0.5	0	23	62	63	0
11-Apr-13	sub2308	2308	1	1	80	3	2	2	2	6	1	2	1	0.49735	1	0.5	0	22	60	61	0
11-Apr-13	sub2308	2308	1	1	81	3	2	6	6	6	1	1	0	0.48073	0	0.5	0	26	85	86	0
11-Apr-13	sub2308	2308	1	1	82	3	2	2	2	6	1	2	1	0.48699	1	0.5	0	22	60	61	0
11-Apr-13	sub2308	2308	1	1	83	3	2	4	4	2	1	2	1	0.00093	1	0.5	0	24	62	63	0
11-Apr-13	sub2308	2308	1	1	84	3	2	6	6	6	1	2	1	0.49328	1	0.5	0	26	65	66	0
11-Apr-13	sub2308	2308	1	1	85	3	2	5	1	4	0	1	0	0.05288	1	0.5	0	25	67	88	0
11-Apr-13	sub2308	2308	1	1	86	3	2	5	1	4	0	2	1	0.48248	0	0.5	0	25	87	68	0
11-Apr-13	sub2308	2308	1	1	87	3	2	1	5	6	1	2	0	0.49232	0	0.5	0	21	80	81	0
11-Apr-13	sub2308	2308	1	1	88	3	2	5	1	4	0	2	1	0.42068	0	0.5	0	25	87	68	0
11-Apr-13	sub2308	2308	1	1	89	3	2	5	1	4	0	1	0	0.14398	1	0.5	0	25	67	88	0
11-Apr-13	sub2308	2308	1	1	90	3	2	2	2	6	1	2	1	0.46297	1	0.5	0	22	60	61	0
11-Apr-13	sub2308	2308	1	1	91	3	2	5	1	4	0	2	1	0.0702	0	0.5	0	25	87	68	0
11-Apr-13	sub2308	2308	1	1	92	3	2	3	3	6	1	1	1	0.10503	1	0.5	0	23	62	63	0
11-Apr-13	sub2308	2308	1	1	93	3	2	1	5	6	1	2	0	0.23133	0	0.5	0	21	80	81	0
11-Apr-13	sub2308	2308	1	1	94	3	2	1	5	6	1	2	0	0.47325	0	0.5	0	21	80	81	0
11-Apr-13	sub2308	2308	1	1	95	3	2	6	6	6	1	2	1	0.12998	1	0.5	0	26	65	66	0
11-Apr-13	sub2308	2308	1	1	96	3	2	4	4	2	0	2	0	0.45029	1	0.5	0	24	64	89	0
11-Apr-13	sub2308	2308	1	1	97	3	2	2	2	6	1	1	0	0.19591	0	0.5	0	22	80	81	0
11-Apr-13	sub2308	2308	1	1	98	3	2	5	1	4	0	2	1	0.28604	0	0.5	0	25	87	68	0
11-Apr-13	sub2308	2308	1	1	99	3	2	2	2	6	1	2	1	0.04101	1	0.5	0	22	60	61	0
11-Apr-13	sub2308	2308	1	1	100	3	2	5	1	4	0	2	1	0.11212	0	0.5	0	25	87	68	0
11-Apr-13	sub2308	2308	1	1	101	3	2	6	6	6	0	1	1	0.07336	0	0.4	0	26	87	68	0
11-Apr-13	sub2308	2308	1	1	102	3	2	6	6	6	0	1	1	0.0438	0	0.4	0	26	87	68	0
11-Apr-13	sub2308	2308	1	1	103	3	2	5	1	4	0	2	1	0.02057	0	0.4	0	25	87	68	0
11-Apr-13	sub2308	2308	1	1	104	3	2	4	4	2	0	2	0	0.49982	1	0.4	1	24	64	51	0
11-Apr-13	sub2308	2308	1	1	105	3	2	5	1	4	0	2	1	0.45946	0	0.5	0	25	87	68	0
11-Apr-13	sub2308	2308	1	1	106	3	2	3	3	6	0	1	0	0.04562	1	0.5	0	23	64	89	0
11-Apr-13	sub2308	2308	1	1	107	3	2	3	3	6	0	2	1	0.05086	0	0.5	0	23	84	69	0
11-Apr-13	sub2308	2308	1	1	108	3	2	1	5	6	1	2	0	0.13772	0	0.5	0	21	80	81	0
11-Apr-13	sub2308	2308	1	1	109	3	2	4	4	2	1	2	1	0.46278	1	0.5	0	24	62	63	0
11-Apr-13	sub2308	2308	1	1	110	3	2	3	3	6	1	2	0	0.41343	0	0.5	0	23	82	83	0
11-Apr-13	sub2308	2308	1	1	111	3	2	4	4	2	1	2	1	0.00207	1	0.5	0	24	62	63	0
11-Apr-13	sub2308	2308	1	1	112	3	2	4	4	2	1	2	1	0.45864	1	0.5	0	24	62	63	0
11-Apr-13	sub2308	2308	1	1	113	3	2	6	6	6	1	1	0	0.48921	0	0.5	0	26	85	86	0
11-Apr-13	sub2308	2308	1	1	114	3	2	1	5	6	1	2	0	0.48697	0	0.5	0	21	80	81	0
11-Apr-13	sub2308	2308	1	1	115	3	2	2	2	6	1	2	1	0.39596	1	0.5	0	22	60	61	0
11-Apr-13	sub2308	2308	1	1	116	3	2	5	1	4	0	1	0	0.47218	1	0.5	0	25	67	88	0
11-Apr-13	sub2308	2308	1	1	117	3	2	5	1	4	0	2	1	0.49133	0	0.5	0	25	87	68	0
11-Apr-13	sub2308	2308	1	1	118	3	2	2	2	6	1	2	1	0.47435	1	0.5	0	22	60	61	0
11-Apr-13	sub2308	2308	1	1	119	3	2	2	2	6	1	2	1	0.46631	1	0.5	0	22	60	61	0
11-Apr-13	sub2308	2308	1	1	120	3	2	1	5	6	1	2	0	0.00021	0	0.5	0	21	80	81	0
11-Apr-13	sub2308	2308	1	1	121	3	2	2	2	6	1	2	1	0.01304	1	0.5	0	22	60	61	0
11-Apr-13	sub2308	2308	1	1	122	3	2	1	5	6	1	1	1	0.37469	1	0.5	0	21	60	61	0
11-Apr-13	sub2308	2308	1	1	123	3	2	4	4	2	1	2	1	0.01116	1	0.5	0	24	62	63	0
11-Apr-13	sub2308	2308	1	1	124	3	2	1	5	6	1	1	1	0.11588	1	0.5	0	21	60	61	0
11-Apr-13	sub2308	2308	1	1	125	3	2	2	2	6	1	2	1	0.00343	1	0.5	0	22	60	61	0
11-Apr-13	sub2308	2308	1	1	126	3	2	4	4	2	1	2	1	0.02489	1	0.5	0	24	62	63	0
11-Apr-13	sub2308	2308	1	1	127	3	2	6	6	6	0	1	1	0.45277	0	0.5	0	26	87	68	0
11-Apr-13	sub2308	2308	1	1	128	3	2	4	4	2	1	2	1	0.42759	1	0.5	0	24	62	63	0
11-Apr-13	sub2308	2308	1	1	129	3	2	3	3	6	1	1	1	0.49128	1	0.5	0	23	62	63	0
11-Apr-13	sub2308	2308	1	1	130	3	2	2	2	6	1	2	1	0.48603	1	0.5	0	22	60	61	0
11-Apr-13	sub2308	2308	1	1	131	3	2	3	3	6	1	2	0	0.00694	0	0.5	0	23	82	83	0
11-Apr-13	sub2308	2308	1	1	132	3	2	6	6	6	0	1	1	0.11382	0	0.5	0	26	87	68	0
11-Apr-13	sub2308	2308	1	1	133	3	2	6	6	6	1	1	0	0.0152	0	0.5	0	26	85	86	0
11-Apr-13	sub2308	2308	1	1	134	3	2	4	4	2	1	2	1	0.46423	1	0.5	0	24	62	63	0
11-Apr-13	sub2308	2308	1	1	135	3	2	3	3	6	1	1	1	0.08318	1	0.4	0	23	62	63	0
11-Apr-13	sub2308	2308	1	1	136	3	2	3	3	6	1	1	1	0.49033	1	0.4	1	23	62	51	0
11-Apr-13	sub2308	2308	1	1	137	3	2	4	4	2	1	1	0	0.47799	0	0.5	0	24	82	83	0
11-Apr-13	sub2308	2308	1	1	138	3	2	2	2	6	1	2	1	0.0241	1	0.5	0	22	60	61	0
11-Apr-13	sub2308	2308	1	1	139	3	2	1	5	6	1	1	1	0.18964	1	0.5	0	21	60	61	0
11-Apr-13	sub2308	2308	1	1	140	3	2	4	4	2	1	2	1	0.4508	1	0.5	0	24	62	63	0
11-Apr-13	sub2308	2308	1	1	141	3	2	1	5	6	1	1	1	0.19569	1	0.5	0	21	60	61	0
11-Apr-13	sub2308	2308	1	1	142	3	2	6	6	6	0	2	0	0.11294	1	0.5	0	26	67	88	0
11-Apr-13	sub2308	2308	1	1	143	3	2	3	3	6	1	1	1	0.01261	1	0.5	0	23	62	63	0
11-Apr-13	sub2308	2308	1	1	144	3	2	4	4	2	0	2	0	0.49766	1	0.5	0	24	64	89	0
11-Apr-13	sub2308	2308	1	1	145	3	2	6	6	6	1	1	0	0.48118	0	0.5	0	26	85	86	0
11-Apr-13	sub2308	2308	1	1	146	3	2	3	3	6	1	2	0	0.00889	0	0.5	0	23	82	83	0
11-Apr-13	sub2308	2308	1	1	147	3	2	1	5	6	1	2	0	0.03788	0	0.5	0	21	80	81	0
11-Apr-13	sub2308	2308	1	1	148	3	2	5	1	4	0	2	1	0.44505	0	0.5	0	25	87	68	0
11-Apr-13	sub2308	2308	1	1	149	3	2	1	5	6	1	2	0	0.08701	0	0.5	0	21	80	81	0
11-Apr-13	sub2308	2308	1	1	150	3	2	6	6	6	0	2	0	0.077	1	0.5	0	26	67	88	0
11-Apr-13	sub2308	2308	1	1	1	4	1	6	1	5	1	1	0	0.37436	0	0.6	0	16	45	46	0
11-Apr-13	sub2308	2308	1	1	2	4	1	1	5	1	1	0	0	0	0	0.3	1	11	0	51	0
11-Apr-13	sub2308	2308	1	1	3	4	1	5	4	5	1	1	1	0.4499	1	0.9	0	15	35	36	0
11-Apr-13	sub2308	2308	1	1	4	4	1	1	5	1	1	1	1	0.422	1	0.9	0	11	30	31	0
11-Apr-13	sub2308	2308	1	1	5	4	1	6	1	5	0	2	0	0.45507	1	0.9	0	16	37	48	0
11-Apr-13	sub2308	2308	1	1	6	4	1	3	2	3	1	1	1	0.40989	1	0.9	0	13	32	33	0
11-Apr-13	sub2308	2308	1	1	7	4	1	4	3	3	1	1	0	0.00843	0	0.9	0	14	42	43	0
11-Apr-13	sub2308	2308	1	1	8	4	1	5	4	5	0	1	0	0.49523	1	0.9	0	15	37	48	0
11-Apr-13	sub2308	2308	1	1	9	4	1	4	3	3	1	1	0	0.46095	0	0.9	0	14	42	43	0
11-Apr-13	sub2308	2308	1	1	10	4	1	1	5	1	1	2	0	0.08735	0	0.9	0	11	40	41	0
11-Apr-13	sub2308	2308	1	1	11	4	1	4	3	3	0	1	1	0.4295	0	0.9	0	14	44	39	0
11-Apr-13	sub2308	2308	1	1	12	4	1	6	1	5	0	2	0	0.05744	1	0.9	0	16	37	48	0
11-Apr-13	sub2308	2308	1	1	13	4	1	4	3	3	1	1	0	0.01008	0	0.9	0	14	42	43	0
11-Apr-13	sub2308	2308	1	1	14	4	1	2	6	1	1	1	0	0.18741	0	0.9	0	12	40	41	0
11-Apr-13	sub2308	2308	1	1	15	4	1	3	2	3	1	1	1	0.38041	1	0.9	0	13	32	33	0
11-Apr-13	sub2308	2308	1	1	16	4	1	6	1	5	0	1	1	0.03799	0	0.8	0	16	47	38	0
11-Apr-13	sub2308	2308	1	1	17	4	1	3	2	3	1	1	1	0.47355	1	0.8	0	13	32	33	0
11-Apr-13	sub2308	2308	1	1	18	4	1	4	3	3	1	1	0	0.06976	0	0.7	0	14	42	43	0
11-Apr-13	sub2308	2308	1	1	19	4	1	5	4	5	1	2	0	0.47052	0	0.7	0	15	45	46	0
11-Apr-13	sub2308	2308	1	1	20	4	1	3	2	3	1	2	0	0.26615	0	0.7	0	13	42	43	0
11-Apr-13	sub2308	2308	1	1	21	4	1	2	6	1	1	2	1	0.22967	1	0.6	0	12	30	31	0
11-Apr-13	sub2308	2308	1	1	22	4	1	5	4	5	1	1	1	0.00803	1	0.6	0	15	35	36	0
11-Apr-13	sub2308	2308	1	1	23	4	1	6	1	5	1	1	0	0.45482	0	0.6	0	16	45	46	0
11-Apr-13	sub2308	2308	1	1	24	4	1	3	2	3	0	1	0	0.36018	1	0.6	0	13	34	49	0
11-Apr-13	sub2308	2308	1	1	25	4	1	1	5	1	1	2	0	0.131	0	0.6	0	11	40	41	0
11-Apr-13	sub2308	2308	1	1	26	4	1	6	1	5	0	2	0	0.4895	1	0.5	0	16	37	48	0
11-Apr-13	sub2308	2308	1	1	27	4	1	3	2	3	1	2	0	0.0017	0	0.5	0	13	42	43	0
11-Apr-13	sub2308	2308	1	1	28	4	1	3	2	3	1	1	1	0.4188	1	0.5	0	13	32	33	0
11-Apr-13	sub2308	2308	1	1	29	4	1	2	6	1	1	2	1	0.09456	1	0.5	0	12	30	31	0
11-Apr-13	sub2308	2308	1	1	30	4	1	3	2	3	1	1	1	0.05134	1	0.5	0	13	32	33	0
11-Apr-13	sub2308	2308	1	1	31	4	1	2	6	1	1	1	0	0.3848	0	0.5	0	12	40	41	0
11-Apr-13	sub2308	2308	1	1	32	4	1	3	2	3	0	1	0	0.3911	1	0.5	0	13	34	49	0
11-Apr-13	sub2308	2308	1	1	33	4	1	5	4	5	1	1	1	0.47626	1	0.5	0	15	35	36	0
11-Apr-13	sub2308	2308	1	1	34	4	1	1	5	1	1	1	1	0.00598	1	0.5	0	11	30	31	0
11-Apr-13	sub2308	2308	1	1	35	4	1	4	3	3	1	1	0	0.49634	0	0.4	1	14	42	51	0
11-Apr-13	sub2308	2308	1	1	36	4	1	5	4	5	0	1	0	0.4626	1	0.7	0	15	37	48	0
11-Apr-13	sub2308	2308	1	1	37	4	1	3	2	3	1	2	0	0.40913	0	0.7	0	13	42	43	0
11-Apr-13	sub2308	2308	1	1	38	4	1	1	5	1	1	1	1	0.41427	1	0.7	0	11	30	31	0
11-Apr-13	sub2308	2308	1	1	39	4	1	2	6	1	1	2	1	0.49035	1	0.7	0	12	30	31	0
11-Apr-13	sub2308	2308	1	1	40	4	1	2	6	1	1	2	1	0.44929	1	0.7	0	12	30	31	0
11-Apr-13	sub2308	2308	1	1	41	4	1	2	6	1	1	2	1	0.4769	1	0.6	0	12	30	31	0
11-Apr-13	sub2308	2308	1	1	42	4	1	5	4	5	0	2	1	0.2326	0	0.6	0	15	47	38	0
11-Apr-13	sub2308	2308	1	1	43	4	1	6	1	5	0	2	0	0.21486	1	0.6	0	16	37	48	0
11-Apr-13	sub2308	2308	1	1	44	4	1	5	4	5	0	2	1	0.05108	0	0.6	0	15	47	38	0
11-Apr-13	sub2308	2308	1	1	45	4	1	3	2	3	1	1	1	0.43583	1	0.6	0	13	32	33	0
11-Apr-13	sub2308	2308	1	1	46	4	1	2	6	1	1	2	1	0.11866	1	0.6	0	12	30	31	0
11-Apr-13	sub2308	2308	1	1	47	4	1	2	6	1	1	2	1	0.01733	1	0.6	0	12	30	31	0
11-Apr-13	sub2308	2308	1	1	48	4	1	5	4	5	1	2	0	0.45382	0	0.6	0	15	45	46	0
11-Apr-13	sub2308	2308	1	1	49	4	1	5	4	5	1	2	0	0.44516	0	0.6	0	15	45	46	0
11-Apr-13	sub2308	2308	1	1	50	4	1	5	4	5	0	1	0	0.00949	1	0.6	0	15	37	48	0
11-Apr-13	sub2308	2308	1	1	51	4	1	3	2	3	0	2	1	0.13037	0	0.5	0	13	44	39	0
11-Apr-13	sub2308	2308	1	1	52	4	1	1	5	1	1	1	1	0.45443	1	0.5	0	11	30	31	0
11-Apr-13	sub2308	2308	1	1	53	4	1	6	1	5	0	2	0	0.47517	1	0.5	0	16	37	48	0
11-Apr-13	sub2308	2308	1	1	54	4	1	4	3	3	1	1	0	0.01837	0	0.5	0	14	42	43	0
11-Apr-13	sub2308	2308	1	1	55	4	1	6	1	5	1	2	1	0.43304	1	0.5	0	16	35	36	0
11-Apr-13	sub2308	2308	1	1	56	4	1	1	5	1	1	2	0	0.16675	0	0.5	0	11	40	41	0
11-Apr-13	sub2308	2308	1	1	57	4	1	6	1	5	1	2	1	0.16113	1	0.5	0	16	35	36	0
11-Apr-13	sub2308	2308	1	1	58	4	1	6	1	5	0	2	0	0.0079	1	0.5	0	16	37	48	0
11-Apr-13	sub2308	2308	1	1	59	4	1	4	3	3	1	2	1	0.20415	1	0.5	0	14	32	33	0
11-Apr-13	sub2308	2308	1	1	60	4	1	4	3	3	1	2	1	0.04932	1	0.5	0	14	32	33	0
11-Apr-13	sub2308	2308	1	1	61	4	1	1	5	1	1	1	1	0.05935	1	0.5	0	11	30	31	0
11-Apr-13	sub2308	2308	1	1	62	4	1	2	6	1	1	2	1	0.06484	1	0.5	0	12	30	31	0
11-Apr-13	sub2308	2308	1	1	63	4	1	2	6	1	1	1	0	0.08822	0	0.5	0	12	40	41	0
11-Apr-13	sub2308	2308	1	1	64	4	1	1	5	1	1	2	0	0.0214	0	0.5	0	11	40	41	0
11-Apr-13	sub2308	2308	1	1	65	4	1	1	5	1	1	1	1	0.44506	1	0.5	0	11	30	31	0
11-Apr-13	sub2308	2308	1	1	66	4	1	3	2	3	1	2	0	0.02823	0	0.5	0	13	42	43	0
11-Apr-13	sub2308	2308	1	1	67	4	1	2	6	1	1	1	0	0.45676	0	0.5	0	12	40	41	0
11-Apr-13	sub2308	2308	1	1	68	4	1	6	1	5	1	1	0	0.40769	0	0.4	1	16	45	51	0
11-Apr-13	sub2308	2308	1	1	69	4	1	4	3	3	1	1	0	0.46813	0	0.6	0	14	42	43	0
11-Apr-13	sub2308	2308	1	1	70	4	1	4	3	3	1	1	0	0.38989	0	0.6	0	14	42	43	0
11-Apr-13	sub2308	2308	1	1	71	4	1	4	3	3	0	2	0	0.4547	1	0.6	0	14	34	49	0
11-Apr-13	sub2308	2308	1	1	72	4	1	1	5	1	1	1	1	0.02199	1	0.6	0	11	30	31	0
11-Apr-13	sub2308	2308	1	1	73	4	1	2	6	1	1	1	0	0.10399	0	0.6	0	12	40	41	0
11-Apr-13	sub2308	2308	1	1	74	4	1	6	1	5	1	2	1	0.28773	1	0.6	0	16	35	36	0
11-Apr-13	sub2308	2308	1	1	75	4	1	5	4	5	1	1	1	0.30283	1	0.6	0	15	35	36	0
11-Apr-13	sub2308	2308	1	1	76	4	2	6	1	5	0	2	0	0.24113	1	0.5	0	26	67	88	0
11-Apr-13	sub2308	2308	1	1	77	4	2	2	6	1	1	2	1	0.18558	1	0.5	0	22	60	61	0
11-Apr-13	sub2308	2308	1	1	78	4	2	4	3	3	1	2	1	0.0208	1	0.5	0	24	62	63	0
11-Apr-13	sub2308	2308	1	1	79	4	2	4	3	3	1	2	1	0.08518	1	0.5	0	24	62	63	0
11-Apr-13	sub2308	2308	1	1	80	4	2	1	5	1	1	1	1	0.09349	1	0.5	0	21	60	61	0
11-Apr-13	sub2308	2308	1	1	81	4	2	1	5	1	1	1	1	0.09217	1	0.5	0	21	60	61	0
11-Apr-13	sub2308	2308	1	1	82	4	2	5	4	5	0	1	0	0.28647	1	0.5	0	25	67	88	0
11-Apr-13	sub2308	2308	1	1	83	4	2	6	1	5	0	2	0	0.13865	1	0.5	0	26	67	88	0
11-Apr-13	sub2308	2308	1	1	84	4	2	3	2	3	0	1	0	0.26913	1	0.5	0	23	64	89	0
11-Apr-13	sub2308	2308	1	1	85	4	2	2	6	1	1	2	1	0.06574	1	0.5	0	22	60	61	0
11-Apr-13	sub2308	2308	1	1	86	4	2	4	3	3	0	2	0	0.2086	1	0.5	0	24	64	89	0
11-Apr-13	sub2308	2308	1	1	87	4	2	1	5	1	1	2	0	0.08164	0	0.5	0	21	80	81	0
11-Apr-13	sub2308	2308	1	1	88	4	2	5	4	5	0	2	1	0.27237	0	0.5	0	25	87	68	0
11-Apr-13	sub2308	2308	1	1	89	4	2	5	4	5	0	2	1	0.19477	0	0.5	0	25	87	68	0
11-Apr-13	sub2308	2308	1	1	90	4	2	5	4	5	0	2	1	0.39269	0	0.5	0	25	87	68	0
11-Apr-13	sub2308	2308	1	1	91	4	2	5	4	5	0	0	0	0	0	0.5	1	25	0	51	0
11-Apr-13	sub2308	2308	1	1	92	4	2	3	2	3	1	1	1	0.08284	1	0.6	0	23	62	63	0
11-Apr-13	sub2308	2308	1	1	93	4	2	6	1	5	1	1	0	0.18748	0	0.6	0	26	85	86	0
11-Apr-13	sub2308	2308	1	1	94	4	2	2	6	1	1	2	1	0.07917	1	0.6	0	22	60	61	0
11-Apr-13	sub2308	2308	1	1	95	4	2	2	6	1	1	2	1	0.04859	1	0.6	0	22	60	61	0
11-Apr-13	sub2308	2308	1	1	96	4	2	3	2	3	1	1	1	0.18634	1	0.6	0	23	62	63	0
11-Apr-13	sub2308	2308	1	1	97	4	2	4	3	3	0	2	0	0.20939	1	0.6	0	24	64	89	0
11-Apr-13	sub2308	2308	1	1	98	4	2	4	3	3	1	1	0	0.24038	0	0.6	0	24	82	83	0
11-Apr-13	sub2308	2308	1	1	99	4	2	6	1	5	1	2	1	0.0474	1	0.6	0	26	65	66	0
11-Apr-13	sub2308	2308	1	1	100	4	2	5	4	5	0	2	1	0.09551	0	0.6	0	25	87	68	0
11-Apr-13	sub2308	2308	1	1	101	4	2	4	3	3	1	2	1	0.49872	1	0.5	0	24	62	63	0
11-Apr-13	sub2308	2308	1	1	102	4	2	5	4	5	0	2	1	0.09701	0	0.5	0	25	87	68	0
11-Apr-13	sub2308	2308	1	1	103	4	2	2	6	1	1	2	1	0.10983	1	0.5	0	22	60	61	0
11-Apr-13	sub2308	2308	1	1	104	4	2	6	1	5	1	2	1	0.03033	1	0.5	0	26	65	66	0
11-Apr-13	sub2308	2308	1	1	105	4	2	5	4	5	0	2	1	0.02293	0	0.5	0	25	87	68	0
11-Apr-13	sub2308	2308	1	1	106	4	2	3	2	3	1	1	1	0.25272	1	0.5	0	23	62	63	0
11-Apr-13	sub2308	2308	1	1	107	4	2	2	6	1	1	2	1	0.04315	1	0.5	0	22	60	61	0
11-Apr-13	sub2308	2308	1	1	108	4	2	1	5	1	1	1	1	0.48121	1	0.5	0	21	60	61	0
11-Apr-13	sub2308	2308	1	1	109	4	2	4	3	3	1	1	0	0.01555	0	0.5	0	24	82	83	0
11-Apr-13	sub2308	2308	1	1	110	4	2	6	1	5	0	2	0	0.05813	1	0.5	0	26	67	88	0
11-Apr-13	sub2308	2308	1	1	111	4	2	1	5	1	1	1	1	0.17993	1	0.5	0	21	60	61	0
11-Apr-13	sub2308	2308	1	1	112	4	2	3	2	3	1	1	1	0.07238	1	0.5	0	23	62	63	0
11-Apr-13	sub2308	2308	1	1	113	4	2	1	5	1	1	1	1	0.21167	1	0.5	0	21	60	61	0
11-Apr-13	sub2308	2308	1	1	114	4	2	2	6	1	1	2	1	0.00428	1	0.5	0	22	60	61	0
11-Apr-13	sub2308	2308	1	1	115	4	2	3	2	3	1	1	1	0.04013	1	0.5	0	23	62	63	0
11-Apr-13	sub2308	2308	1	1	116	4	2	4	3	3	1	1	0	0.30023	0	0.5	0	24	82	83	0
11-Apr-13	sub2308	2308	1	1	117	4	2	1	5	1	1	1	1	0.22644	1	0.5	0	21	60	61	0
11-Apr-13	sub2308	2308	1	1	118	4	2	4	3	3	1	2	1	0.12834	1	0.5	0	24	62	63	0
11-Apr-13	sub2308	2308	1	1	119	4	2	5	4	5	0	2	1	0.06085	0	0.5	0	25	87	68	0
11-Apr-13	sub2308	2308	1	1	120	4	2	3	2	3	1	1	1	0.02594	1	0.5	0	23	62	63	0
11-Apr-13	sub2308	2308	1	1	121	4	2	5	4	5	0	2	1	0.0183	0	0.5	0	25	87	68	0
11-Apr-13	sub2308	2308	1	1	122	4	2	1	5	1	1	1	1	0.21433	1	0.5	0	21	60	61	0
11-Apr-13	sub2308	2308	1	1	123	4	2	3	2	3	0	0	0	0	0	0.5	1	23	0	51	0
11-Apr-13	sub2308	2308	1	1	124	4	2	5	4	5	0	2	1	0.02064	0	0.6	0	25	87	68	0
11-Apr-13	sub2308	2308	1	1	125	4	2	3	2	3	1	2	0	0.05473	0	0.6	0	23	82	83	0
11-Apr-13	sub2308	2308	1	1	126	4	2	2	6	1	1	2	1	0.04902	1	0.5	0	22	60	61	0
11-Apr-13	sub2308	2308	1	1	127	4	2	3	2	3	1	1	1	0.10407	1	0.5	0	23	62	63	0
11-Apr-13	sub2308	2308	1	1	128	4	2	6	1	5	1	2	1	0.04446	1	0.5	0	26	65	66	0
11-Apr-13	sub2308	2308	1	1	129	4	2	6	1	5	0	2	0	0.03249	1	0.5	0	26	67	88	0
11-Apr-13	sub2308	2308	1	1	130	4	2	1	5	1	1	1	1	0.19438	1	0.5	0	21	60	61	0
11-Apr-13	sub2308	2308	1	1	131	4	2	5	4	5	0	2	1	0.05077	0	0.5	0	25	87	68	0
11-Apr-13	sub2308	2308	1	1	132	4	2	2	6	1	1	2	1	0.40781	1	0.5	0	22	60	61	0
11-Apr-13	sub2308	2308	1	1	133	4	2	3	2	3	1	1	1	0.14223	1	0.5	0	23	62	63	0
11-Apr-13	sub2308	2308	1	1	134	4	2	4	3	3	1	2	1	0.07192	1	0.5	0	24	62	63	0
11-Apr-13	sub2308	2308	1	1	135	4	2	1	5	1	1	1	1	0.31778	1	0.5	0	21	60	61	0
11-Apr-13	sub2308	2308	1	1	136	4	2	6	1	5	1	2	1	0.18744	1	0.5	0	26	65	66	0
11-Apr-13	sub2308	2308	1	1	137	4	2	2	6	1	1	2	1	0.14048	1	0.5	0	22	60	61	0
11-Apr-13	sub2308	2308	1	1	138	4	2	6	1	5	0	2	0	0.13861	1	0.5	0	26	67	88	0
11-Apr-13	sub2308	2308	1	1	139	4	2	5	4	5	0	2	1	0.07674	0	0.5	0	25	87	68	0
11-Apr-13	sub2308	2308	1	1	140	4	2	2	6	1	1	2	1	0.00508	1	0.5	0	22	60	61	0
11-Apr-13	sub2308	2308	1	1	141	4	2	2	6	1	1	2	1	0.10448	1	0.5	0	22	60	61	0
11-Apr-13	sub2308	2308	1	1	142	4	2	6	1	5	0	2	0	0.05784	1	0.5	0	26	67	88	0
11-Apr-13	sub2308	2308	1	1	143	4	2	3	2	3	1	1	1	0.15796	1	0.5	0	23	62	63	0
11-Apr-13	sub2308	2308	1	1	144	4	2	1	5	1	1	1	1	0.12714	1	0.5	0	21	60	61	0
11-Apr-13	sub2308	2308	1	1	145	4	2	1	5	1	1	1	1	0.15241	1	0.5	0	21	60	61	0
11-Apr-13	sub2308	2308	1	1	146	4	2	4	3	3	1	2	1	0.20144	1	0.5	0	24	62	63	0
11-Apr-13	sub2308	2308	1	1	147	4	2	4	3	3	0	2	0	0.24711	1	0.5	0	24	64	89	0
11-Apr-13	sub2308	2308	1	1	148	4	2	4	3	3	1	2	1	0.14626	1	0.5	0	24	62	63	0
11-Apr-13	sub2308	2308	1	1	149	4	2	6	1	5	1	2	1	0.22042	1	0.5	0	26	65	66	0
11-Apr-13	sub2308	2308	1	1	150	4	2	1	5	1	1	1	1	0.23331	1	0.5	0	21	60	61	0
11-Apr-13	sub2308	2308	1	1	1	5	1	6	6	4	0	1	1	0.38217	0	0.6	0	16	47	38	0
11-Apr-13	sub2308	2308	1	1	2	5	1	2	4	3	1	0	0	0	0	0.3	1	12	0	51	0
11-Apr-13	sub2308	2308	1	1	3	5	1	6	6	4	1	1	0	0.40767	0	0.9	0	16	45	46	0
11-Apr-13	sub2308	2308	1	1	4	5	1	1	1	1	1	1	1	0.45278	1	0.9	0	11	30	31	0
11-Apr-13	sub2308	2308	1	1	5	5	1	2	4	3	1	1	0	0.38986	0	0.9	0	12	40	41	0
11-Apr-13	sub2308	2308	1	1	6	5	1	3	3	4	0	1	0	0.05583	1	0.9	0	13	34	49	0
11-Apr-13	sub2308	2308	1	1	7	5	1	4	2	4	1	1	0	0.08103	0	0.9	0	14	42	43	0
11-Apr-13	sub2308	2308	1	1	8	5	1	1	1	1	1	2	0	0.23512	0	0.9	0	11	40	41	0
11-Apr-13	sub2308	2308	1	1	9	5	1	5	5	4	1	2	0	0.2869	0	0.9	0	15	45	46	0
11-Apr-13	sub2308	2308	1	1	10	5	1	3	3	4	1	2	0	0.28029	0	0.9	0	13	42	43	0
11-Apr-13	sub2308	2308	1	1	11	5	1	5	5	4	1	2	0	0.27144	0	0.9	0	15	45	46	0
11-Apr-13	sub2308	2308	1	1	12	5	1	3	3	4	1	2	0	0.13623	0	0.9	0	13	42	43	0
11-Apr-13	sub2308	2308	1	1	13	5	1	6	6	4	0	1	1	0.28436	0	0.9	0	16	47	38	0
11-Apr-13	sub2308	2308	1	1	14	5	1	4	2	4	1	1	0	0.31769	0	0.9	0	14	42	43	0
11-Apr-13	sub2308	2308	1	1	15	5	1	3	3	4	1	1	1	0.35891	1	0.9	0	13	32	33	0
11-Apr-13	sub2308	2308	1	1	16	5	1	6	6	4	1	1	0	0.27995	0	0.8	0	16	45	46	0
11-Apr-13	sub2308	2308	1	1	17	5	1	3	3	4	1	1	1	0.01453	1	0.8	0	13	32	33	0
11-Apr-13	sub2308	2308	1	1	18	5	1	2	4	3	1	2	1	0.01871	1	0.7	0	12	30	31	0
11-Apr-13	sub2308	2308	1	1	19	5	1	6	6	4	0	1	1	0.46702	0	0.7	0	16	47	38	0
11-Apr-13	sub2308	2308	1	1	20	5	1	3	3	4	0	1	0	0.13923	1	0.7	0	13	34	49	0
11-Apr-13	sub2308	2308	1	1	21	5	1	4	2	4	1	2	1	0.15296	1	0.6	0	14	32	33	0
11-Apr-13	sub2308	2308	1	1	22	5	1	4	2	4	1	2	1	0.22659	1	0.6	0	14	32	33	0
11-Apr-13	sub2308	2308	1	1	23	5	1	6	6	4	1	1	0	0.29802	0	0.6	0	16	45	46	0
11-Apr-13	sub2308	2308	1	1	24	5	1	2	4	3	1	0	0	0	0	0.6	1	12	0	51	0
11-Apr-13	sub2308	2308	1	1	25	5	1	1	1	1	1	2	0	0.21134	0	0.9	0	11	40	41	0
11-Apr-13	sub2308	2308	1	1	26	5	1	5	5	4	0	2	1	0.10869	0	0.9	0	15	47	38	0
11-Apr-13	sub2308	2308	1	1	27	5	1	4	2	4	1	2	1	0.25245	1	0.9	0	14	32	33	0
11-Apr-13	sub2308	2308	1	1	28	5	1	2	4	3	1	2	1	0.28745	1	0.9	0	12	30	31	0
11-Apr-13	sub2308	2308	1	1	29	5	1	5	5	4	1	2	0	0.33547	0	0.9	0	15	45	46	0
11-Apr-13	sub2308	2308	1	1	30	5	1	6	6	4	0	2	0	0.43678	1	0.8	0	16	37	48	0
11-Apr-13	sub2308	2308	1	1	31	5	1	4	2	4	0	2	0	0.30138	1	0.8	0	14	34	49	0
11-Apr-13	sub2308	2308	1	1	32	5	1	4	2	4	0	2	0	0.23375	1	0.8	0	14	34	49	0
11-Apr-13	sub2308	2308	1	1	33	5	1	1	1	1	1	2	0	0.37305	0	0.8	0	11	40	41	0
11-Apr-13	sub2308	2308	1	1	34	5	1	1	1	1	1	1	1	0.18869	1	0.8	0	11	30	31	0
11-Apr-13	sub2308	2308	1	1	35	5	1	6	6	4	0	1	1	0.31574	0	0.7	0	16	47	38	0
11-Apr-13	sub2308	2308	1	1	36	5	1	2	4	3	1	1	0	0.48451	0	0.7	0	12	40	41	0
11-Apr-13	sub2308	2308	1	1	37	5	1	5	5	4	1	2	0	0.17397	0	0.7	0	15	45	46	0
11-Apr-13	sub2308	2308	1	1	38	5	1	6	6	4	0	1	1	0.0871	0	0.7	0	16	47	38	0
11-Apr-13	sub2308	2308	1	1	39	5	1	3	3	4	1	1	1	0.31475	1	0.7	0	13	32	33	0
11-Apr-13	sub2308	2308	1	1	40	5	1	6	6	4	1	1	0	0.50368	0	0.7	0	16	45	46	0
11-Apr-13	sub2308	2308	1	1	41	5	1	5	5	4	0	2	1	0.28062	0	0.6	0	15	47	38	0
11-Apr-13	sub2308	2308	1	1	42	5	1	4	2	4	1	2	1	0.30416	1	0.6	0	14	32	33	0
11-Apr-13	sub2308	2308	1	1	43	5	1	4	2	4	1	2	1	0.43879	1	0.6	0	14	32	33	0
11-Apr-13	sub2308	2308	1	1	44	5	1	5	5	4	1	0	0	0	0	0.6	1	15	0	51	0
11-Apr-13	sub2308	2308	1	1	45	5	1	1	1	1	1	1	1	0.27808	1	0.8	0	11	30	31	0
11-Apr-13	sub2308	2308	1	1	46	5	1	2	4	3	1	2	1	0.2168	1	0.8	0	12	30	31	0
11-Apr-13	sub2308	2308	1	1	47	5	1	3	3	4	1	1	1	0.189	1	0.8	0	13	32	33	0
11-Apr-13	sub2308	2308	1	1	48	5	1	3	3	4	1	1	1	0.38661	1	0.8	0	13	32	33	0
11-Apr-13	sub2308	2308	1	1	49	5	1	3	3	4	1	1	1	0.44737	1	0.8	0	13	32	33	0
11-Apr-13	sub2308	2308	1	1	50	5	1	1	1	1	1	1	1	0.30468	1	0.8	0	11	30	31	0
11-Apr-13	sub2308	2308	1	1	51	5	1	5	5	4	0	2	1	0.23029	0	0.7	0	15	47	38	0
11-Apr-13	sub2308	2308	1	1	52	5	1	1	1	1	1	1	1	0.01892	1	0.7	0	11	30	31	0
11-Apr-13	sub2308	2308	1	1	53	5	1	4	2	4	1	2	1	0.25606	1	0.7	0	14	32	33	0
11-Apr-13	sub2308	2308	1	1	54	5	1	2	4	3	1	2	1	0.37074	1	0.7	0	12	30	31	0
11-Apr-13	sub2308	2308	1	1	55	5	1	2	4	3	1	2	1	0.48839	1	0.7	0	12	30	31	0
11-Apr-13	sub2308	2308	1	1	56	5	1	1	1	1	1	1	1	0.3689	1	0.7	0	11	30	31	0
11-Apr-13	sub2308	2308	1	1	57	5	1	1	1	1	1	1	1	0.49404	1	0.7	0	11	30	31	0
11-Apr-13	sub2308	2308	1	1	58	5	1	1	1	1	1	1	1	0.46742	1	0.7	0	11	30	31	0
11-Apr-13	sub2308	2308	1	1	59	5	1	4	2	4	1	2	1	0.31034	1	0.7	0	14	32	33	0
11-Apr-13	sub2308	2308	1	1	60	5	1	5	5	4	1	2	0	0.43236	0	0.7	0	15	45	46	0
11-Apr-13	sub2308	2308	1	1	61	5	1	2	4	3	1	2	1	0.42619	1	0.6	0	12	30	31	0
11-Apr-13	sub2308	2308	1	1	62	5	1	5	5	4	1	0	0	0	0	0.6	1	15	0	51	0
11-Apr-13	sub2308	2308	1	1	63	5	1	2	4	3	1	2	1	0.23769	1	0.8	0	12	30	31	0
11-Apr-13	sub2308	2308	1	1	64	5	1	2	4	3	1	2	1	0.30204	1	0.8	0	12	30	31	0
11-Apr-13	sub2308	2308	1	1	65	5	1	6	6	4	0	1	1	0.25518	0	0.8	0	16	47	38	0
11-Apr-13	sub2308	2308	1	1	66	5	1	5	5	4	0	2	1	0.36391	0	0.8	0	15	47	38	0
11-Apr-13	sub2308	2308	1	1	67	5	1	4	2	4	1	2	1	0.25305	1	0.8	0	14	32	33	0
11-Apr-13	sub2308	2308	1	1	68	5	1	2	4	3	1	2	1	0.27133	1	0.7	0	12	30	31	0
11-Apr-13	sub2308	2308	1	1	69	5	1	5	5	4	0	2	1	0.36628	0	0.7	0	15	47	38	0
11-Apr-13	sub2308	2308	1	1	70	5	1	3	3	4	1	1	1	0.26842	1	0.7	0	13	32	33	0
11-Apr-13	sub2308	2308	1	1	71	5	1	6	6	4	0	1	1	0.46948	0	0.7	0	16	47	38	0
11-Apr-13	sub2308	2308	1	1	72	5	1	6	6	4	1	1	0	0.26552	0	0.7	0	16	45	46	0
11-Apr-13	sub2308	2308	1	1	73	5	1	1	1	1	1	1	1	0.09291	1	0.7	0	11	30	31	0
11-Apr-13	sub2308	2308	1	1	74	5	1	3	3	4	0	1	0	0.13919	1	0.7	0	13	34	49	0
11-Apr-13	sub2308	2308	1	1	75	5	1	3	3	4	1	1	1	0.49892	1	0.7	0	13	32	33	0
11-Apr-13	sub2308	2308	1	1	76	5	2	1	1	1	1	1	1	0.11866	1	0.7	0	21	60	61	0
11-Apr-13	sub2308	2308	1	1	77	5	2	6	6	4	0	1	1	0.47126	0	0.7	0	26	87	68	0
11-Apr-13	sub2308	2308	1	1	78	5	2	2	4	3	1	2	1	0.38142	1	0.7	0	22	60	61	0
11-Apr-13	sub2308	2308	1	1	79	5	2	1	1	1	1	1	1	0.27694	1	0.7	0	21	60	61	0
11-Apr-13	sub2308	2308	1	1	80	5	2	4	2	4	1	2	1	0.28702	1	0.7	0	24	62	63	0
11-Apr-13	sub2308	2308	1	1	81	5	2	5	5	4	0	2	1	0.39208	0	0.6	0	25	87	68	0
11-Apr-13	sub2308	2308	1	1	82	5	2	3	3	4	1	1	1	0.2907	1	0.6	0	23	62	63	0
11-Apr-13	sub2308	2308	1	1	83	5	2	3	3	4	1	1	1	0.0717	1	0.6	0	23	62	63	0
11-Apr-13	sub2308	2308	1	1	84	5	2	6	6	4	1	1	0	0.42671	0	0.6	0	26	85	86	0
11-Apr-13	sub2308	2308	1	1	85	5	2	4	2	4	1	2	1	0.34728	1	0.6	0	24	62	63	0
11-Apr-13	sub2308	2308	1	1	86	5	2	4	2	4	1	2	1	0.36446	1	0.6	0	24	62	63	0
11-Apr-13	sub2308	2308	1	1	87	5	2	2	4	3	1	2	1	0.47218	1	0.6	0	22	60	61	0
11-Apr-13	sub2308	2308	1	1	88	5	2	3	3	4	1	1	1	0.28011	1	0.6	0	23	62	63	0
11-Apr-13	sub2308	2308	1	1	89	5	2	6	6	4	1	1	0	0.29151	0	0.6	0	26	85	86	0
11-Apr-13	sub2308	2308	1	1	90	5	2	1	1	1	1	1	1	0.32323	1	0.6	0	21	60	61	0
11-Apr-13	sub2308	2308	1	1	91	5	2	3	3	4	1	1	1	0.34757	1	0.6	0	23	62	63	0
11-Apr-13	sub2308	2308	1	1	92	5	2	5	5	4	0	2	1	0.24684	0	0.6	0	25	87	68	0
11-Apr-13	sub2308	2308	1	1	93	5	2	6	6	4	0	2	0	0.31203	1	0.6	0	26	67	88	0
11-Apr-13	sub2308	2308	1	1	94	5	2	3	3	4	1	1	1	0.19295	1	0.6	0	23	62	63	0
11-Apr-13	sub2308	2308	1	1	95	5	2	3	3	4	1	1	1	0.21275	1	0.6	0	23	62	63	0
11-Apr-13	sub2308	2308	1	1	96	5	2	1	1	1	1	1	1	0.23491	1	0.6	0	21	60	61	0
11-Apr-13	sub2308	2308	1	1	97	5	2	2	4	3	1	2	1	0.36671	1	0.6	0	22	60	61	0
11-Apr-13	sub2308	2308	1	1	98	5	2	3	3	4	0	1	0	0.2659	1	0.6	0	23	64	89	0
11-Apr-13	sub2308	2308	1	1	99	5	2	6	6	4	1	1	0	0.30164	0	0.6	0	26	85	86	0
11-Apr-13	sub2308	2308	1	1	100	5	2	2	4	3	1	2	1	0.44709	1	0.6	0	22	60	61	0
11-Apr-13	sub2308	2308	1	1	101	5	2	5	5	4	0	2	1	0.27232	0	0.5	0	25	87	68	0
11-Apr-13	sub2308	2308	1	1	102	5	2	5	5	4	0	0	0	0	0	0.5	1	25	0	51	0
11-Apr-13	sub2308	2308	1	1	103	5	2	2	4	3	1	2	1	0.24591	1	0.6	0	22	60	61	0
11-Apr-13	sub2308	2308	1	1	104	5	2	1	1	1	1	1	1	0.23241	1	0.6	0	21	60	61	0
11-Apr-13	sub2308	2308	1	1	105	5	2	5	5	4	0	2	1	0.32836	0	0.6	0	25	87	68	0
11-Apr-13	sub2308	2308	1	1	106	5	2	5	5	4	0	2	1	0.40171	0	0.6	0	25	87	68	0
11-Apr-13	sub2308	2308	1	1	107	5	2	4	2	4	0	0	0	0	0	0.6	1	24	0	51	0
11-Apr-13	sub2308	2308	1	1	108	5	2	3	3	4	1	1	1	0.15283	1	0.7	0	23	62	63	0
11-Apr-13	sub2308	2308	1	1	109	5	2	1	1	1	1	1	1	0.00472	1	0.7	0	21	60	61	0
11-Apr-13	sub2308	2308	1	1	110	5	2	4	2	4	1	2	1	0.00736	1	0.7	0	24	62	63	0
11-Apr-13	sub2308	2308	1	1	111	5	2	5	5	4	0	2	1	0.12489	0	0.7	0	25	87	68	0
11-Apr-13	sub2308	2308	1	1	112	5	2	5	5	4	0	2	1	0.13487	0	0.7	0	25	87	68	0
11-Apr-13	sub2308	2308	1	1	113	5	2	2	4	3	1	2	1	0.43903	1	0.7	0	22	60	61	0
11-Apr-13	sub2308	2308	1	1	114	5	2	6	6	4	0	2	0	0.49925	1	0.7	0	26	67	88	0
11-Apr-13	sub2308	2308	1	1	115	5	2	6	6	4	1	1	0	0.45939	0	0.7	0	26	85	86	0
11-Apr-13	sub2308	2308	1	1	116	5	2	5	5	4	0	2	1	0.26053	0	0.7	0	25	87	68	0
11-Apr-13	sub2308	2308	1	1	117	5	2	3	3	4	1	1	1	0.03777	1	0.7	0	23	62	63	0
11-Apr-13	sub2308	2308	1	1	118	5	2	2	4	3	1	2	1	0.17263	1	0.7	0	22	60	61	0
11-Apr-13	sub2308	2308	1	1	119	5	2	3	3	4	1	1	1	0.15828	1	0.7	0	23	62	63	0
11-Apr-13	sub2308	2308	1	1	120	5	2	6	6	4	1	2	1	0.02875	1	0.7	0	26	65	66	0
11-Apr-13	sub2308	2308	1	1	121	5	2	1	1	1	1	1	1	0.49629	1	0.6	0	21	60	61	0
11-Apr-13	sub2308	2308	1	1	122	5	2	2	4	3	1	2	1	0.06265	1	0.6	0	22	60	61	0
11-Apr-13	sub2308	2308	1	1	123	5	2	1	1	1	1	1	1	0.09755	1	0.6	0	21	60	61	0
11-Apr-13	sub2308	2308	1	1	124	5	2	1	1	1	1	1	1	0.18743	1	0.6	0	21	60	61	0
11-Apr-13	sub2308	2308	1	1	125	5	2	6	6	4	0	1	1	0.16625	0	0.6	0	26	87	68	0
11-Apr-13	sub2308	2308	1	1	126	5	2	5	5	4	0	2	1	0.13346	0	0.6	0	25	87	68	0
11-Apr-13	sub2308	2308	1	1	127	5	2	2	4	3	1	2	1	0.24071	1	0.6	0	22	60	61	0
11-Apr-13	sub2308	2308	1	1	128	5	2	5	5	4	0	2	1	0.25423	0	0.6	0	25	87	68	0
11-Apr-13	sub2308	2308	1	1	129	5	2	4	2	4	1	2	1	0.07109	1	0.6	0	24	62	63	0
11-Apr-13	sub2308	2308	1	1	130	5	2	4	2	4	1	2	1	0.11779	1	0.6	0	24	62	63	0
11-Apr-13	sub2308	2308	1	1	131	5	2	4	2	4	1	2	1	0.07268	1	0.6	0	24	62	63	0
11-Apr-13	sub2308	2308	1	1	132	5	2	6	6	4	0	1	1	0.15502	0	0.6	0	26	87	68	0
11-Apr-13	sub2308	2308	1	1	133	5	2	1	1	1	1	1	1	0.13271	1	0.6	0	21	60	61	0
11-Apr-13	sub2308	2308	1	1	134	5	2	4	2	4	1	2	1	0.10193	1	0.6	0	24	62	63	0
11-Apr-13	sub2308	2308	1	1	135	5	2	5	5	4	0	1	0	0.03937	1	0.6	0	25	67	88	0
11-Apr-13	sub2308	2308	1	1	136	5	2	4	2	4	0	2	0	0.02536	1	0.6	0	24	64	89	0
11-Apr-13	sub2308	2308	1	1	137	5	2	1	1	1	1	1	1	0.17018	1	0.6	0	21	60	61	0
11-Apr-13	sub2308	2308	1	1	138	5	2	1	1	1	1	1	1	0.02168	1	0.6	0	21	60	61	0
11-Apr-13	sub2308	2308	1	1	139	5	2	2	4	3	1	2	1	0.02587	1	0.6	0	22	60	61	0
11-Apr-13	sub2308	2308	1	1	140	5	2	2	4	3	1	2	1	0.09908	1	0.6	0	22	60	61	0
11-Apr-13	sub2308	2308	1	1	141	5	2	4	2	4	1	2	1	0.17148	1	0.6	0	24	62	63	0
11-Apr-13	sub2308	2308	1	1	142	5	2	4	2	4	1	2	1	0.07461	1	0.6	0	24	62	63	0
11-Apr-13	sub2308	2308	1	1	143	5	2	3	3	4	1	1	1	0.08874	1	0.6	0	23	62	63	0
11-Apr-13	sub2308	2308	1	1	144	5	2	2	4	3	1	2	1	0.19188	1	0.6	0	22	60	61	0
11-Apr-13	sub2308	2308	1	1	145	5	2	6	6	4	1	2	1	0.26346	1	0.6	0	26	65	66	0
11-Apr-13	sub2308	2308	1	1	146	5	2	3	3	4	0	1	0	0.1042	1	0.6	0	23	64	89	0
11-Apr-13	sub2308	2308	1	1	147	5	2	4	2	4	0	2	0	0.1843	1	0.6	0	24	64	89	0
11-Apr-13	sub2308	2308	1	1	148	5	2	1	1	1	1	1	1	0.04984	1	0.6	0	21	60	61	0
11-Apr-13	sub2308	2308	1	1	149	5	2	6	6	4	0	2	0	0.26856	1	0.6	0	26	67	88	0
11-Apr-13	sub2308	2308	1	1	150	5	2	5	5	4	0	2	1	0.21072	0	0.6	0	25	87	68	0
11-Apr-13	sub2308	2308	1	1	1	6	1	2	5	2	1	1	0	0.44266	0	0.6	0	12	40	41	0
11-Apr-13	sub2308	2308	1	1	2	6	1	2	5	2	1	2	1	0.45052	1	0.3	1	12	30	51	0
11-Apr-13	sub2308	2308	1	1	3	6	1	6	3	2	1	1	0	0.4261	0	0.9	0	16	45	46	0
11-Apr-13	sub2308	2308	1	1	4	6	1	2	5	2	1	2	1	0.05042	1	0.9	0	12	30	31	0
11-Apr-13	sub2308	2308	1	1	5	6	1	3	6	2	1	2	0	0.35634	0	0.9	0	13	42	43	0
11-Apr-13	sub2308	2308	1	1	6	6	1	3	6	2	1	1	1	0.04897	1	0.9	0	13	32	33	0
11-Apr-13	sub2308	2308	1	1	7	6	1	4	4	1	1	2	1	0.32242	1	0.9	0	14	32	33	0
11-Apr-13	sub2308	2308	1	1	8	6	1	4	4	1	1	2	1	0.24584	1	0.9	0	14	32	33	0
11-Apr-13	sub2308	2308	1	1	9	6	1	6	3	2	1	1	0	0.25396	0	0.9	0	16	45	46	0
11-Apr-13	sub2308	2308	1	1	10	6	1	1	2	2	1	2	0	0.36549	0	0.9	0	11	40	41	0
11-Apr-13	sub2308	2308	1	1	11	6	1	5	1	2	0	1	0	0.20403	1	0.9	0	15	37	48	0
11-Apr-13	sub2308	2308	1	1	12	6	1	6	3	2	1	1	0	0.30749	0	0.9	0	16	45	46	0
11-Apr-13	sub2308	2308	1	1	13	6	1	5	1	2	0	1	0	0.23516	1	0.9	0	15	37	48	0
11-Apr-13	sub2308	2308	1	1	14	6	1	4	4	1	1	2	1	0.31806	1	0.9	0	14	32	33	0
11-Apr-13	sub2308	2308	1	1	15	6	1	3	6	2	1	1	1	0.38485	1	0.9	0	13	32	33	0
11-Apr-13	sub2308	2308	1	1	16	6	1	4	4	1	1	2	1	0.25723	1	0.8	0	14	32	33	0
11-Apr-13	sub2308	2308	1	1	17	6	1	3	6	2	1	1	1	0.17044	1	0.8	0	13	32	33	0
11-Apr-13	sub2308	2308	1	1	18	6	1	5	1	2	1	2	0	0.29046	0	0.7	0	15	45	46	0
11-Apr-13	sub2308	2308	1	1	19	6	1	5	1	2	1	1	1	0.18379	1	0.7	0	15	35	36	0
11-Apr-13	sub2308	2308	1	1	20	6	1	3	6	2	1	1	1	0.28303	1	0.7	0	13	32	33	0
11-Apr-13	sub2308	2308	1	1	21	6	1	5	1	2	0	1	0	0.34674	1	0.6	0	15	37	48	0
11-Apr-13	sub2308	2308	1	1	22	6	1	1	2	2	1	2	0	0.21508	0	0.6	0	11	40	41	0
11-Apr-13	sub2308	2308	1	1	23	6	1	4	4	1	1	2	1	0.26768	1	0.6	0	14	32	33	0
11-Apr-13	sub2308	2308	1	1	24	6	1	3	6	2	1	1	1	0.14466	1	0.6	0	13	32	33	0
11-Apr-13	sub2308	2308	1	1	25	6	1	2	5	2	1	2	1	0.27582	1	0.6	0	12	30	31	0
11-Apr-13	sub2308	2308	1	1	26	6	1	3	6	2	0	1	0	0.17812	1	0.5	0	13	34	49	0
11-Apr-13	sub2308	2308	1	1	27	6	1	1	2	2	1	2	0	0.17795	0	0.5	0	11	40	41	0
11-Apr-13	sub2308	2308	1	1	28	6	1	5	1	2	0	0	0	0	0	0.5	1	15	0	51	0
11-Apr-13	sub2308	2308	1	1	29	6	1	1	2	2	1	1	1	0.07051	1	0.9	0	11	30	31	0
11-Apr-13	sub2308	2308	1	1	30	6	1	6	3	2	0	2	0	0.23571	1	0.8	0	16	37	48	0
11-Apr-13	sub2308	2308	1	1	31	6	1	6	3	2	0	2	0	0.11612	1	0.8	0	16	37	48	0
11-Apr-13	sub2308	2308	1	1	32	6	1	1	2	2	1	2	0	0.38561	0	0.8	0	11	40	41	0
11-Apr-13	sub2308	2308	1	1	33	6	1	5	1	2	1	1	1	0.10336	1	0.8	0	15	35	36	0
11-Apr-13	sub2308	2308	1	1	34	6	1	4	4	1	1	2	1	0.15768	1	0.8	0	14	32	33	0
11-Apr-13	sub2308	2308	1	1	35	6	1	5	1	2	1	1	1	0.19936	1	0.7	0	15	35	36	0
11-Apr-13	sub2308	2308	1	1	36	6	1	1	2	2	1	1	1	0.18802	1	0.7	0	11	30	31	0
11-Apr-13	sub2308	2308	1	1	37	6	1	5	1	2	0	1	0	0.10926	1	0.7	0	15	37	48	0
11-Apr-13	sub2308	2308	1	1	38	6	1	6	3	2	0	2	0	0.40638	1	0.7	0	16	37	48	0
11-Apr-13	sub2308	2308	1	1	39	6	1	6	3	2	0	1	1	0.0426	0	0.7	0	16	47	38	0
11-Apr-13	sub2308	2308	1	1	40	6	1	1	2	2	1	2	0	0.22948	0	0.7	0	11	40	41	0
11-Apr-13	sub2308	2308	1	1	41	6	1	4	4	1	1	2	1	0.31043	1	0.6	0	14	32	33	0
11-Apr-13	sub2308	2308	1	1	42	6	1	3	6	2	0	1	0	0.2464	1	0.6	0	13	34	49	0
11-Apr-13	sub2308	2308	1	1	43	6	1	1	2	2	1	1	1	0.11334	1	0.6	0	11	30	31	0
11-Apr-13	sub2308	2308	1	1	44	6	1	2	5	2	1	1	0	0.05627	0	0.6	0	12	40	41	0
11-Apr-13	sub2308	2308	1	1	45	6	1	2	5	2	1	2	1	0.13568	1	0.6	0	12	30	31	0
11-Apr-13	sub2308	2308	1	1	46	6	1	3	6	2	0	1	0	0.11844	1	0.6	0	13	34	49	0
11-Apr-13	sub2308	2308	1	1	47	6	1	6	3	2	0	1	1	0.2659	0	0.6	0	16	47	38	0
11-Apr-13	sub2308	2308	1	1	48	6	1	4	4	1	0	2	0	0.35926	1	0.6	0	14	34	49	0
11-Apr-13	sub2308	2308	1	1	49	6	1	3	6	2	1	1	1	0.27773	1	0.6	0	13	32	33	0
11-Apr-13	sub2308	2308	1	1	50	6	1	6	3	2	0	2	0	0.40501	1	0.6	0	16	37	48	0
11-Apr-13	sub2308	2308	1	1	51	6	1	1	2	2	1	1	1	0.26588	1	0.5	0	11	30	31	0
11-Apr-13	sub2308	2308	1	1	52	6	1	3	6	2	1	1	1	0.29504	1	0.5	0	13	32	33	0
11-Apr-13	sub2308	2308	1	1	53	6	1	4	4	1	0	0	0	0	0	0.5	1	14	0	51	0
11-Apr-13	sub2308	2308	1	1	54	6	1	4	4	1	1	2	1	0.23899	1	0.7	0	14	32	33	0
11-Apr-13	sub2308	2308	1	1	55	6	1	4	4	1	1	2	1	0.42187	1	0.7	0	14	32	33	0
11-Apr-13	sub2308	2308	1	1	56	6	1	6	3	2	0	1	1	0.2063	0	0.7	0	16	47	38	0
11-Apr-13	sub2308	2308	1	1	57	6	1	1	2	2	1	1	1	0.22659	1	0.7	0	11	30	31	0
11-Apr-13	sub2308	2308	1	1	58	6	1	2	5	2	1	2	1	0.18066	1	0.7	0	12	30	31	0
11-Apr-13	sub2308	2308	1	1	59	6	1	5	1	2	1	1	1	0.21816	1	0.7	0	15	35	36	0
11-Apr-13	sub2308	2308	1	1	60	6	1	6	3	2	1	2	1	0.38403	1	0.7	0	16	35	36	0
11-Apr-13	sub2308	2308	1	1	61	6	1	1	2	2	1	1	1	0.21159	1	0.6	0	11	30	31	0
11-Apr-13	sub2308	2308	1	1	62	6	1	5	1	2	1	1	1	0.21037	1	0.6	0	15	35	36	0
11-Apr-13	sub2308	2308	1	1	63	6	1	1	2	2	1	1	1	0.1784	1	0.6	0	11	30	31	0
11-Apr-13	sub2308	2308	1	1	64	6	1	2	5	2	1	2	1	0.26778	1	0.6	0	12	30	31	0
11-Apr-13	sub2308	2308	1	1	65	6	1	2	5	2	1	2	1	0.35336	1	0.6	0	12	30	31	0
11-Apr-13	sub2308	2308	1	1	66	6	1	3	6	2	1	1	1	0.32258	1	0.6	0	13	32	33	0
11-Apr-13	sub2308	2308	1	1	67	6	1	5	1	2	0	1	0	0.30112	1	0.6	0	15	37	48	0
11-Apr-13	sub2308	2308	1	1	68	6	1	2	5	2	1	2	1	0.33219	1	0.6	0	12	30	31	0
11-Apr-13	sub2308	2308	1	1	69	6	1	3	6	2	1	1	1	0.31609	1	0.6	0	13	32	33	0
11-Apr-13	sub2308	2308	1	1	70	6	1	2	5	2	1	2	1	0.30404	1	0.6	0	12	30	31	0
11-Apr-13	sub2308	2308	1	1	71	6	1	6	3	2	1	1	0	0.17784	0	0.6	0	16	45	46	0
11-Apr-13	sub2308	2308	1	1	72	6	1	2	5	2	1	2	1	0.20622	1	0.6	0	12	30	31	0
11-Apr-13	sub2308	2308	1	1	73	6	1	2	5	2	1	2	1	0.1508	1	0.6	0	12	30	31	0
11-Apr-13	sub2308	2308	1	1	74	6	1	6	3	2	1	1	0	0.13832	0	0.6	0	16	45	46	0
11-Apr-13	sub2308	2308	1	1	75	6	1	4	4	1	1	2	1	0.33537	1	0.6	0	14	32	33	0
11-Apr-13	sub2308	2308	1	1	76	6	2	5	1	2	0	1	0	0.2036	1	0.5	0	25	67	88	0
11-Apr-13	sub2308	2308	1	1	77	6	2	1	2	2	1	1	1	0.205	1	0.5	0	21	60	61	0
11-Apr-13	sub2308	2308	1	1	78	6	2	6	3	2	0	1	1	0.24408	0	0.5	0	26	87	68	0
11-Apr-13	sub2308	2308	1	1	79	6	2	2	5	2	1	2	1	0.42814	1	0.5	0	22	60	61	0
11-Apr-13	sub2308	2308	1	1	80	6	2	4	4	1	0	2	0	0.24505	1	0.5	0	24	64	89	0
11-Apr-13	sub2308	2308	1	1	81	6	2	4	4	1	1	2	1	0.22693	1	0.5	0	24	62	63	0
11-Apr-13	sub2308	2308	1	1	82	6	2	2	5	2	1	2	1	0.2488	1	0.5	0	22	60	61	0
11-Apr-13	sub2308	2308	1	1	83	6	2	4	4	1	1	2	1	0.12698	1	0.5	0	24	62	63	0
11-Apr-13	sub2308	2308	1	1	84	6	2	5	1	2	0	1	0	0.22232	1	0.5	0	25	67	88	0
11-Apr-13	sub2308	2308	1	1	85	6	2	5	1	2	0	1	0	0.1656	1	0.5	0	25	67	88	0
11-Apr-13	sub2308	2308	1	1	86	6	2	6	3	2	1	1	0	0.12153	0	0.5	0	26	85	86	0
11-Apr-13	sub2308	2308	1	1	87	6	2	1	2	2	1	1	1	0.17647	1	0.5	0	21	60	61	0
11-Apr-13	sub2308	2308	1	1	88	6	2	2	5	2	1	2	1	0.24544	1	0.5	0	22	60	61	0
11-Apr-13	sub2308	2308	1	1	89	6	2	6	3	2	0	1	1	0.2497	0	0.5	0	26	87	68	0
11-Apr-13	sub2308	2308	1	1	90	6	2	6	3	2	0	1	1	0.36273	0	0.5	0	26	87	68	0
11-Apr-13	sub2308	2308	1	1	91	6	2	4	4	1	1	2	1	0.2998	1	0.5	0	24	62	63	0
11-Apr-13	sub2308	2308	1	1	92	6	2	2	5	2	1	2	1	0.28574	1	0.5	0	22	60	61	0
11-Apr-13	sub2308	2308	1	1	93	6	2	2	5	2	1	2	1	0.26465	1	0.5	0	22	60	61	0
11-Apr-13	sub2308	2308	1	1	94	6	2	6	3	2	1	2	1	0.26578	1	0.5	0	26	65	66	0
11-Apr-13	sub2308	2308	1	1	95	6	2	3	6	2	1	1	1	0.22119	1	0.5	0	23	62	63	0
11-Apr-13	sub2308	2308	1	1	96	6	2	1	2	2	1	1	1	0.15488	1	0.5	0	21	60	61	0
11-Apr-13	sub2308	2308	1	1	97	6	2	6	3	2	1	2	1	0.33714	1	0.5	0	26	65	66	0
11-Apr-13	sub2308	2308	1	1	98	6	2	2	5	2	1	2	1	0.23327	1	0.5	0	22	60	61	0
11-Apr-13	sub2308	2308	1	1	99	6	2	2	5	2	1	2	1	0.23412	1	0.5	0	22	60	61	0
11-Apr-13	sub2308	2308	1	1	100	6	2	4	4	1	1	2	1	0.1481	1	0.5	0	24	62	63	0
11-Apr-13	sub2308	2308	1	1	101	6	2	1	2	2	1	1	1	0.28243	1	0.4	0	21	60	61	0
11-Apr-13	sub2308	2308	1	1	102	6	2	5	1	2	0	1	0	0.10751	1	0.4	0	25	67	88	0
11-Apr-13	sub2308	2308	1	1	103	6	2	5	1	2	0	1	0	0.25386	1	0.4	0	25	67	88	0
11-Apr-13	sub2308	2308	1	1	104	6	2	1	2	2	1	1	1	0.3374	1	0.4	0	21	60	61	0
11-Apr-13	sub2308	2308	1	1	105	6	2	4	4	1	0	2	0	0.12492	1	0.4	0	24	64	89	0
11-Apr-13	sub2308	2308	1	1	106	6	2	3	6	2	1	1	1	0.21556	1	0.4	0	23	62	63	0
11-Apr-13	sub2308	2308	1	1	107	6	2	3	6	2	0	1	0	0.21409	1	0.4	0	23	64	89	0
11-Apr-13	sub2308	2308	1	1	108	6	2	1	2	2	1	1	1	0.21487	1	0.4	0	21	60	61	0
11-Apr-13	sub2308	2308	1	1	109	6	2	4	4	1	1	2	1	0.22533	1	0.4	0	24	62	63	0
11-Apr-13	sub2308	2308	1	1	110	6	2	2	5	2	1	2	1	0.18345	1	0.4	0	22	60	61	0
11-Apr-13	sub2308	2308	1	1	111	6	2	3	6	2	1	1	1	0.2592	1	0.4	0	23	62	63	0
11-Apr-13	sub2308	2308	1	1	112	6	2	3	6	2	0	1	0	0.48169	1	0.4	1	23	64	51	0
11-Apr-13	sub2308	2308	1	1	113	6	2	1	2	2	1	1	1	0.07281	1	0.5	0	21	60	61	0
11-Apr-13	sub2308	2308	1	1	114	6	2	4	4	1	1	2	1	0.16029	1	0.5	0	24	62	63	0
11-Apr-13	sub2308	2308	1	1	115	6	2	1	2	2	1	1	1	0.10503	1	0.5	0	21	60	61	0
11-Apr-13	sub2308	2308	1	1	116	6	2	5	1	2	0	1	0	0.05516	1	0.5	0	25	67	88	0
11-Apr-13	sub2308	2308	1	1	117	6	2	2	5	2	1	2	1	0.16735	1	0.5	0	22	60	61	0
11-Apr-13	sub2308	2308	1	1	118	6	2	4	4	1	1	2	1	0.08475	1	0.5	0	24	62	63	0
11-Apr-13	sub2308	2308	1	1	119	6	2	6	3	2	1	2	1	0.18121	1	0.5	0	26	65	66	0
11-Apr-13	sub2308	2308	1	1	120	6	2	5	1	2	0	2	1	0.29417	0	0.5	0	25	87	68	0
11-Apr-13	sub2308	2308	1	1	121	6	2	1	2	2	1	1	1	0.14237	1	0.5	0	21	60	61	0
11-Apr-13	sub2308	2308	1	1	122	6	2	5	1	2	0	2	1	0.23671	0	0.5	0	25	87	68	0
11-Apr-13	sub2308	2308	1	1	123	6	2	3	6	2	1	1	1	0.23942	1	0.5	0	23	62	63	0
11-Apr-13	sub2308	2308	1	1	124	6	2	2	5	2	1	2	1	0.10195	1	0.5	0	22	60	61	0
11-Apr-13	sub2308	2308	1	1	125	6	2	2	5	2	1	2	1	0.15567	1	0.5	0	22	60	61	0
11-Apr-13	sub2308	2308	1	1	126	6	2	5	1	2	0	2	1	0.19343	0	0.5	0	25	87	68	0
11-Apr-13	sub2308	2308	1	1	127	6	2	1	2	2	1	1	1	0.02486	1	0.5	0	21	60	61	0
11-Apr-13	sub2308	2308	1	1	128	6	2	3	6	2	1	1	1	0.4915	1	0.5	0	23	62	63	0
11-Apr-13	sub2308	2308	1	1	129	6	2	2	5	2	1	2	1	0.0618	1	0.5	0	22	60	61	0
11-Apr-13	sub2308	2308	1	1	130	6	2	4	4	1	1	2	1	0.46162	1	0.5	0	24	62	63	0
11-Apr-13	sub2308	2308	1	1	131	6	2	3	6	2	1	1	1	0.1248	1	0.5	0	23	62	63	0
11-Apr-13	sub2308	2308	1	1	132	6	2	6	3	2	0	2	0	0.19904	1	0.5	0	26	67	88	0
11-Apr-13	sub2308	2308	1	1	133	6	2	4	4	1	0	2	0	0.17838	1	0.5	0	24	64	89	0
11-Apr-13	sub2308	2308	1	1	134	6	2	3	6	2	1	1	1	0.19923	1	0.5	0	23	62	63	0
11-Apr-13	sub2308	2308	1	1	135	6	2	5	1	2	0	2	1	0.15601	0	0.4	0	25	87	68	0
11-Apr-13	sub2308	2308	1	1	136	6	2	6	3	2	1	2	1	0.21276	1	0.4	0	26	65	66	0
11-Apr-13	sub2308	2308	1	1	137	6	2	1	2	2	1	1	1	0.23661	1	0.4	0	21	60	61	0
11-Apr-13	sub2308	2308	1	1	138	6	2	1	2	2	1	0	0	0	0	0.4	1	21	0	51	0
11-Apr-13	sub2308	2308	1	1	139	6	2	3	6	2	1	1	1	0.07276	1	0.5	0	23	62	63	0
11-Apr-13	sub2308	2308	1	1	140	6	2	3	6	2	1	1	1	0.43138	1	0.5	0	23	62	63	0
11-Apr-13	sub2308	2308	1	1	141	6	2	5	1	2	0	2	1	0.09174	0	0.5	0	25	87	68	0
11-Apr-13	sub2308	2308	1	1	142	6	2	6	3	2	0	2	0	0.04871	1	0.5	0	26	67	88	0
11-Apr-13	sub2308	2308	1	1	143	6	2	5	1	2	0	2	1	0.15079	0	0.5	0	25	87	68	0
11-Apr-13	sub2308	2308	1	1	144	6	2	6	3	2	0	2	0	0.09856	1	0.5	0	26	67	88	0
11-Apr-13	sub2308	2308	1	1	145	6	2	5	1	2	0	2	1	0.20931	0	0.5	0	25	87	68	0
11-Apr-13	sub2308	2308	1	1	146	6	2	4	4	1	1	2	1	0.15885	1	0.5	0	24	62	63	0
11-Apr-13	sub2308	2308	1	1	147	6	2	6	3	2	1	2	1	0.21007	1	0.5	0	26	65	66	0
11-Apr-13	sub2308	2308	1	1	148	6	2	3	6	2	1	1	1	0.27153	1	0.5	0	23	62	63	0
11-Apr-13	sub2308	2308	1	1	149	6	2	1	2	2	1	1	1	0.32165	1	0.5	0	21	60	61	0
11-Apr-13	sub2308	2308	1	1	150	6	2	4	4	1	1	2	1	0.24795	1	0.5	0	24	62	63	0
