Date 	 Name 	 ID 	 Gender 	 Appearance 	 Trial 	 Block 	 Bin 	 Condition 	 Category 	 Number 	 Valid 	 Keypress 	 Correct 	 RT 	 Realcorrect 	 Deadline 	 Timeout 	 Stimtrigger 	 Resptrigger 	 Fedtrigger 	 WithinTime 	 
13-Apr-2013	sub2309	2309	  1	  1	  1	  1	  1	  5	  1	  1	  0	  1	  0	0.95773	  1	0.60000	  1	 15	 37	 51	  0	
13-Apr-2013	sub2309	2309	  1	  1	  2	  1	  1	  6	  6	  6	  1	  1	  0	0.39349	  0	0.90000	  0	 16	 45	 46	  1	
13-Apr-2013	sub2309	2309	  1	  1	  3	  1	  1	  2	  2	  3	  1	  1	  0	0.52472	  0	0.90000	  0	 12	 40	 41	  0	
13-Apr-2013	sub2309	2309	  1	  1	  4	  1	  1	  1	  5	  6	  1	  1	  1	0.49288	  1	0.90000	  0	 11	 30	 31	  1	
13-Apr-2013	sub2309	2309	  1	  1	  5	  1	  1	  5	  1	  1	  1	  2	  0	0.62939	  0	0.90000	  0	 15	 45	 46	  0	
13-Apr-2013	sub2309	2309	  1	  1	  6	  1	  1	  3	  3	  3	  1	  1	  1	0.52154	  1	0.90000	  0	 13	 32	 33	  0	
13-Apr-2013	sub2309	2309	  1	  1	  7	  1	  1	  3	  3	  3	  1	  1	  1	0.53803	  1	0.90000	  0	 13	 32	 33	  0	
13-Apr-2013	sub2309	2309	  1	  1	  8	  1	  1	  3	  3	  3	  0	  1	  0	0.49990	  1	0.90000	  0	 13	 34	 49	  1	
13-Apr-2013	sub2309	2309	  1	  1	  9	  1	  1	  6	  6	  6	  0	  2	  0	0.46836	  1	0.90000	  0	 16	 37	 48	  1	
13-Apr-2013	sub2309	2309	  1	  1	 10	  1	  1	  2	  2	  3	  1	  2	  1	0.57066	  1	0.90000	  0	 12	 30	 31	  0	
13-Apr-2013	sub2309	2309	  1	  1	 11	  1	  1	  1	  5	  6	  1	  2	  0	0.58673	  0	0.90000	  0	 11	 40	 41	  0	
13-Apr-2013	sub2309	2309	  1	  1	 12	  1	  1	  5	  1	  1	  1	  2	  0	0.58721	  0	0.90000	  0	 15	 45	 46	  0	
13-Apr-2013	sub2309	2309	  1	  1	 13	  1	  1	  4	  4	  1	  1	  1	  0	0.52133	  0	0.90000	  0	 14	 42	 43	  0	
13-Apr-2013	sub2309	2309	  1	  1	 14	  1	  1	  4	  4	  1	  1	  2	  1	0.45424	  1	0.90000	  0	 14	 32	 33	  1	
13-Apr-2013	sub2309	2309	  1	  1	 15	  1	  1	  5	  1	  1	  1	  2	  0	0.65176	  0	0.90000	  0	 15	 45	 46	  0	
13-Apr-2013	sub2309	2309	  1	  1	 16	  1	  1	  1	  5	  6	  1	  2	  0	0.52601	  0	0.80000	  0	 11	 40	 41	  0	
13-Apr-2013	sub2309	2309	  1	  1	 17	  1	  1	  1	  5	  6	  1	  1	  1	0.53031	  1	0.80000	  0	 11	 30	 31	  0	
13-Apr-2013	sub2309	2309	  1	  1	 18	  1	  1	  1	  5	  6	  1	  1	  1	0.39623	  1	0.70000	  0	 11	 30	 31	  1	
13-Apr-2013	sub2309	2309	  1	  1	 19	  1	  1	  6	  6	  6	  0	  2	  0	0.54212	  1	0.70000	  0	 16	 37	 48	  0	
13-Apr-2013	sub2309	2309	  1	  1	 20	  1	  1	  6	  6	  6	  0	  1	  1	0.41596	  0	0.70000	  0	 16	 47	 38	  1	
13-Apr-2013	sub2309	2309	  1	  1	 21	  1	  1	  4	  4	  1	  0	  2	  0	0.58567	  1	0.60000	  0	 14	 34	 49	  0	
13-Apr-2013	sub2309	2309	  1	  1	 22	  1	  1	  3	  3	  3	  1	  2	  0	0.72902	  0	0.60000	  1	 13	 42	 51	  0	
13-Apr-2013	sub2309	2309	  1	  1	 23	  1	  1	  6	  6	  6	  1	  1	  0	0.59084	  0	0.90000	  0	 16	 45	 46	  0	
13-Apr-2013	sub2309	2309	  1	  1	 24	  1	  1	  5	  1	  1	  0	  2	  1	0.62933	  0	0.90000	  0	 15	 47	 38	  0	
13-Apr-2013	sub2309	2309	  1	  1	 25	  1	  1	  2	  2	  3	  1	  1	  0	0.53534	  0	0.90000	  0	 12	 40	 41	  0	
13-Apr-2013	sub2309	2309	  1	  1	 26	  1	  1	  4	  4	  1	  1	  2	  1	0.69293	  1	0.90000	  0	 14	 32	 33	  0	
13-Apr-2013	sub2309	2309	  1	  1	 27	  1	  1	  2	  2	  3	  1	  1	  0	0.62359	  0	0.90000	  0	 12	 40	 41	  0	
13-Apr-2013	sub2309	2309	  1	  1	 28	  1	  1	  1	  5	  6	  1	  2	  0	0.69611	  0	0.90000	  0	 11	 40	 41	  0	
13-Apr-2013	sub2309	2309	  1	  1	 29	  1	  1	  2	  2	  3	  1	  1	  0	0.58190	  0	0.90000	  0	 12	 40	 41	  0	
13-Apr-2013	sub2309	2309	  1	  1	 30	  1	  1	  5	  1	  1	  1	  2	  0	0.58000	  0	0.80000	  0	 15	 45	 46	  0	
13-Apr-2013	sub2309	2309	  1	  1	 31	  1	  1	  2	  2	  3	  1	  2	  1	0.50789	  1	0.80000	  0	 12	 30	 31	  0	
13-Apr-2013	sub2309	2309	  1	  1	 32	  1	  1	  2	  2	  3	  1	  1	  0	0.77035	  0	0.80000	  0	 12	 40	 41	  0	
13-Apr-2013	sub2309	2309	  1	  1	 33	  1	  1	  4	  4	  1	  1	  2	  1	0.46906	  1	0.80000	  0	 14	 32	 33	  1	
13-Apr-2013	sub2309	2309	  1	  1	 34	  1	  1	  2	  2	  3	  1	  1	  0	0.62938	  0	0.80000	  0	 12	 40	 41	  0	
13-Apr-2013	sub2309	2309	  1	  1	 35	  1	  1	  3	  3	  3	  0	  1	  0	0.62294	  1	0.70000	  0	 13	 34	 49	  0	
13-Apr-2013	sub2309	2309	  1	  1	 36	  1	  1	  6	  6	  6	  0	  2	  0	0.53957	  1	0.70000	  0	 16	 37	 48	  0	
13-Apr-2013	sub2309	2309	  1	  1	 37	  1	  1	  3	  3	  3	  1	  1	  1	0.53180	  1	0.70000	  0	 13	 32	 33	  0	
13-Apr-2013	sub2309	2309	  1	  1	 38	  1	  1	  5	  1	  1	  1	  2	  0	0.67416	  0	0.70000	  0	 15	 45	 46	  0	
13-Apr-2013	sub2309	2309	  1	  1	 39	  1	  1	  6	  6	  6	  0	  1	  1	0.55623	  0	0.70000	  0	 16	 47	 38	  0	
13-Apr-2013	sub2309	2309	  1	  1	 40	  1	  1	  3	  3	  3	  0	  1	  0	0.58714	  1	0.70000	  0	 13	 34	 49	  0	
13-Apr-2013	sub2309	2309	  1	  1	 41	  1	  1	  3	  3	  3	  1	  2	  0	0.54282	  0	0.60000	  0	 13	 42	 43	  0	
13-Apr-2013	sub2309	2309	  1	  1	 42	  1	  1	  1	  5	  6	  1	  1	  1	0.48599	  1	0.60000	  0	 11	 30	 31	  1	
13-Apr-2013	sub2309	2309	  1	  1	 43	  1	  1	  3	  3	  3	  1	  1	  1	0.60273	  1	0.60000	  1	 13	 32	 51	  0	
13-Apr-2013	sub2309	2309	  1	  1	 44	  1	  1	  4	  4	  1	  1	  2	  1	0.49415	  1	0.80000	  0	 14	 32	 33	  1	
13-Apr-2013	sub2309	2309	  1	  1	 45	  1	  1	  1	  5	  6	  1	  1	  1	0.50238	  1	0.80000	  0	 11	 30	 31	  0	
13-Apr-2013	sub2309	2309	  1	  1	 46	  1	  1	  5	  1	  1	  0	  2	  1	0.64238	  0	0.80000	  0	 15	 47	 38	  0	
13-Apr-2013	sub2309	2309	  1	  1	 47	  1	  1	  6	  6	  6	  0	  1	  1	0.47277	  0	0.80000	  0	 16	 47	 38	  1	
13-Apr-2013	sub2309	2309	  1	  1	 48	  1	  1	  3	  3	  3	  1	  2	  0	0.49165	  0	0.80000	  0	 13	 42	 43	  1	
13-Apr-2013	sub2309	2309	  1	  1	 49	  1	  1	  6	  6	  6	  0	  2	  0	0.51474	  1	0.80000	  0	 16	 37	 48	  0	
13-Apr-2013	sub2309	2309	  1	  1	 50	  1	  1	  4	  4	  1	  0	  1	  1	0.37036	  0	0.80000	  0	 14	 44	 39	  1	
13-Apr-2013	sub2309	2309	  1	  1	 51	  1	  1	  3	  3	  3	  1	  2	  0	0.35740	  0	0.70000	  0	 13	 42	 43	  1	
13-Apr-2013	sub2309	2309	  1	  1	 52	  1	  1	  1	  5	  6	  1	  1	  1	0.35396	  1	0.70000	  0	 11	 30	 31	  1	
13-Apr-2013	sub2309	2309	  1	  1	 53	  1	  1	  4	  4	  1	  1	  1	  0	0.34258	  0	0.70000	  0	 14	 42	 43	  1	
13-Apr-2013	sub2309	2309	  1	  1	 54	  1	  1	  2	  2	  3	  1	  2	  1	0.37720	  1	0.70000	  0	 12	 30	 31	  1	
13-Apr-2013	sub2309	2309	  1	  1	 55	  1	  1	  4	  4	  1	  1	  2	  1	0.29886	  1	0.70000	  0	 14	 32	 33	  1	
13-Apr-2013	sub2309	2309	  1	  1	 56	  1	  1	  6	  6	  6	  0	  1	  1	0.32816	  0	0.70000	  0	 16	 47	 38	  1	
13-Apr-2013	sub2309	2309	  1	  1	 57	  1	  1	  1	  5	  6	  1	  2	  0	0.24556	  0	0.70000	  0	 11	 40	 41	  1	
13-Apr-2013	sub2309	2309	  1	  1	 58	  1	  1	  2	  2	  3	  1	  1	  0	0.16352	  0	0.70000	  0	 12	 40	 41	  1	
13-Apr-2013	sub2309	2309	  1	  1	 59	  1	  1	  5	  1	  1	  1	  2	  0	0.29838	  0	0.70000	  0	 15	 45	 46	  1	
13-Apr-2013	sub2309	2309	  1	  1	 60	  1	  1	  2	  2	  3	  1	  2	  1	0.33983	  1	0.70000	  0	 12	 30	 31	  1	
13-Apr-2013	sub2309	2309	  1	  1	 61	  1	  1	  4	  4	  1	  1	  1	  0	0.44105	  0	0.60000	  0	 14	 42	 43	  1	
13-Apr-2013	sub2309	2309	  1	  1	 62	  1	  1	  6	  6	  6	  1	  2	  1	0.48088	  1	0.60000	  0	 16	 35	 36	  1	
13-Apr-2013	sub2309	2309	  1	  1	 63	  1	  1	  1	  5	  6	  1	  2	  0	0.35541	  0	0.60000	  0	 11	 40	 41	  1	
13-Apr-2013	sub2309	2309	  1	  1	 64	  1	  1	  2	  2	  3	  1	  2	  1	0.45174	  1	0.60000	  0	 12	 30	 31	  1	
13-Apr-2013	sub2309	2309	  1	  1	 65	  1	  1	  5	  1	  1	  0	  2	  1	0.48415	  0	0.60000	  0	 15	 47	 38	  1	
13-Apr-2013	sub2309	2309	  1	  1	 66	  1	  1	  4	  4	  1	  1	  2	  1	0.36822	  1	0.60000	  0	 14	 32	 33	  1	
13-Apr-2013	sub2309	2309	  1	  1	 67	  1	  1	  6	  6	  6	  1	  1	  0	0.50336	  0	0.60000	  0	 16	 45	 46	  0	
13-Apr-2013	sub2309	2309	  1	  1	 68	  1	  1	  2	  2	  3	  1	  2	  1	0.30797	  1	0.60000	  0	 12	 30	 31	  1	
13-Apr-2013	sub2309	2309	  1	  1	 69	  1	  1	  5	  1	  1	  1	  2	  0	0.28538	  0	0.60000	  0	 15	 45	 46	  1	
13-Apr-2013	sub2309	2309	  1	  1	 70	  1	  1	  6	  6	  6	  1	  2	  1	0.28906	  1	0.60000	  0	 16	 35	 36	  1	
13-Apr-2013	sub2309	2309	  1	  1	 71	  1	  1	  1	  5	  6	  1	  2	  0	0.38487	  0	0.60000	  0	 11	 40	 41	  1	
13-Apr-2013	sub2309	2309	  1	  1	 72	  1	  1	  3	  3	  3	  1	  1	  1	0.43275	  1	0.60000	  0	 13	 32	 33	  1	
13-Apr-2013	sub2309	2309	  1	  1	 73	  1	  1	  3	  3	  3	  1	  1	  1	0.33858	  1	0.60000	  0	 13	 32	 33	  1	
13-Apr-2013	sub2309	2309	  1	  1	 74	  1	  1	  4	  4	  1	  1	  2	  1	0.49798	  1	0.60000	  0	 14	 32	 33	  1	
13-Apr-2013	sub2309	2309	  1	  1	 75	  1	  1	  5	  1	  1	  0	  2	  1	0.43607	  0	0.60000	  0	 15	 47	 38	  1	
13-Apr-2013	sub2309	2309	  1	  1	  1	  2	  1	  4	  2	  6	  1	  1	  0	0.42512	  0	0.60000	  0	 14	 42	 43	  1	
13-Apr-2013	sub2309	2309	  1	  1	  2	  2	  1	  2	  1	  4	  1	  1	  0	0.64608	  0	0.30000	  1	 12	 40	 51	  0	
13-Apr-2013	sub2309	2309	  1	  1	  3	  2	  1	  3	  6	  1	  1	  1	  1	0.39146	  1	0.90000	  0	 13	 32	 33	  1	
13-Apr-2013	sub2309	2309	  1	  1	  4	  2	  1	  5	  4	  4	  1	  1	  1	0.39862	  1	0.90000	  0	 15	 35	 36	  1	
13-Apr-2013	sub2309	2309	  1	  1	  5	  2	  1	  5	  4	  4	  0	  1	  0	0.49067	  1	0.90000	  0	 15	 37	 48	  1	
13-Apr-2013	sub2309	2309	  1	  1	  6	  2	  1	  1	  3	  6	  1	  1	  1	0.50178	  1	0.90000	  0	 11	 30	 31	  0	
13-Apr-2013	sub2309	2309	  1	  1	  7	  2	  1	  5	  4	  4	  0	  2	  1	0.57996	  0	0.90000	  0	 15	 47	 38	  0	
13-Apr-2013	sub2309	2309	  1	  1	  8	  2	  1	  3	  6	  1	  1	  1	  1	0.56339	  1	0.90000	  0	 13	 32	 33	  0	
13-Apr-2013	sub2309	2309	  1	  1	  9	  2	  1	  6	  5	  1	  0	  2	  0	0.54327	  1	0.90000	  0	 16	 37	 48	  0	
13-Apr-2013	sub2309	2309	  1	  1	 10	  2	  1	  6	  5	  1	  0	  2	  0	0.61012	  1	0.90000	  0	 16	 37	 48	  0	
13-Apr-2013	sub2309	2309	  1	  1	 11	  2	  1	  1	  3	  6	  1	  1	  1	0.55569	  1	0.90000	  0	 11	 30	 31	  0	
13-Apr-2013	sub2309	2309	  1	  1	 12	  2	  1	  2	  1	  4	  1	  2	  1	0.65685	  1	0.90000	  0	 12	 30	 31	  0	
13-Apr-2013	sub2309	2309	  1	  1	 13	  2	  1	  6	  5	  1	  0	  2	  0	0.69303	  1	0.90000	  0	 16	 37	 48	  0	
13-Apr-2013	sub2309	2309	  1	  1	 14	  2	  1	  2	  1	  4	  1	  2	  1	0.60793	  1	0.90000	  0	 12	 30	 31	  0	
13-Apr-2013	sub2309	2309	  1	  1	 15	  2	  1	  4	  2	  6	  1	  2	  1	0.67993	  1	0.90000	  0	 14	 32	 33	  0	
13-Apr-2013	sub2309	2309	  1	  1	 16	  2	  1	  2	  1	  4	  1	  2	  1	0.61131	  1	0.80000	  0	 12	 30	 31	  0	
13-Apr-2013	sub2309	2309	  1	  1	 17	  2	  1	  3	  6	  1	  0	  1	  0	0.55827	  1	0.80000	  0	 13	 34	 49	  0	
13-Apr-2013	sub2309	2309	  1	  1	 18	  2	  1	  6	  5	  1	  1	  2	  1	0.51942	  1	0.70000	  0	 16	 35	 36	  0	
13-Apr-2013	sub2309	2309	  1	  1	 19	  2	  1	  6	  5	  1	  0	  2	  0	0.47295	  1	0.70000	  0	 16	 37	 48	  1	
13-Apr-2013	sub2309	2309	  1	  1	 20	  2	  1	  6	  5	  1	  1	  2	  1	0.41655	  1	0.70000	  0	 16	 35	 36	  1	
13-Apr-2013	sub2309	2309	  1	  1	 21	  2	  1	  2	  1	  4	  1	  2	  1	0.58914	  1	0.60000	  0	 12	 30	 31	  0	
13-Apr-2013	sub2309	2309	  1	  1	 22	  2	  1	  2	  1	  4	  1	  2	  1	0.41083	  1	0.60000	  0	 12	 30	 31	  1	
13-Apr-2013	sub2309	2309	  1	  1	 23	  2	  1	  4	  2	  6	  0	  1	  1	0.59172	  0	0.60000	  0	 14	 44	 39	  0	
13-Apr-2013	sub2309	2309	  1	  1	 24	  2	  1	  6	  5	  1	  0	  2	  0	0.53328	  1	0.60000	  0	 16	 37	 48	  0	
13-Apr-2013	sub2309	2309	  1	  1	 25	  2	  1	  2	  1	  4	  1	  2	  1	0.54043	  1	0.60000	  0	 12	 30	 31	  0	
13-Apr-2013	sub2309	2309	  1	  1	 26	  2	  1	  5	  4	  4	  1	  2	  0	0.75040	  0	0.50000	  1	 15	 45	 51	  0	
13-Apr-2013	sub2309	2309	  1	  1	 27	  2	  1	  4	  2	  6	  1	  2	  1	0.41108	  1	0.90000	  0	 14	 32	 33	  1	
13-Apr-2013	sub2309	2309	  1	  1	 28	  2	  1	  1	  3	  6	  1	  1	  1	0.58702	  1	0.90000	  0	 11	 30	 31	  0	
13-Apr-2013	sub2309	2309	  1	  1	 29	  2	  1	  1	  3	  6	  1	  1	  1	0.41065	  1	0.90000	  0	 11	 30	 31	  1	
13-Apr-2013	sub2309	2309	  1	  1	 30	  2	  1	  6	  5	  1	  1	  1	  0	0.50144	  0	0.80000	  0	 16	 45	 46	  0	
13-Apr-2013	sub2309	2309	  1	  1	 31	  2	  1	  5	  4	  4	  0	  2	  1	0.50918	  0	0.80000	  0	 15	 47	 38	  0	
13-Apr-2013	sub2309	2309	  1	  1	 32	  2	  1	  2	  1	  4	  1	  2	  1	0.51535	  1	0.80000	  0	 12	 30	 31	  0	
13-Apr-2013	sub2309	2309	  1	  1	 33	  2	  1	  3	  6	  1	  1	  2	  0	0.55861	  0	0.80000	  0	 13	 42	 43	  0	
13-Apr-2013	sub2309	2309	  1	  1	 34	  2	  1	  1	  3	  6	  1	  2	  0	0.63671	  0	0.80000	  0	 11	 40	 41	  0	
13-Apr-2013	sub2309	2309	  1	  1	 35	  2	  1	  2	  1	  4	  1	  2	  1	0.52917	  1	0.70000	  0	 12	 30	 31	  0	
13-Apr-2013	sub2309	2309	  1	  1	 36	  2	  1	  4	  2	  6	  1	  2	  1	0.55360	  1	0.70000	  0	 14	 32	 33	  0	
13-Apr-2013	sub2309	2309	  1	  1	 37	  2	  1	  4	  2	  6	  1	  2	  1	0.44183	  1	0.70000	  0	 14	 32	 33	  1	
13-Apr-2013	sub2309	2309	  1	  1	 38	  2	  1	  4	  2	  6	  0	  2	  0	0.43816	  1	0.70000	  0	 14	 34	 49	  1	
13-Apr-2013	sub2309	2309	  1	  1	 39	  2	  1	  5	  4	  4	  1	  2	  0	0.53071	  0	0.70000	  0	 15	 45	 46	  0	
13-Apr-2013	sub2309	2309	  1	  1	 40	  2	  1	  6	  5	  1	  1	  2	  1	0.57203	  1	0.70000	  0	 16	 35	 36	  0	
13-Apr-2013	sub2309	2309	  1	  1	 41	  2	  1	  3	  6	  1	  0	  1	  0	0.48847	  1	0.60000	  0	 13	 34	 49	  1	
13-Apr-2013	sub2309	2309	  1	  1	 42	  2	  1	  6	  5	  1	  1	  2	  1	0.46753	  1	0.60000	  0	 16	 35	 36	  1	
13-Apr-2013	sub2309	2309	  1	  1	 43	  2	  1	  4	  2	  6	  1	  2	  1	0.52335	  1	0.60000	  0	 14	 32	 33	  0	
13-Apr-2013	sub2309	2309	  1	  1	 44	  2	  1	  4	  2	  6	  1	  2	  1	0.46615	  1	0.60000	  0	 14	 32	 33	  1	
13-Apr-2013	sub2309	2309	  1	  1	 45	  2	  1	  5	  4	  4	  0	  2	  1	0.62443	  0	0.60000	  1	 15	 47	 51	  0	
13-Apr-2013	sub2309	2309	  1	  1	 46	  2	  1	  1	  3	  6	  1	  1	  1	0.67742	  1	0.80000	  0	 11	 30	 31	  0	
13-Apr-2013	sub2309	2309	  1	  1	 47	  2	  1	  3	  6	  1	  1	  2	  0	0.61477	  0	0.80000	  0	 13	 42	 43	  0	
13-Apr-2013	sub2309	2309	  1	  1	 48	  2	  1	  5	  4	  4	  1	  2	  0	0.53453	  0	0.80000	  0	 15	 45	 46	  0	
13-Apr-2013	sub2309	2309	  1	  1	 49	  2	  1	  3	  6	  1	  1	  1	  1	0.54670	  1	0.80000	  0	 13	 32	 33	  0	
13-Apr-2013	sub2309	2309	  1	  1	 50	  2	  1	  5	  4	  4	  0	  1	  0	0.47393	  1	0.80000	  0	 15	 37	 48	  1	
13-Apr-2013	sub2309	2309	  1	  1	 51	  2	  1	  6	  5	  1	  1	  2	  1	0.54839	  1	0.70000	  0	 16	 35	 36	  0	
13-Apr-2013	sub2309	2309	  1	  1	 52	  2	  1	  5	  4	  4	  1	  1	  1	0.61815	  1	0.70000	  0	 15	 35	 36	  0	
13-Apr-2013	sub2309	2309	  1	  1	 53	  2	  1	  2	  1	  4	  1	  2	  1	0.46383	  1	0.70000	  0	 12	 30	 31	  1	
13-Apr-2013	sub2309	2309	  1	  1	 54	  2	  1	  1	  3	  6	  1	  1	  1	0.49436	  1	0.70000	  0	 11	 30	 31	  1	
13-Apr-2013	sub2309	2309	  1	  1	 55	  2	  1	  6	  5	  1	  0	  2	  0	0.46599	  1	0.70000	  0	 16	 37	 48	  1	
13-Apr-2013	sub2309	2309	  1	  1	 56	  2	  1	  5	  4	  4	  0	  1	  0	0.45722	  1	0.70000	  0	 15	 37	 48	  1	
13-Apr-2013	sub2309	2309	  1	  1	 57	  2	  1	  6	  5	  1	  0	  2	  0	0.52596	  1	0.70000	  0	 16	 37	 48	  0	
13-Apr-2013	sub2309	2309	  1	  1	 58	  2	  1	  3	  6	  1	  1	  1	  1	0.57175	  1	0.70000	  0	 13	 32	 33	  0	
13-Apr-2013	sub2309	2309	  1	  1	 59	  2	  1	  2	  1	  4	  1	  2	  1	0.51854	  1	0.70000	  0	 12	 30	 31	  0	
13-Apr-2013	sub2309	2309	  1	  1	 60	  2	  1	  3	  6	  1	  1	  1	  1	0.47436	  1	0.70000	  0	 13	 32	 33	  1	
13-Apr-2013	sub2309	2309	  1	  1	 61	  2	  1	  2	  1	  4	  1	  2	  1	0.51999	  1	0.60000	  0	 12	 30	 31	  0	
13-Apr-2013	sub2309	2309	  1	  1	 62	  2	  1	  1	  3	  6	  1	  1	  1	0.34775	  1	0.60000	  0	 11	 30	 31	  1	
13-Apr-2013	sub2309	2309	  1	  1	 63	  2	  1	  5	  4	  4	  1	  1	  1	0.44695	  1	0.60000	  0	 15	 35	 36	  1	
13-Apr-2013	sub2309	2309	  1	  1	 64	  2	  1	  4	  2	  6	  1	  1	  0	0.54336	  0	0.60000	  0	 14	 42	 43	  0	
13-Apr-2013	sub2309	2309	  1	  1	 65	  2	  1	  1	  3	  6	  1	  2	  0	0.36244	  0	0.60000	  0	 11	 40	 41	  1	
13-Apr-2013	sub2309	2309	  1	  1	 66	  2	  1	  3	  6	  1	  1	  1	  1	0.48644	  1	0.60000	  0	 13	 32	 33	  1	
13-Apr-2013	sub2309	2309	  1	  1	 67	  2	  1	  3	  6	  1	  1	  1	  1	0.52967	  1	0.60000	  0	 13	 32	 33	  0	
13-Apr-2013	sub2309	2309	  1	  1	 68	  2	  1	  1	  3	  6	  1	  1	  1	0.42314	  1	0.60000	  0	 11	 30	 31	  1	
13-Apr-2013	sub2309	2309	  1	  1	 69	  2	  1	  1	  3	  6	  1	  1	  1	0.33856	  1	0.60000	  0	 11	 30	 31	  1	
13-Apr-2013	sub2309	2309	  1	  1	 70	  2	  1	  1	  3	  6	  1	  1	  1	0.35344	  1	0.60000	  0	 11	 30	 31	  1	
13-Apr-2013	sub2309	2309	  1	  1	 71	  2	  1	  4	  2	  6	  1	  2	  1	0.43534	  1	0.60000	  0	 14	 32	 33	  1	
13-Apr-2013	sub2309	2309	  1	  1	 72	  2	  1	  2	  1	  4	  1	  2	  1	0.55739	  1	0.60000	  0	 12	 30	 31	  0	
13-Apr-2013	sub2309	2309	  1	  1	 73	  2	  1	  4	  2	  6	  1	  2	  1	0.44803	  1	0.60000	  0	 14	 32	 33	  1	
13-Apr-2013	sub2309	2309	  1	  1	 74	  2	  1	  3	  6	  1	  1	  1	  1	0.48110	  1	0.60000	  0	 13	 32	 33	  1	
13-Apr-2013	sub2309	2309	  1	  1	 75	  2	  1	  3	  6	  1	  0	  1	  0	0.52844	  1	0.60000	  0	 13	 34	 49	  0	
13-Apr-2013	sub2309	2309	  1	  1	 76	  2	  2	  6	  5	  1	  0	  2	  0	0.48301	  1	0.50000	  0	 26	 67	 88	  1	
13-Apr-2013	sub2309	2309	  1	  1	 77	  2	  2	  6	  5	  1	  0	  1	  1	0.47434	  0	0.50000	  0	 26	 87	 68	  1	
13-Apr-2013	sub2309	2309	  1	  1	 78	  2	  2	  6	  5	  1	  0	  1	  1	0.46259	  0	0.50000	  0	 26	 87	 68	  1	
13-Apr-2013	sub2309	2309	  1	  1	 79	  2	  2	  6	  5	  1	  1	  1	  0	0.43026	  0	0.50000	  0	 26	 85	 86	  1	
13-Apr-2013	sub2309	2309	  1	  1	 80	  2	  2	  5	  4	  4	  0	  1	  0	0.64692	  1	0.50000	  1	 25	 67	 51	  0	
13-Apr-2013	sub2309	2309	  1	  1	 81	  2	  2	  5	  4	  4	  0	  1	  0	0.60781	  1	0.60000	  1	 25	 67	 51	  0	
13-Apr-2013	sub2309	2309	  1	  1	 82	  2	  2	  4	  2	  6	  0	  1	  1	0.53773	  0	0.80000	  0	 24	 84	 69	  0	
13-Apr-2013	sub2309	2309	  1	  1	 83	  2	  2	  6	  5	  1	  0	  1	  1	0.49409	  0	0.80000	  0	 26	 87	 68	  1	
13-Apr-2013	sub2309	2309	  1	  1	 84	  2	  2	  4	  2	  6	  1	  1	  0	0.60490	  0	0.80000	  0	 24	 82	 83	  0	
13-Apr-2013	sub2309	2309	  1	  1	 85	  2	  2	  1	  3	  6	  1	  1	  1	0.51619	  1	0.70000	  0	 21	 60	 61	  0	
13-Apr-2013	sub2309	2309	  1	  1	 86	  2	  2	  5	  4	  4	  0	  1	  0	0.41997	  1	0.70000	  0	 25	 67	 88	  1	
13-Apr-2013	sub2309	2309	  1	  1	 87	  2	  2	  5	  4	  4	  0	  2	  1	0.47115	  0	0.70000	  0	 25	 87	 68	  1	
13-Apr-2013	sub2309	2309	  1	  1	 88	  2	  2	  3	  6	  1	  0	  1	  0	0.50219	  1	0.70000	  0	 23	 64	 89	  0	
13-Apr-2013	sub2309	2309	  1	  1	 89	  2	  2	  3	  6	  1	  1	  2	  0	0.40214	  0	0.70000	  0	 23	 82	 83	  1	
13-Apr-2013	sub2309	2309	  1	  1	 90	  2	  2	  2	  1	  4	  1	  2	  1	0.38784	  1	0.70000	  0	 22	 60	 61	  1	
13-Apr-2013	sub2309	2309	  1	  1	 91	  2	  2	  2	  1	  4	  1	  2	  1	0.35816	  1	0.70000	  0	 22	 60	 61	  1	
13-Apr-2013	sub2309	2309	  1	  1	 92	  2	  2	  4	  2	  6	  1	  1	  0	0.51257	  0	0.70000	  0	 24	 82	 83	  0	
13-Apr-2013	sub2309	2309	  1	  1	 93	  2	  2	  1	  3	  6	  1	  1	  1	0.50774	  1	0.70000	  0	 21	 60	 61	  0	
13-Apr-2013	sub2309	2309	  1	  1	 94	  2	  2	  2	  1	  4	  1	  2	  1	0.43280	  1	0.70000	  0	 22	 60	 61	  1	
13-Apr-2013	sub2309	2309	  1	  1	 95	  2	  2	  2	  1	  4	  1	  2	  1	0.33471	  1	0.70000	  0	 22	 60	 61	  1	
13-Apr-2013	sub2309	2309	  1	  1	 96	  2	  2	  2	  1	  4	  1	  2	  1	0.35321	  1	0.70000	  0	 22	 60	 61	  1	
13-Apr-2013	sub2309	2309	  1	  1	 97	  2	  2	  2	  1	  4	  1	  2	  1	0.34518	  1	0.70000	  0	 22	 60	 61	  1	
13-Apr-2013	sub2309	2309	  1	  1	 98	  2	  2	  1	  3	  6	  1	  1	  1	0.47440	  1	0.70000	  0	 21	 60	 61	  1	
13-Apr-2013	sub2309	2309	  1	  1	 99	  2	  2	  2	  1	  4	  1	  2	  1	0.36767	  1	0.70000	  0	 22	 60	 61	  1	
13-Apr-2013	sub2309	2309	  1	  1	100	  2	  2	  3	  6	  1	  0	  1	  0	0.45489	  1	0.70000	  0	 23	 64	 89	  1	
13-Apr-2013	sub2309	2309	  1	  1	101	  2	  2	  2	  1	  4	  1	  2	  1	0.34791	  1	0.60000	  0	 22	 60	 61	  1	
13-Apr-2013	sub2309	2309	  1	  1	102	  2	  2	  5	  4	  4	  0	  1	  0	0.48756	  1	0.60000	  0	 25	 67	 88	  1	
13-Apr-2013	sub2309	2309	  1	  1	103	  2	  2	  4	  2	  6	  1	  2	  1	0.45813	  1	0.60000	  0	 24	 62	 63	  1	
13-Apr-2013	sub2309	2309	  1	  1	104	  2	  2	  5	  4	  4	  0	  2	  1	0.50466	  0	0.60000	  0	 25	 87	 68	  0	
13-Apr-2013	sub2309	2309	  1	  1	105	  2	  2	  6	  5	  1	  0	  2	  0	0.50264	  1	0.60000	  0	 26	 67	 88	  0	
13-Apr-2013	sub2309	2309	  1	  1	106	  2	  2	  4	  2	  6	  1	  2	  1	0.45721	  1	0.60000	  0	 24	 62	 63	  1	
13-Apr-2013	sub2309	2309	  1	  1	107	  2	  2	  1	  3	  6	  1	  1	  1	0.38101	  1	0.60000	  0	 21	 60	 61	  1	
13-Apr-2013	sub2309	2309	  1	  1	108	  2	  2	  5	  4	  4	  0	  2	  1	0.51977	  0	0.60000	  0	 25	 87	 68	  0	
13-Apr-2013	sub2309	2309	  1	  1	109	  2	  2	  3	  6	  1	  1	  1	  1	0.44398	  1	0.60000	  0	 23	 62	 63	  1	
13-Apr-2013	sub2309	2309	  1	  1	110	  2	  2	  1	  3	  6	  1	  2	  0	0.36497	  0	0.60000	  0	 21	 80	 81	  1	
13-Apr-2013	sub2309	2309	  1	  1	111	  2	  2	  3	  6	  1	  1	  2	  0	0.50411	  0	0.60000	  0	 23	 82	 83	  0	
13-Apr-2013	sub2309	2309	  1	  1	112	  2	  2	  4	  2	  6	  1	  2	  1	0.49688	  1	0.60000	  0	 24	 62	 63	  1	
13-Apr-2013	sub2309	2309	  1	  1	113	  2	  2	  4	  2	  6	  1	  2	  1	0.44581	  1	0.60000	  0	 24	 62	 63	  1	
13-Apr-2013	sub2309	2309	  1	  1	114	  2	  2	  4	  2	  6	  1	  2	  1	0.34105	  1	0.60000	  0	 24	 62	 63	  1	
13-Apr-2013	sub2309	2309	  1	  1	115	  2	  2	  4	  2	  6	  0	  2	  0	0.33150	  1	0.60000	  0	 24	 64	 89	  1	
13-Apr-2013	sub2309	2309	  1	  1	116	  2	  2	  6	  5	  1	  1	  1	  0	0.44099	  0	0.60000	  0	 26	 85	 86	  1	
13-Apr-2013	sub2309	2309	  1	  1	117	  2	  2	  6	  5	  1	  1	  1	  0	0.45285	  0	0.60000	  0	 26	 85	 86	  1	
13-Apr-2013	sub2309	2309	  1	  1	118	  2	  2	  2	  1	  4	  1	  2	  1	0.46048	  1	0.60000	  0	 22	 60	 61	  1	
13-Apr-2013	sub2309	2309	  1	  1	119	  2	  2	  5	  4	  4	  0	  2	  1	0.58638	  0	0.60000	  0	 25	 87	 68	  0	
13-Apr-2013	sub2309	2309	  1	  1	120	  2	  2	  1	  3	  6	  1	  2	  0	0.36880	  0	0.60000	  0	 21	 80	 81	  1	
13-Apr-2013	sub2309	2309	  1	  1	121	  2	  2	  1	  3	  6	  1	  1	  1	0.41589	  1	0.60000	  0	 21	 60	 61	  1	
13-Apr-2013	sub2309	2309	  1	  1	122	  2	  2	  1	  3	  6	  1	  1	  1	0.60213	  1	0.60000	  1	 21	 60	 51	  0	
13-Apr-2013	sub2309	2309	  1	  1	123	  2	  2	  2	  1	  4	  1	  2	  1	0.44131	  1	0.60000	  0	 22	 60	 61	  1	
13-Apr-2013	sub2309	2309	  1	  1	124	  2	  2	  6	  5	  1	  1	  1	  0	0.40405	  0	0.60000	  0	 26	 85	 86	  1	
13-Apr-2013	sub2309	2309	  1	  1	125	  2	  2	  5	  4	  4	  0	  2	  1	0.46145	  0	0.60000	  0	 25	 87	 68	  1	
13-Apr-2013	sub2309	2309	  1	  1	126	  2	  2	  1	  3	  6	  1	  1	  1	0.40404	  1	0.60000	  0	 21	 60	 61	  1	
13-Apr-2013	sub2309	2309	  1	  1	127	  2	  2	  1	  3	  6	  1	  1	  1	0.36449	  1	0.60000	  0	 21	 60	 61	  1	
13-Apr-2013	sub2309	2309	  1	  1	128	  2	  2	  5	  4	  4	  0	  2	  1	0.51818	  0	0.60000	  0	 25	 87	 68	  0	
13-Apr-2013	sub2309	2309	  1	  1	129	  2	  2	  5	  4	  4	  0	  2	  1	0.60254	  0	0.60000	  1	 25	 87	 51	  0	
13-Apr-2013	sub2309	2309	  1	  1	130	  2	  2	  1	  3	  6	  1	  1	  1	0.51866	  1	0.70000	  0	 21	 60	 61	  0	
13-Apr-2013	sub2309	2309	  1	  1	131	  2	  2	  6	  5	  1	  1	  2	  1	0.37282	  1	0.70000	  0	 26	 65	 66	  1	
13-Apr-2013	sub2309	2309	  1	  1	132	  2	  2	  1	  3	  6	  1	  1	  1	0.46171	  1	0.70000	  0	 21	 60	 61	  1	
13-Apr-2013	sub2309	2309	  1	  1	133	  2	  2	  6	  5	  1	  1	  2	  1	0.49006	  1	0.70000	  0	 26	 65	 66	  1	
13-Apr-2013	sub2309	2309	  1	  1	134	  2	  2	  3	  6	  1	  1	  1	  1	0.44681	  1	0.70000	  0	 23	 62	 63	  1	
13-Apr-2013	sub2309	2309	  1	  1	135	  2	  2	  3	  6	  1	  1	  1	  1	0.43959	  1	0.70000	  0	 23	 62	 63	  1	
13-Apr-2013	sub2309	2309	  1	  1	136	  2	  2	  4	  2	  6	  1	  2	  1	0.48411	  1	0.70000	  0	 24	 62	 63	  1	
13-Apr-2013	sub2309	2309	  1	  1	137	  2	  2	  4	  2	  6	  1	  2	  1	0.40386	  1	0.70000	  0	 24	 62	 63	  1	
13-Apr-2013	sub2309	2309	  1	  1	138	  2	  2	  3	  6	  1	  1	  1	  1	0.49649	  1	0.70000	  0	 23	 62	 63	  1	
13-Apr-2013	sub2309	2309	  1	  1	139	  2	  2	  5	  4	  4	  0	  2	  1	0.46432	  0	0.70000	  0	 25	 87	 68	  1	
13-Apr-2013	sub2309	2309	  1	  1	140	  2	  2	  1	  3	  6	  1	  1	  1	0.42569	  1	0.70000	  0	 21	 60	 61	  1	
13-Apr-2013	sub2309	2309	  1	  1	141	  2	  2	  4	  2	  6	  0	  2	  0	0.52140	  1	0.60000	  0	 24	 64	 89	  0	
13-Apr-2013	sub2309	2309	  1	  1	142	  2	  2	  6	  5	  1	  0	  2	  0	0.60386	  1	0.60000	  1	 26	 67	 51	  0	
13-Apr-2013	sub2309	2309	  1	  1	143	  2	  2	  4	  2	  6	  1	  2	  1	0.46369	  1	0.70000	  0	 24	 62	 63	  1	
13-Apr-2013	sub2309	2309	  1	  1	144	  2	  2	  2	  1	  4	  1	  1	  0	0.48454	  0	0.70000	  0	 22	 80	 81	  1	
13-Apr-2013	sub2309	2309	  1	  1	145	  2	  2	  5	  4	  4	  0	  2	  1	0.58834	  0	0.70000	  0	 25	 87	 68	  0	
13-Apr-2013	sub2309	2309	  1	  1	146	  2	  2	  3	  6	  1	  1	  1	  1	0.46072	  1	0.70000	  0	 23	 62	 63	  1	
13-Apr-2013	sub2309	2309	  1	  1	147	  2	  2	  3	  6	  1	  1	  1	  1	0.57487	  1	0.70000	  0	 23	 62	 63	  0	
13-Apr-2013	sub2309	2309	  1	  1	148	  2	  2	  3	  6	  1	  1	  1	  1	0.46217	  1	0.70000	  0	 23	 62	 63	  1	
13-Apr-2013	sub2309	2309	  1	  1	149	  2	  2	  3	  6	  1	  1	  1	  1	0.48156	  1	0.70000	  0	 23	 62	 63	  1	
13-Apr-2013	sub2309	2309	  1	  1	150	  2	  2	  2	  1	  4	  1	  2	  1	0.51004	  1	0.70000	  0	 22	 60	 61	  0	
13-Apr-2013	sub2309	2309	  1	  1	  1	  3	  1	  3	  5	  2	  1	  1	  1	0.36734	  1	0.60000	  0	 13	 32	 33	  1	
13-Apr-2013	sub2309	2309	  1	  1	  2	  3	  1	  5	  4	  6	  1	  2	  0	0.41214	  0	0.30000	  1	 15	 45	 51	  1	
13-Apr-2013	sub2309	2309	  1	  1	  3	  3	  1	  2	  2	  4	  1	  1	  0	0.41510	  0	0.90000	  0	 12	 40	 41	  1	
13-Apr-2013	sub2309	2309	  1	  1	  4	  3	  1	  4	  1	  2	  1	  1	  0	0.20795	  0	0.90000	  0	 14	 42	 43	  1	
13-Apr-2013	sub2309	2309	  1	  1	  5	  3	  1	  5	  4	  6	  0	  1	  0	0.00092	  1	0.90000	  0	 15	 37	 48	  1	
13-Apr-2013	sub2309	2309	  1	  1	  6	  3	  1	  2	  2	  4	  1	  1	  0	0.43709	  0	0.90000	  0	 12	 40	 41	  1	
13-Apr-2013	sub2309	2309	  1	  1	  7	  3	  1	  1	  3	  4	  1	  1	  1	0.54984	  1	0.90000	  0	 11	 30	 31	  0	
13-Apr-2013	sub2309	2309	  1	  1	  8	  3	  1	  3	  5	  2	  1	  1	  1	0.52424	  1	0.90000	  0	 13	 32	 33	  0	
13-Apr-2013	sub2309	2309	  1	  1	  9	  3	  1	  6	  6	  2	  0	  1	  1	0.46987	  0	0.90000	  0	 16	 47	 38	  1	
13-Apr-2013	sub2309	2309	  1	  1	 10	  3	  1	  2	  2	  4	  1	  2	  1	0.42361	  1	0.90000	  0	 12	 30	 31	  1	
13-Apr-2013	sub2309	2309	  1	  1	 11	  3	  1	  5	  4	  6	  0	  1	  0	0.38141	  1	0.90000	  0	 15	 37	 48	  1	
13-Apr-2013	sub2309	2309	  1	  1	 12	  3	  1	  1	  3	  4	  1	  2	  0	0.43497	  0	0.90000	  0	 11	 40	 41	  1	
13-Apr-2013	sub2309	2309	  1	  1	 13	  3	  1	  3	  5	  2	  1	  1	  1	0.52076	  1	0.90000	  0	 13	 32	 33	  0	
13-Apr-2013	sub2309	2309	  1	  1	 14	  3	  1	  6	  6	  2	  1	  2	  1	0.51224	  1	0.90000	  0	 16	 35	 36	  0	
13-Apr-2013	sub2309	2309	  1	  1	 15	  3	  1	  4	  1	  2	  1	  2	  1	0.49052	  1	0.90000	  0	 14	 32	 33	  1	
13-Apr-2013	sub2309	2309	  1	  1	 16	  3	  1	  4	  1	  2	  1	  2	  1	0.43227	  1	0.80000	  0	 14	 32	 33	  1	
13-Apr-2013	sub2309	2309	  1	  1	 17	  3	  1	  4	  1	  2	  0	  2	  0	0.36919	  1	0.80000	  0	 14	 34	 49	  1	
13-Apr-2013	sub2309	2309	  1	  1	 18	  3	  1	  4	  1	  2	  1	  2	  1	0.35287	  1	0.70000	  0	 14	 32	 33	  1	
13-Apr-2013	sub2309	2309	  1	  1	 19	  3	  1	  6	  6	  2	  1	  1	  0	0.46905	  0	0.70000	  0	 16	 45	 46	  1	
13-Apr-2013	sub2309	2309	  1	  1	 20	  3	  1	  5	  4	  6	  1	  2	  0	0.50379	  0	0.70000	  0	 15	 45	 46	  0	
13-Apr-2013	sub2309	2309	  1	  1	 21	  3	  1	  1	  3	  4	  1	  2	  0	0.60048	  0	0.60000	  1	 11	 40	 51	  0	
13-Apr-2013	sub2309	2309	  1	  1	 22	  3	  1	  4	  1	  2	  1	  2	  1	0.51818	  1	0.90000	  0	 14	 32	 33	  0	
13-Apr-2013	sub2309	2309	  1	  1	 23	  3	  1	  1	  3	  4	  1	  2	  0	0.56594	  0	0.90000	  0	 11	 40	 41	  0	
13-Apr-2013	sub2309	2309	  1	  1	 24	  3	  1	  4	  1	  2	  0	  2	  0	0.47256	  1	0.90000	  0	 14	 34	 49	  1	
13-Apr-2013	sub2309	2309	  1	  1	 25	  3	  1	  5	  4	  6	  0	  1	  0	0.54640	  1	0.90000	  0	 15	 37	 48	  0	
13-Apr-2013	sub2309	2309	  1	  1	 26	  3	  1	  2	  2	  4	  1	  2	  1	0.46266	  1	0.90000	  0	 12	 30	 31	  1	
13-Apr-2013	sub2309	2309	  1	  1	 27	  3	  1	  6	  6	  2	  0	  2	  0	0.59314	  1	0.90000	  0	 16	 37	 48	  0	
13-Apr-2013	sub2309	2309	  1	  1	 28	  3	  1	  5	  4	  6	  1	  2	  0	0.53065	  0	0.90000	  0	 15	 45	 46	  0	
13-Apr-2013	sub2309	2309	  1	  1	 29	  3	  1	  4	  1	  2	  1	  2	  1	0.48745	  1	0.90000	  0	 14	 32	 33	  1	
13-Apr-2013	sub2309	2309	  1	  1	 30	  3	  1	  3	  5	  2	  0	  1	  0	0.41817	  1	0.80000	  0	 13	 34	 49	  1	
13-Apr-2013	sub2309	2309	  1	  1	 31	  3	  1	  6	  6	  2	  1	  1	  0	0.47505	  0	0.80000	  0	 16	 45	 46	  1	
13-Apr-2013	sub2309	2309	  1	  1	 32	  3	  1	  3	  5	  2	  0	  2	  1	0.60699	  0	0.80000	  0	 13	 44	 39	  0	
13-Apr-2013	sub2309	2309	  1	  1	 33	  3	  1	  1	  3	  4	  1	  2	  0	0.62629	  0	0.80000	  0	 11	 40	 41	  0	
13-Apr-2013	sub2309	2309	  1	  1	 34	  3	  1	  3	  5	  2	  1	  1	  1	0.57792	  1	0.80000	  0	 13	 32	 33	  0	
13-Apr-2013	sub2309	2309	  1	  1	 35	  3	  1	  6	  6	  2	  0	  2	  0	0.54716	  1	0.70000	  0	 16	 37	 48	  0	
13-Apr-2013	sub2309	2309	  1	  1	 36	  3	  1	  6	  6	  2	  0	  2	  0	0.45543	  1	0.70000	  0	 16	 37	 48	  1	
13-Apr-2013	sub2309	2309	  1	  1	 37	  3	  1	  3	  5	  2	  1	  2	  0	0.61639	  0	0.70000	  0	 13	 42	 43	  0	
13-Apr-2013	sub2309	2309	  1	  1	 38	  3	  1	  1	  3	  4	  1	  1	  1	0.44203	  1	0.70000	  0	 11	 30	 31	  1	
13-Apr-2013	sub2309	2309	  1	  1	 39	  3	  1	  1	  3	  4	  1	  1	  1	0.46720	  1	0.70000	  0	 11	 30	 31	  1	
13-Apr-2013	sub2309	2309	  1	  1	 40	  3	  1	  4	  1	  2	  1	  2	  1	0.57147	  1	0.70000	  0	 14	 32	 33	  0	
13-Apr-2013	sub2309	2309	  1	  1	 41	  3	  1	  3	  5	  2	  0	  2	  1	0.43020	  0	0.60000	  0	 13	 44	 39	  1	
13-Apr-2013	sub2309	2309	  1	  1	 42	  3	  1	  6	  6	  2	  0	  2	  0	0.65172	  1	0.60000	  1	 16	 37	 51	  0	
13-Apr-2013	sub2309	2309	  1	  1	 43	  3	  1	  2	  2	  4	  1	  2	  1	0.45349	  1	0.90000	  0	 12	 30	 31	  1	
13-Apr-2013	sub2309	2309	  1	  1	 44	  3	  1	  2	  2	  4	  1	  2	  1	0.40600	  1	0.80000	  0	 12	 30	 31	  1	
13-Apr-2013	sub2309	2309	  1	  1	 45	  3	  1	  5	  4	  6	  0	  2	  1	0.24107	  0	0.80000	  0	 15	 47	 38	  1	
13-Apr-2013	sub2309	2309	  1	  1	 46	  3	  1	  6	  6	  2	  0	  1	  1	0.55575	  0	0.80000	  0	 16	 47	 38	  0	
13-Apr-2013	sub2309	2309	  1	  1	 47	  3	  1	  6	  6	  2	  1	  1	  0	0.46086	  0	0.80000	  0	 16	 45	 46	  1	
13-Apr-2013	sub2309	2309	  1	  1	 48	  3	  1	  4	  1	  2	  1	  2	  1	0.52270	  1	0.80000	  0	 14	 32	 33	  0	
13-Apr-2013	sub2309	2309	  1	  1	 49	  3	  1	  2	  2	  4	  1	  2	  1	0.50985	  1	0.80000	  0	 12	 30	 31	  0	
13-Apr-2013	sub2309	2309	  1	  1	 50	  3	  1	  2	  2	  4	  1	  2	  1	0.41169	  1	0.80000	  0	 12	 30	 31	  1	
13-Apr-2013	sub2309	2309	  1	  1	 51	  3	  1	  3	  5	  2	  1	  1	  1	0.56914	  1	0.70000	  0	 13	 32	 33	  0	
13-Apr-2013	sub2309	2309	  1	  1	 52	  3	  1	  2	  2	  4	  1	  2	  1	0.42355	  1	0.70000	  0	 12	 30	 31	  1	
13-Apr-2013	sub2309	2309	  1	  1	 53	  3	  1	  2	  2	  4	  1	  2	  1	0.47777	  1	0.70000	  0	 12	 30	 31	  1	
13-Apr-2013	sub2309	2309	  1	  1	 54	  3	  1	  3	  5	  2	  1	  1	  1	0.56193	  1	0.70000	  0	 13	 32	 33	  0	
13-Apr-2013	sub2309	2309	  1	  1	 55	  3	  1	  5	  4	  6	  1	  2	  0	0.41459	  0	0.70000	  0	 15	 45	 46	  1	
13-Apr-2013	sub2309	2309	  1	  1	 56	  3	  1	  6	  6	  2	  0	  2	  0	0.48022	  1	0.70000	  0	 16	 37	 48	  1	
13-Apr-2013	sub2309	2309	  1	  1	 57	  3	  1	  1	  3	  4	  1	  1	  1	0.59797	  1	0.70000	  0	 11	 30	 31	  0	
13-Apr-2013	sub2309	2309	  1	  1	 58	  3	  1	  1	  3	  4	  1	  1	  1	0.45606	  1	0.70000	  0	 11	 30	 31	  1	
13-Apr-2013	sub2309	2309	  1	  1	 59	  3	  1	  2	  2	  4	  1	  1	  0	0.50055	  0	0.70000	  0	 12	 40	 41	  0	
13-Apr-2013	sub2309	2309	  1	  1	 60	  3	  1	  4	  1	  2	  1	  2	  1	0.65001	  1	0.70000	  0	 14	 32	 33	  0	
13-Apr-2013	sub2309	2309	  1	  1	 61	  3	  1	  5	  4	  6	  0	  1	  0	0.55640	  1	0.60000	  0	 15	 37	 48	  0	
13-Apr-2013	sub2309	2309	  1	  1	 62	  3	  1	  2	  2	  4	  1	  2	  1	0.47787	  1	0.60000	  0	 12	 30	 31	  1	
13-Apr-2013	sub2309	2309	  1	  1	 63	  3	  1	  5	  4	  6	  1	  1	  1	0.45396	  1	0.60000	  0	 15	 35	 36	  1	
13-Apr-2013	sub2309	2309	  1	  1	 64	  3	  1	  3	  5	  2	  1	  2	  0	0.59230	  0	0.60000	  0	 13	 42	 43	  0	
13-Apr-2013	sub2309	2309	  1	  1	 65	  3	  1	  5	  4	  6	  1	  1	  1	0.37674	  1	0.60000	  0	 15	 35	 36	  1	
13-Apr-2013	sub2309	2309	  1	  1	 66	  3	  1	  1	  3	  4	  1	  1	  1	0.48726	  1	0.60000	  0	 11	 30	 31	  1	
13-Apr-2013	sub2309	2309	  1	  1	 67	  3	  1	  2	  2	  4	  1	  2	  1	0.52623	  1	0.60000	  0	 12	 30	 31	  0	
13-Apr-2013	sub2309	2309	  1	  1	 68	  3	  1	  6	  6	  2	  0	  2	  0	0.49616	  1	0.60000	  0	 16	 37	 48	  1	
13-Apr-2013	sub2309	2309	  1	  1	 69	  3	  1	  1	  3	  4	  1	  1	  1	0.46796	  1	0.60000	  0	 11	 30	 31	  1	
13-Apr-2013	sub2309	2309	  1	  1	 70	  3	  1	  6	  6	  2	  1	  1	  0	0.39580	  0	0.60000	  0	 16	 45	 46	  1	
13-Apr-2013	sub2309	2309	  1	  1	 71	  3	  1	  5	  4	  6	  1	  2	  0	0.35284	  0	0.60000	  0	 15	 45	 46	  1	
13-Apr-2013	sub2309	2309	  1	  1	 72	  3	  1	  4	  1	  2	  1	  2	  1	0.49908	  1	0.60000	  0	 14	 32	 33	  1	
13-Apr-2013	sub2309	2309	  1	  1	 73	  3	  1	  1	  3	  4	  1	  1	  1	0.42738	  1	0.60000	  0	 11	 30	 31	  1	
13-Apr-2013	sub2309	2309	  1	  1	 74	  3	  1	  3	  5	  2	  1	  1	  1	0.41751	  1	0.60000	  0	 13	 32	 33	  1	
13-Apr-2013	sub2309	2309	  1	  1	 75	  3	  1	  3	  5	  2	  1	  1	  1	0.46961	  1	0.60000	  0	 13	 32	 33	  1	
13-Apr-2013	sub2309	2309	  1	  1	 76	  3	  2	  4	  1	  2	  1	  1	  0	0.30414	  0	0.50000	  0	 24	 82	 83	  1	
13-Apr-2013	sub2309	2309	  1	  1	 77	  3	  2	  5	  4	  6	  0	  1	  0	0.48287	  1	0.50000	  0	 25	 67	 88	  1	
13-Apr-2013	sub2309	2309	  1	  1	 78	  3	  2	  6	  6	  2	  1	  2	  1	0.44461	  1	0.50000	  0	 26	 65	 66	  1	
13-Apr-2013	sub2309	2309	  1	  1	 79	  3	  2	  6	  6	  2	  1	  2	  1	0.40801	  1	0.50000	  0	 26	 65	 66	  1	
13-Apr-2013	sub2309	2309	  1	  1	 80	  3	  2	  2	  2	  4	  1	  2	  1	0.60148	  1	0.50000	  1	 22	 60	 51	  0	
13-Apr-2013	sub2309	2309	  1	  1	 81	  3	  2	  5	  4	  6	  0	  2	  1	0.36394	  0	0.60000	  0	 25	 87	 68	  1	
13-Apr-2013	sub2309	2309	  1	  1	 82	  3	  2	  3	  5	  2	  0	  1	  0	0.50548	  1	0.60000	  0	 23	 64	 89	  0	
13-Apr-2013	sub2309	2309	  1	  1	 83	  3	  2	  2	  2	  4	  1	  2	  1	0.41656	  1	0.60000	  0	 22	 60	 61	  1	
13-Apr-2013	sub2309	2309	  1	  1	 84	  3	  2	  1	  3	  4	  1	  2	  0	0.43292	  0	0.60000	  0	 21	 80	 81	  1	
13-Apr-2013	sub2309	2309	  1	  1	 85	  3	  2	  2	  2	  4	  1	  2	  1	0.47765	  1	0.60000	  0	 22	 60	 61	  1	
13-Apr-2013	sub2309	2309	  1	  1	 86	  3	  2	  2	  2	  4	  1	  2	  1	0.52167	  1	0.60000	  0	 22	 60	 61	  0	
13-Apr-2013	sub2309	2309	  1	  1	 87	  3	  2	  3	  5	  2	  1	  1	  1	0.45973	  1	0.60000	  0	 23	 62	 63	  1	
13-Apr-2013	sub2309	2309	  1	  1	 88	  3	  2	  3	  5	  2	  1	  1	  1	0.47583	  1	0.60000	  0	 23	 62	 63	  1	
13-Apr-2013	sub2309	2309	  1	  1	 89	  3	  2	  2	  2	  4	  1	  2	  1	0.51267	  1	0.60000	  0	 22	 60	 61	  0	
13-Apr-2013	sub2309	2309	  1	  1	 90	  3	  2	  4	  1	  2	  1	  2	  1	0.54360	  1	0.60000	  0	 24	 62	 63	  0	
13-Apr-2013	sub2309	2309	  1	  1	 91	  3	  2	  5	  4	  6	  0	  2	  1	0.76439	  0	0.60000	  1	 25	 87	 51	  0	
13-Apr-2013	sub2309	2309	  1	  1	 92	  3	  2	  6	  6	  2	  0	  2	  0	0.48289	  1	0.70000	  0	 26	 67	 88	  1	
13-Apr-2013	sub2309	2309	  1	  1	 93	  3	  2	  5	  4	  6	  0	  2	  1	0.44951	  0	0.70000	  0	 25	 87	 68	  1	
13-Apr-2013	sub2309	2309	  1	  1	 94	  3	  2	  5	  4	  6	  0	  2	  1	0.36026	  0	0.70000	  0	 25	 87	 68	  1	
13-Apr-2013	sub2309	2309	  1	  1	 95	  3	  2	  1	  3	  4	  1	  1	  1	0.45975	  1	0.70000	  0	 21	 60	 61	  1	
13-Apr-2013	sub2309	2309	  1	  1	 96	  3	  2	  3	  5	  2	  1	  2	  0	0.40576	  0	0.70000	  0	 23	 82	 83	  1	
13-Apr-2013	sub2309	2309	  1	  1	 97	  3	  2	  1	  3	  4	  1	  2	  0	0.61842	  0	0.70000	  0	 21	 80	 81	  0	
13-Apr-2013	sub2309	2309	  1	  1	 98	  3	  2	  4	  1	  2	  0	  1	  1	0.40127	  0	0.70000	  0	 24	 84	 69	  1	
13-Apr-2013	sub2309	2309	  1	  1	 99	  3	  2	  3	  5	  2	  1	  2	  0	0.43739	  0	0.70000	  0	 23	 82	 83	  1	
13-Apr-2013	sub2309	2309	  1	  1	100	  3	  2	  6	  6	  2	  1	  1	  0	0.54233	  0	0.70000	  0	 26	 85	 86	  0	
13-Apr-2013	sub2309	2309	  1	  1	101	  3	  2	  5	  4	  6	  0	  2	  1	0.47953	  0	0.60000	  0	 25	 87	 68	  1	
13-Apr-2013	sub2309	2309	  1	  1	102	  3	  2	  3	  5	  2	  1	  2	  0	0.41926	  0	0.60000	  0	 23	 82	 83	  1	
13-Apr-2013	sub2309	2309	  1	  1	103	  3	  2	  4	  1	  2	  0	  2	  0	0.49118	  1	0.60000	  0	 24	 64	 89	  1	
13-Apr-2013	sub2309	2309	  1	  1	104	  3	  2	  6	  6	  2	  0	  1	  1	0.44886	  0	0.60000	  0	 26	 87	 68	  1	
13-Apr-2013	sub2309	2309	  1	  1	105	  3	  2	  1	  3	  4	  1	  1	  1	0.51523	  1	0.60000	  0	 21	 60	 61	  0	
13-Apr-2013	sub2309	2309	  1	  1	106	  3	  2	  6	  6	  2	  0	  1	  1	0.48218	  0	0.60000	  0	 26	 87	 68	  1	
13-Apr-2013	sub2309	2309	  1	  1	107	  3	  2	  3	  5	  2	  1	  1	  1	0.64380	  1	0.60000	  1	 23	 62	 51	  0	
13-Apr-2013	sub2309	2309	  1	  1	108	  3	  2	  2	  2	  4	  1	  2	  1	0.49841	  1	0.70000	  0	 22	 60	 61	  1	
13-Apr-2013	sub2309	2309	  1	  1	109	  3	  2	  4	  1	  2	  1	  2	  1	0.47684	  1	0.70000	  0	 24	 62	 63	  1	
13-Apr-2013	sub2309	2309	  1	  1	110	  3	  2	  5	  4	  6	  0	  1	  0	0.39999	  1	0.70000	  0	 25	 67	 88	  1	
13-Apr-2013	sub2309	2309	  1	  1	111	  3	  2	  6	  6	  2	  0	  2	  0	0.53056	  1	0.70000	  0	 26	 67	 88	  0	
13-Apr-2013	sub2309	2309	  1	  1	112	  3	  2	  5	  4	  6	  0	  2	  1	0.40226	  0	0.70000	  0	 25	 87	 68	  1	
13-Apr-2013	sub2309	2309	  1	  1	113	  3	  2	  5	  4	  6	  0	  2	  1	0.38714	  0	0.70000	  0	 25	 87	 68	  1	
13-Apr-2013	sub2309	2309	  1	  1	114	  3	  2	  1	  3	  4	  1	  2	  0	0.45436	  0	0.70000	  0	 21	 80	 81	  1	
13-Apr-2013	sub2309	2309	  1	  1	115	  3	  2	  3	  5	  2	  0	  1	  0	0.49000	  1	0.70000	  0	 23	 64	 89	  1	
13-Apr-2013	sub2309	2309	  1	  1	116	  3	  2	  4	  1	  2	  1	  2	  1	0.50374	  1	0.70000	  0	 24	 62	 63	  0	
13-Apr-2013	sub2309	2309	  1	  1	117	  3	  2	  3	  5	  2	  1	  1	  1	0.42772	  1	0.70000	  0	 23	 62	 63	  1	
13-Apr-2013	sub2309	2309	  1	  1	118	  3	  2	  6	  6	  2	  0	  2	  0	0.46082	  1	0.70000	  0	 26	 67	 88	  1	
13-Apr-2013	sub2309	2309	  1	  1	119	  3	  2	  2	  2	  4	  1	  2	  1	0.55817	  1	0.70000	  0	 22	 60	 61	  0	
13-Apr-2013	sub2309	2309	  1	  1	120	  3	  2	  2	  2	  4	  1	  2	  1	0.47959	  1	0.70000	  0	 22	 60	 61	  1	
13-Apr-2013	sub2309	2309	  1	  1	121	  3	  2	  3	  5	  2	  1	  1	  1	0.48495	  1	0.60000	  0	 23	 62	 63	  1	
13-Apr-2013	sub2309	2309	  1	  1	122	  3	  2	  4	  1	  2	  1	  2	  1	0.51948	  1	0.60000	  0	 24	 62	 63	  0	
13-Apr-2013	sub2309	2309	  1	  1	123	  3	  2	  5	  4	  6	  0	  2	  1	0.43285	  0	0.60000	  0	 25	 87	 68	  1	
13-Apr-2013	sub2309	2309	  1	  1	124	  3	  2	  1	  3	  4	  1	  1	  1	0.49939	  1	0.60000	  0	 21	 60	 61	  1	
13-Apr-2013	sub2309	2309	  1	  1	125	  3	  2	  6	  6	  2	  0	  2	  0	0.39020	  1	0.60000	  0	 26	 67	 88	  1	
13-Apr-2013	sub2309	2309	  1	  1	126	  3	  2	  1	  3	  4	  1	  2	  0	0.44504	  0	0.60000	  0	 21	 80	 81	  1	
13-Apr-2013	sub2309	2309	  1	  1	127	  3	  2	  6	  6	  2	  1	  1	  0	0.48331	  0	0.60000	  0	 26	 85	 86	  1	
13-Apr-2013	sub2309	2309	  1	  1	128	  3	  2	  2	  2	  4	  1	  2	  1	0.48115	  1	0.60000	  0	 22	 60	 61	  1	
13-Apr-2013	sub2309	2309	  1	  1	129	  3	  2	  1	  3	  4	  1	  1	  1	0.45477	  1	0.60000	  0	 21	 60	 61	  1	
13-Apr-2013	sub2309	2309	  1	  1	130	  3	  2	  6	  6	  2	  1	  2	  1	0.41134	  1	0.60000	  0	 26	 65	 66	  1	
13-Apr-2013	sub2309	2309	  1	  1	131	  3	  2	  5	  4	  6	  0	  1	  0	0.47471	  1	0.60000	  0	 25	 67	 88	  1	
13-Apr-2013	sub2309	2309	  1	  1	132	  3	  2	  4	  1	  2	  1	  2	  1	0.46403	  1	0.60000	  0	 24	 62	 63	  1	
13-Apr-2013	sub2309	2309	  1	  1	133	  3	  2	  2	  2	  4	  1	  2	  1	0.35333	  1	0.60000	  0	 22	 60	 61	  1	
13-Apr-2013	sub2309	2309	  1	  1	134	  3	  2	  5	  4	  6	  0	  2	  1	0.53553	  0	0.60000	  0	 25	 87	 68	  0	
13-Apr-2013	sub2309	2309	  1	  1	135	  3	  2	  2	  2	  4	  1	  2	  1	0.34284	  1	0.60000	  0	 22	 60	 61	  1	
13-Apr-2013	sub2309	2309	  1	  1	136	  3	  2	  4	  1	  2	  1	  2	  1	0.27867	  1	0.60000	  0	 24	 62	 63	  1	
13-Apr-2013	sub2309	2309	  1	  1	137	  3	  2	  4	  1	  2	  1	  2	  1	0.23698	  1	0.60000	  0	 24	 62	 63	  1	
13-Apr-2013	sub2309	2309	  1	  1	138	  3	  2	  2	  2	  4	  1	  2	  1	0.27689	  1	0.60000	  0	 22	 60	 61	  1	
13-Apr-2013	sub2309	2309	  1	  1	139	  3	  2	  4	  1	  2	  0	  2	  0	0.43782	  1	0.60000	  0	 24	 64	 89	  1	
13-Apr-2013	sub2309	2309	  1	  1	140	  3	  2	  1	  3	  4	  1	  1	  1	0.16099	  1	0.60000	  0	 21	 60	 61	  1	
13-Apr-2013	sub2309	2309	  1	  1	141	  3	  2	  6	  6	  2	  1	  2	  1	0.43305	  1	0.60000	  0	 26	 65	 66	  1	
13-Apr-2013	sub2309	2309	  1	  1	142	  3	  2	  4	  1	  2	  1	  2	  1	0.46249	  1	0.60000	  0	 24	 62	 63	  1	
13-Apr-2013	sub2309	2309	  1	  1	143	  3	  2	  3	  5	  2	  1	  1	  1	0.51643	  1	0.60000	  0	 23	 62	 63	  0	
13-Apr-2013	sub2309	2309	  1	  1	144	  3	  2	  1	  3	  4	  1	  1	  1	0.47610	  1	0.60000	  0	 21	 60	 61	  1	
13-Apr-2013	sub2309	2309	  1	  1	145	  3	  2	  1	  3	  4	  1	  1	  1	0.34125	  1	0.60000	  0	 21	 60	 61	  1	
13-Apr-2013	sub2309	2309	  1	  1	146	  3	  2	  1	  3	  4	  1	  1	  1	0.43163	  1	0.60000	  0	 21	 60	 61	  1	
13-Apr-2013	sub2309	2309	  1	  1	147	  3	  2	  1	  3	  4	  1	  1	  1	0.40510	  1	0.60000	  0	 21	 60	 61	  1	
13-Apr-2013	sub2309	2309	  1	  1	148	  3	  2	  4	  1	  2	  1	  2	  1	0.46485	  1	0.60000	  0	 24	 62	 63	  1	
13-Apr-2013	sub2309	2309	  1	  1	149	  3	  2	  3	  5	  2	  1	  2	  0	0.41524	  0	0.60000	  0	 23	 82	 83	  1	
13-Apr-2013	sub2309	2309	  1	  1	150	  3	  2	  5	  4	  6	  0	  2	  1	0.53064	  0	0.60000	  0	 25	 87	 68	  0	
13-Apr-2013	sub2309	2309	  1	  1	  1	  4	  1	  6	  6	  4	  0	  1	  1	0.31231	  0	0.60000	  0	 16	 47	 38	  1	
13-Apr-2013	sub2309	2309	  1	  1	  2	  4	  1	  4	  5	  4	  1	  1	  0	0.50180	  0	0.30000	  1	 14	 42	 51	  0	
13-Apr-2013	sub2309	2309	  1	  1	  3	  4	  1	  3	  2	  2	  1	  1	  1	0.27220	  1	0.90000	  0	 13	 32	 33	  1	
13-Apr-2013	sub2309	2309	  1	  1	  4	  4	  1	  4	  5	  4	  1	  1	  0	0.30502	  0	0.90000	  0	 14	 42	 43	  1	
13-Apr-2013	sub2309	2309	  1	  1	  5	  4	  1	  2	  4	  5	  1	  1	  0	0.32070	  0	0.90000	  0	 12	 40	 41	  1	
13-Apr-2013	sub2309	2309	  1	  1	  6	  4	  1	  6	  6	  4	  1	  1	  0	0.40205	  0	0.90000	  0	 16	 45	 46	  1	
13-Apr-2013	sub2309	2309	  1	  1	  7	  4	  1	  3	  2	  2	  1	  1	  1	0.34293	  1	0.90000	  0	 13	 32	 33	  1	
13-Apr-2013	sub2309	2309	  1	  1	  8	  4	  1	  4	  5	  4	  1	  1	  0	0.41455	  0	0.90000	  0	 14	 42	 43	  1	
13-Apr-2013	sub2309	2309	  1	  1	  9	  4	  1	  6	  6	  4	  0	  1	  1	0.46862	  0	0.90000	  0	 16	 47	 38	  1	
13-Apr-2013	sub2309	2309	  1	  1	 10	  4	  1	  3	  2	  2	  0	  2	  1	0.36896	  0	0.90000	  0	 13	 44	 39	  1	
13-Apr-2013	sub2309	2309	  1	  1	 11	  4	  1	  3	  2	  2	  1	  2	  0	0.56068	  0	0.90000	  0	 13	 42	 43	  0	
13-Apr-2013	sub2309	2309	  1	  1	 12	  4	  1	  1	  3	  2	  1	  1	  1	0.53500	  1	0.90000	  0	 11	 30	 31	  0	
13-Apr-2013	sub2309	2309	  1	  1	 13	  4	  1	  6	  6	  4	  1	  1	  0	0.40950	  0	0.90000	  0	 16	 45	 46	  1	
13-Apr-2013	sub2309	2309	  1	  1	 14	  4	  1	  4	  5	  4	  0	  1	  1	0.44460	  0	0.90000	  0	 14	 44	 39	  1	
13-Apr-2013	sub2309	2309	  1	  1	 15	  4	  1	  3	  2	  2	  1	  1	  1	0.40348	  1	0.90000	  0	 13	 32	 33	  1	
13-Apr-2013	sub2309	2309	  1	  1	 16	  4	  1	  4	  5	  4	  1	  2	  1	0.46475	  1	0.80000	  0	 14	 32	 33	  1	
13-Apr-2013	sub2309	2309	  1	  1	 17	  4	  1	  6	  6	  4	  0	  1	  1	0.42398	  0	0.80000	  0	 16	 47	 38	  1	
13-Apr-2013	sub2309	2309	  1	  1	 18	  4	  1	  2	  4	  5	  1	  2	  1	0.46596	  1	0.70000	  0	 12	 30	 31	  1	
13-Apr-2013	sub2309	2309	  1	  1	 19	  4	  1	  2	  4	  5	  1	  2	  1	0.39428	  1	0.70000	  0	 12	 30	 31	  1	
13-Apr-2013	sub2309	2309	  1	  1	 20	  4	  1	  6	  6	  4	  0	  1	  1	0.37293	  0	0.70000	  0	 16	 47	 38	  1	
13-Apr-2013	sub2309	2309	  1	  1	 21	  4	  1	  5	  1	  3	  1	  2	  0	0.45252	  0	0.60000	  0	 15	 45	 46	  1	
13-Apr-2013	sub2309	2309	  1	  1	 22	  4	  1	  1	  3	  2	  1	  1	  1	0.51153	  1	0.60000	  0	 11	 30	 31	  0	
13-Apr-2013	sub2309	2309	  1	  1	 23	  4	  1	  5	  1	  3	  1	  2	  0	0.61508	  0	0.60000	  1	 15	 45	 51	  0	
13-Apr-2013	sub2309	2309	  1	  1	 24	  4	  1	  6	  6	  4	  1	  1	  0	0.45776	  0	0.90000	  0	 16	 45	 46	  1	
13-Apr-2013	sub2309	2309	  1	  1	 25	  4	  1	  5	  1	  3	  0	  1	  0	0.44204	  1	0.90000	  0	 15	 37	 48	  1	
13-Apr-2013	sub2309	2309	  1	  1	 26	  4	  1	  6	  6	  4	  0	  2	  0	0.46437	  1	0.90000	  0	 16	 37	 48	  1	
13-Apr-2013	sub2309	2309	  1	  1	 27	  4	  1	  1	  3	  2	  1	  1	  1	0.41005	  1	0.90000	  0	 11	 30	 31	  1	
13-Apr-2013	sub2309	2309	  1	  1	 28	  4	  1	  6	  6	  4	  1	  1	  0	0.38257	  0	0.90000	  0	 16	 45	 46	  1	
13-Apr-2013	sub2309	2309	  1	  1	 29	  4	  1	  1	  3	  2	  1	  2	  0	0.41123	  0	0.90000	  0	 11	 40	 41	  1	
13-Apr-2013	sub2309	2309	  1	  1	 30	  4	  1	  5	  1	  3	  0	  1	  0	0.30298	  1	0.80000	  0	 15	 37	 48	  1	
13-Apr-2013	sub2309	2309	  1	  1	 31	  4	  1	  2	  4	  5	  1	  1	  0	0.44538	  0	0.80000	  0	 12	 40	 41	  1	
13-Apr-2013	sub2309	2309	  1	  1	 32	  4	  1	  2	  4	  5	  1	  2	  1	0.39003	  1	0.80000	  0	 12	 30	 31	  1	
13-Apr-2013	sub2309	2309	  1	  1	 33	  4	  1	  1	  3	  2	  1	  1	  1	0.42008	  1	0.80000	  0	 11	 30	 31	  1	
13-Apr-2013	sub2309	2309	  1	  1	 34	  4	  1	  5	  1	  3	  1	  2	  0	0.42507	  0	0.80000	  0	 15	 45	 46	  1	
13-Apr-2013	sub2309	2309	  1	  1	 35	  4	  1	  5	  1	  3	  1	  1	  1	0.35532	  1	0.70000	  0	 15	 35	 36	  1	
13-Apr-2013	sub2309	2309	  1	  1	 36	  4	  1	  5	  1	  3	  1	  1	  1	0.39591	  1	0.70000	  0	 15	 35	 36	  1	
13-Apr-2013	sub2309	2309	  1	  1	 37	  4	  1	  1	  3	  2	  1	  1	  1	0.45548	  1	0.70000	  0	 11	 30	 31	  1	
13-Apr-2013	sub2309	2309	  1	  1	 38	  4	  1	  1	  3	  2	  1	  1	  1	0.37592	  1	0.70000	  0	 11	 30	 31	  1	
13-Apr-2013	sub2309	2309	  1	  1	 39	  4	  1	  3	  2	  2	  1	  2	  0	0.52214	  0	0.70000	  0	 13	 42	 43	  0	
13-Apr-2013	sub2309	2309	  1	  1	 40	  4	  1	  2	  4	  5	  1	  2	  1	0.52583	  1	0.70000	  0	 12	 30	 31	  0	
13-Apr-2013	sub2309	2309	  1	  1	 41	  4	  1	  4	  5	  4	  1	  1	  0	0.45119	  0	0.60000	  0	 14	 42	 43	  1	
13-Apr-2013	sub2309	2309	  1	  1	 42	  4	  1	  6	  6	  4	  1	  2	  1	0.36632	  1	0.60000	  0	 16	 35	 36	  1	
13-Apr-2013	sub2309	2309	  1	  1	 43	  4	  1	  1	  3	  2	  1	  2	  0	0.49528	  0	0.60000	  0	 11	 40	 41	  1	
13-Apr-2013	sub2309	2309	  1	  1	 44	  4	  1	  5	  1	  3	  0	  1	  0	0.46300	  1	0.60000	  0	 15	 37	 48	  1	
13-Apr-2013	sub2309	2309	  1	  1	 45	  4	  1	  1	  3	  2	  1	  1	  1	0.41200	  1	0.60000	  0	 11	 30	 31	  1	
13-Apr-2013	sub2309	2309	  1	  1	 46	  4	  1	  3	  2	  2	  0	  2	  1	0.53300	  0	0.60000	  0	 13	 44	 39	  0	
13-Apr-2013	sub2309	2309	  1	  1	 47	  4	  1	  3	  2	  2	  1	  1	  1	0.39089	  1	0.60000	  0	 13	 32	 33	  1	
13-Apr-2013	sub2309	2309	  1	  1	 48	  4	  1	  1	  3	  2	  1	  1	  1	0.42574	  1	0.60000	  0	 11	 30	 31	  1	
13-Apr-2013	sub2309	2309	  1	  1	 49	  4	  1	  4	  5	  4	  1	  2	  1	0.45203	  1	0.60000	  0	 14	 32	 33	  1	
13-Apr-2013	sub2309	2309	  1	  1	 50	  4	  1	  5	  1	  3	  1	  1	  1	0.42506	  1	0.60000	  0	 15	 35	 36	  1	
13-Apr-2013	sub2309	2309	  1	  1	 51	  4	  1	  2	  4	  5	  1	  2	  1	0.50398	  1	0.50000	  1	 12	 30	 51	  0	
13-Apr-2013	sub2309	2309	  1	  1	 52	  4	  1	  3	  2	  2	  1	  2	  0	0.54038	  0	0.70000	  0	 13	 42	 43	  0	
13-Apr-2013	sub2309	2309	  1	  1	 53	  4	  1	  2	  4	  5	  1	  2	  1	0.47320	  1	0.70000	  0	 12	 30	 31	  1	
13-Apr-2013	sub2309	2309	  1	  1	 54	  4	  1	  4	  5	  4	  1	  1	  0	0.36956	  0	0.70000	  0	 14	 42	 43	  1	
13-Apr-2013	sub2309	2309	  1	  1	 55	  4	  1	  5	  1	  3	  1	  2	  0	0.47027	  0	0.70000	  0	 15	 45	 46	  1	
13-Apr-2013	sub2309	2309	  1	  1	 56	  4	  1	  6	  6	  4	  1	  1	  0	0.45599	  0	0.70000	  0	 16	 45	 46	  1	
13-Apr-2013	sub2309	2309	  1	  1	 57	  4	  1	  1	  3	  2	  1	  1	  1	0.42873	  1	0.70000	  0	 11	 30	 31	  1	
13-Apr-2013	sub2309	2309	  1	  1	 58	  4	  1	  4	  5	  4	  1	  1	  0	0.40626	  0	0.70000	  0	 14	 42	 43	  1	
13-Apr-2013	sub2309	2309	  1	  1	 59	  4	  1	  2	  4	  5	  1	  2	  1	0.46652	  1	0.70000	  0	 12	 30	 31	  1	
13-Apr-2013	sub2309	2309	  1	  1	 60	  4	  1	  3	  2	  2	  1	  2	  0	0.53389	  0	0.70000	  0	 13	 42	 43	  0	
13-Apr-2013	sub2309	2309	  1	  1	 61	  4	  1	  3	  2	  2	  0	  2	  1	0.43869	  0	0.60000	  0	 13	 44	 39	  1	
13-Apr-2013	sub2309	2309	  1	  1	 62	  4	  1	  4	  5	  4	  1	  1	  0	0.49691	  0	0.60000	  0	 14	 42	 43	  1	
13-Apr-2013	sub2309	2309	  1	  1	 63	  4	  1	  4	  5	  4	  0	  2	  0	0.37213	  1	0.60000	  0	 14	 34	 49	  1	
13-Apr-2013	sub2309	2309	  1	  1	 64	  4	  1	  2	  4	  5	  1	  2	  1	0.58047	  1	0.60000	  0	 12	 30	 31	  0	
13-Apr-2013	sub2309	2309	  1	  1	 65	  4	  1	  2	  4	  5	  1	  2	  1	0.46433	  1	0.60000	  0	 12	 30	 31	  1	
13-Apr-2013	sub2309	2309	  1	  1	 66	  4	  1	  5	  1	  3	  0	  2	  1	0.52528	  0	0.60000	  0	 15	 47	 38	  0	
13-Apr-2013	sub2309	2309	  1	  1	 67	  4	  1	  6	  6	  4	  0	  1	  1	0.61399	  0	0.60000	  1	 16	 47	 51	  0	
13-Apr-2013	sub2309	2309	  1	  1	 68	  4	  1	  2	  4	  5	  1	  2	  1	0.52205	  1	0.70000	  0	 12	 30	 31	  0	
13-Apr-2013	sub2309	2309	  1	  1	 69	  4	  1	  2	  4	  5	  1	  2	  1	0.40668	  1	0.70000	  0	 12	 30	 31	  1	
13-Apr-2013	sub2309	2309	  1	  1	 70	  4	  1	  5	  1	  3	  0	  1	  0	0.48997	  1	0.70000	  0	 15	 37	 48	  1	
13-Apr-2013	sub2309	2309	  1	  1	 71	  4	  1	  6	  6	  4	  0	  2	  0	0.30595	  1	0.70000	  0	 16	 37	 48	  1	
13-Apr-2013	sub2309	2309	  1	  1	 72	  4	  1	  4	  5	  4	  1	  1	  0	0.45940	  0	0.70000	  0	 14	 42	 43	  1	
13-Apr-2013	sub2309	2309	  1	  1	 73	  4	  1	  1	  3	  2	  1	  1	  1	0.52625	  1	0.70000	  0	 11	 30	 31	  0	
13-Apr-2013	sub2309	2309	  1	  1	 74	  4	  1	  3	  2	  2	  1	  2	  0	0.50553	  0	0.70000	  0	 13	 42	 43	  0	
13-Apr-2013	sub2309	2309	  1	  1	 75	  4	  1	  3	  2	  2	  1	  1	  1	0.35278	  1	0.70000	  0	 13	 32	 33	  1	
13-Apr-2013	sub2309	2309	  1	  1	 76	  4	  2	  3	  2	  2	  1	  1	  1	0.37937	  1	0.70000	  0	 23	 62	 63	  1	
13-Apr-2013	sub2309	2309	  1	  1	 77	  4	  2	  1	  3	  2	  1	  1	  1	0.68949	  1	0.70000	  0	 21	 60	 61	  0	
13-Apr-2013	sub2309	2309	  1	  1	 78	  4	  2	  1	  3	  2	  1	  1	  1	0.40209	  1	0.70000	  0	 21	 60	 61	  1	
13-Apr-2013	sub2309	2309	  1	  1	 79	  4	  2	  5	  1	  3	  0	  2	  1	0.50596	  0	0.70000	  0	 25	 87	 68	  0	
13-Apr-2013	sub2309	2309	  1	  1	 80	  4	  2	  4	  5	  4	  1	  1	  0	0.47114	  0	0.70000	  0	 24	 82	 83	  1	
13-Apr-2013	sub2309	2309	  1	  1	 81	  4	  2	  4	  5	  4	  1	  2	  1	0.40122	  1	0.60000	  0	 24	 62	 63	  1	
13-Apr-2013	sub2309	2309	  1	  1	 82	  4	  2	  2	  4	  5	  1	  2	  1	0.60081	  1	0.60000	  1	 22	 60	 51	  0	
13-Apr-2013	sub2309	2309	  1	  1	 83	  4	  2	  6	  6	  4	  0	  2	  0	0.32392	  1	0.80000	  0	 26	 67	 88	  1	
13-Apr-2013	sub2309	2309	  1	  1	 84	  4	  2	  5	  1	  3	  0	  2	  1	0.46815	  0	0.80000	  0	 25	 87	 68	  1	
13-Apr-2013	sub2309	2309	  1	  1	 85	  4	  2	  6	  6	  4	  0	  1	  1	0.37196	  0	0.70000	  0	 26	 87	 68	  1	
13-Apr-2013	sub2309	2309	  1	  1	 86	  4	  2	  1	  3	  2	  1	  1	  1	0.48887	  1	0.70000	  0	 21	 60	 61	  1	
13-Apr-2013	sub2309	2309	  1	  1	 87	  4	  2	  1	  3	  2	  1	  1	  1	0.43099	  1	0.70000	  0	 21	 60	 61	  1	
13-Apr-2013	sub2309	2309	  1	  1	 88	  4	  2	  6	  6	  4	  0	  1	  1	0.53266	  0	0.70000	  0	 26	 87	 68	  0	
13-Apr-2013	sub2309	2309	  1	  1	 89	  4	  2	  1	  3	  2	  1	  1	  1	0.36426	  1	0.70000	  0	 21	 60	 61	  1	
13-Apr-2013	sub2309	2309	  1	  1	 90	  4	  2	  4	  5	  4	  1	  1	  0	0.54053	  0	0.70000	  0	 24	 82	 83	  0	
13-Apr-2013	sub2309	2309	  1	  1	 91	  4	  2	  5	  1	  3	  0	  2	  1	0.45493	  0	0.70000	  0	 25	 87	 68	  1	
13-Apr-2013	sub2309	2309	  1	  1	 92	  4	  2	  4	  5	  4	  1	  1	  0	0.44550	  0	0.70000	  0	 24	 82	 83	  1	
13-Apr-2013	sub2309	2309	  1	  1	 93	  4	  2	  5	  1	  3	  0	  2	  1	0.52059	  0	0.70000	  0	 25	 87	 68	  0	
13-Apr-2013	sub2309	2309	  1	  1	 94	  4	  2	  1	  3	  2	  1	  2	  0	0.43496	  0	0.70000	  0	 21	 80	 81	  1	
13-Apr-2013	sub2309	2309	  1	  1	 95	  4	  2	  3	  2	  2	  1	  1	  1	0.40992	  1	0.70000	  0	 23	 62	 63	  1	
13-Apr-2013	sub2309	2309	  1	  1	 96	  4	  2	  2	  4	  5	  1	  2	  1	0.49702	  1	0.70000	  0	 22	 60	 61	  1	
13-Apr-2013	sub2309	2309	  1	  1	 97	  4	  2	  6	  6	  4	  1	  1	  0	0.44875	  0	0.70000	  0	 26	 85	 86	  1	
13-Apr-2013	sub2309	2309	  1	  1	 98	  4	  2	  3	  2	  2	  1	  1	  1	0.42946	  1	0.70000	  0	 23	 62	 63	  1	
13-Apr-2013	sub2309	2309	  1	  1	 99	  4	  2	  2	  4	  5	  1	  2	  1	0.51813	  1	0.70000	  0	 22	 60	 61	  0	
13-Apr-2013	sub2309	2309	  1	  1	100	  4	  2	  3	  2	  2	  1	  1	  1	0.37288	  1	0.70000	  0	 23	 62	 63	  1	
13-Apr-2013	sub2309	2309	  1	  1	101	  4	  2	  4	  5	  4	  1	  2	  1	0.52338	  1	0.60000	  0	 24	 62	 63	  0	
13-Apr-2013	sub2309	2309	  1	  1	102	  4	  2	  2	  4	  5	  1	  2	  1	0.46618	  1	0.60000	  0	 22	 60	 61	  1	
13-Apr-2013	sub2309	2309	  1	  1	103	  4	  2	  2	  4	  5	  1	  2	  1	0.41656	  1	0.60000	  0	 22	 60	 61	  1	
13-Apr-2013	sub2309	2309	  1	  1	104	  4	  2	  4	  5	  4	  1	  2	  1	0.37408	  1	0.60000	  0	 24	 62	 63	  1	
13-Apr-2013	sub2309	2309	  1	  1	105	  4	  2	  6	  6	  4	  1	  1	  0	0.53299	  0	0.60000	  0	 26	 85	 86	  0	
13-Apr-2013	sub2309	2309	  1	  1	106	  4	  2	  4	  5	  4	  1	  2	  1	0.45990	  1	0.60000	  0	 24	 62	 63	  1	
13-Apr-2013	sub2309	2309	  1	  1	107	  4	  2	  2	  4	  5	  1	  2	  1	0.37600	  1	0.60000	  0	 22	 60	 61	  1	
13-Apr-2013	sub2309	2309	  1	  1	108	  4	  2	  4	  5	  4	  1	  2	  1	0.39432	  1	0.60000	  0	 24	 62	 63	  1	
13-Apr-2013	sub2309	2309	  1	  1	109	  4	  2	  5	  1	  3	  0	  2	  1	0.39872	  0	0.60000	  0	 25	 87	 68	  1	
13-Apr-2013	sub2309	2309	  1	  1	110	  4	  2	  1	  3	  2	  1	  1	  1	0.52794	  1	0.60000	  0	 21	 60	 61	  0	
13-Apr-2013	sub2309	2309	  1	  1	111	  4	  2	  5	  1	  3	  0	  2	  1	0.46857	  0	0.60000	  0	 25	 87	 68	  1	
13-Apr-2013	sub2309	2309	  1	  1	112	  4	  2	  1	  3	  2	  1	  1	  1	0.40332	  1	0.60000	  0	 21	 60	 61	  1	
13-Apr-2013	sub2309	2309	  1	  1	113	  4	  2	  5	  1	  3	  0	  2	  1	0.31271	  0	0.60000	  0	 25	 87	 68	  1	
13-Apr-2013	sub2309	2309	  1	  1	114	  4	  2	  4	  5	  4	  0	  2	  0	0.56845	  1	0.60000	  0	 24	 64	 89	  0	
13-Apr-2013	sub2309	2309	  1	  1	115	  4	  2	  2	  4	  5	  1	  2	  1	0.44689	  1	0.60000	  0	 22	 60	 61	  1	
13-Apr-2013	sub2309	2309	  1	  1	116	  4	  2	  1	  3	  2	  1	  2	  0	0.35600	  0	0.60000	  0	 21	 80	 81	  1	
13-Apr-2013	sub2309	2309	  1	  1	117	  4	  2	  1	  3	  2	  1	  2	  0	0.56361	  0	0.60000	  0	 21	 80	 81	  0	
13-Apr-2013	sub2309	2309	  1	  1	118	  4	  2	  3	  2	  2	  1	  2	  0	0.55577	  0	0.60000	  0	 23	 82	 83	  0	
13-Apr-2013	sub2309	2309	  1	  1	119	  4	  2	  1	  3	  2	  1	  1	  1	0.49737	  1	0.60000	  0	 21	 60	 61	  1	
13-Apr-2013	sub2309	2309	  1	  1	120	  4	  2	  3	  2	  2	  0	  1	  0	0.64311	  1	0.60000	  1	 23	 64	 51	  0	
13-Apr-2013	sub2309	2309	  1	  1	121	  4	  2	  6	  6	  4	  0	  1	  1	0.45386	  0	0.60000	  0	 26	 87	 68	  1	
13-Apr-2013	sub2309	2309	  1	  1	122	  4	  2	  2	  4	  5	  1	  1	  0	0.45878	  0	0.60000	  0	 22	 80	 81	  1	
13-Apr-2013	sub2309	2309	  1	  1	123	  4	  2	  3	  2	  2	  1	  2	  0	0.58910	  0	0.60000	  0	 23	 82	 83	  0	
13-Apr-2013	sub2309	2309	  1	  1	124	  4	  2	  3	  2	  2	  1	  1	  1	0.43602	  1	0.60000	  0	 23	 62	 63	  1	
13-Apr-2013	sub2309	2309	  1	  1	125	  4	  2	  4	  5	  4	  1	  1	  0	0.48566	  0	0.60000	  0	 24	 82	 83	  1	
13-Apr-2013	sub2309	2309	  1	  1	126	  4	  2	  3	  2	  2	  1	  2	  0	0.57788	  0	0.60000	  0	 23	 82	 83	  0	
13-Apr-2013	sub2309	2309	  1	  1	127	  4	  2	  6	  6	  4	  1	  1	  0	0.46352	  0	0.60000	  0	 26	 85	 86	  1	
13-Apr-2013	sub2309	2309	  1	  1	128	  4	  2	  4	  5	  4	  0	  1	  1	0.46711	  0	0.60000	  0	 24	 84	 69	  1	
13-Apr-2013	sub2309	2309	  1	  1	129	  4	  2	  3	  2	  2	  1	  1	  1	0.48055	  1	0.60000	  0	 23	 62	 63	  1	
13-Apr-2013	sub2309	2309	  1	  1	130	  4	  2	  1	  3	  2	  1	  1	  1	0.45833	  1	0.60000	  0	 21	 60	 61	  1	
13-Apr-2013	sub2309	2309	  1	  1	131	  4	  2	  5	  1	  3	  0	  1	  0	0.37592	  1	0.60000	  0	 25	 67	 88	  1	
13-Apr-2013	sub2309	2309	  1	  1	132	  4	  2	  2	  4	  5	  1	  2	  1	0.59954	  1	0.60000	  0	 22	 60	 61	  0	
13-Apr-2013	sub2309	2309	  1	  1	133	  4	  2	  5	  1	  3	  0	  2	  1	0.44208	  0	0.60000	  0	 25	 87	 68	  1	
13-Apr-2013	sub2309	2309	  1	  1	134	  4	  2	  4	  5	  4	  0	  1	  1	0.53432	  0	0.60000	  0	 24	 84	 69	  0	
13-Apr-2013	sub2309	2309	  1	  1	135	  4	  2	  2	  4	  5	  1	  2	  1	0.49610	  1	0.60000	  0	 22	 60	 61	  1	
13-Apr-2013	sub2309	2309	  1	  1	136	  4	  2	  2	  4	  5	  1	  2	  1	0.46488	  1	0.60000	  0	 22	 60	 61	  1	
13-Apr-2013	sub2309	2309	  1	  1	137	  4	  2	  5	  1	  3	  0	  2	  1	0.47600	  0	0.60000	  0	 25	 87	 68	  1	
13-Apr-2013	sub2309	2309	  1	  1	138	  4	  2	  6	  6	  4	  0	  1	  1	0.52124	  0	0.60000	  0	 26	 87	 68	  0	
13-Apr-2013	sub2309	2309	  1	  1	139	  4	  2	  6	  6	  4	  1	  1	  0	0.37729	  0	0.60000	  0	 26	 85	 86	  1	
13-Apr-2013	sub2309	2309	  1	  1	140	  4	  2	  3	  2	  2	  1	  2	  0	0.42724	  0	0.60000	  0	 23	 82	 83	  1	
13-Apr-2013	sub2309	2309	  1	  1	141	  4	  2	  2	  4	  5	  1	  1	  0	0.38382	  0	0.60000	  0	 22	 80	 81	  1	
13-Apr-2013	sub2309	2309	  1	  1	142	  4	  2	  3	  2	  2	  0	  2	  1	0.38272	  0	0.60000	  0	 23	 84	 69	  1	
13-Apr-2013	sub2309	2309	  1	  1	143	  4	  2	  5	  1	  3	  0	  1	  0	0.41714	  1	0.60000	  0	 25	 67	 88	  1	
13-Apr-2013	sub2309	2309	  1	  1	144	  4	  2	  4	  5	  4	  1	  2	  1	0.41672	  1	0.60000	  0	 24	 62	 63	  1	
13-Apr-2013	sub2309	2309	  1	  1	145	  4	  2	  5	  1	  3	  0	  2	  1	0.56034	  0	0.60000	  0	 25	 87	 68	  0	
13-Apr-2013	sub2309	2309	  1	  1	146	  4	  2	  1	  3	  2	  1	  1	  1	0.54690	  1	0.60000	  0	 21	 60	 61	  0	
13-Apr-2013	sub2309	2309	  1	  1	147	  4	  2	  6	  6	  4	  1	  1	  0	0.49943	  0	0.60000	  0	 26	 85	 86	  1	
13-Apr-2013	sub2309	2309	  1	  1	148	  4	  2	  5	  1	  3	  0	  2	  1	0.45297	  0	0.60000	  0	 25	 87	 68	  1	
13-Apr-2013	sub2309	2309	  1	  1	149	  4	  2	  6	  6	  4	  0	  1	  1	0.51286	  0	0.60000	  0	 26	 87	 68	  0	
13-Apr-2013	sub2309	2309	  1	  1	150	  4	  2	  6	  6	  4	  1	  1	  0	0.55223	  0	0.60000	  0	 26	 85	 86	  0	
13-Apr-2013	sub2309	2309	  1	  1	  1	  5	  1	  4	  5	  3	  1	  1	  0	0.32131	  0	0.60000	  0	 14	 42	 43	  1	
13-Apr-2013	sub2309	2309	  1	  1	  2	  5	  1	  6	  1	  6	  1	  1	  0	0.29489	  0	0.30000	  0	 16	 45	 46	  1	
13-Apr-2013	sub2309	2309	  1	  1	  3	  5	  1	  5	  2	  1	  0	  1	  0	0.33260	  1	0.30000	  1	 15	 37	 51	  1	
13-Apr-2013	sub2309	2309	  1	  1	  4	  5	  1	  1	  3	  1	  1	  1	  1	0.33050	  1	0.90000	  0	 11	 30	 31	  1	
13-Apr-2013	sub2309	2309	  1	  1	  5	  5	  1	  4	  5	  3	  1	  1	  0	0.27037	  0	0.90000	  0	 14	 42	 43	  1	
13-Apr-2013	sub2309	2309	  1	  1	  6	  5	  1	  3	  4	  3	  1	  2	  0	0.34598	  0	0.90000	  0	 13	 42	 43	  1	
13-Apr-2013	sub2309	2309	  1	  1	  7	  5	  1	  3	  4	  3	  1	  1	  1	0.31156	  1	0.90000	  0	 13	 32	 33	  1	
13-Apr-2013	sub2309	2309	  1	  1	  8	  5	  1	  1	  3	  1	  1	  1	  1	0.39744	  1	0.90000	  0	 11	 30	 31	  1	
13-Apr-2013	sub2309	2309	  1	  1	  9	  5	  1	  3	  4	  3	  1	  2	  0	0.49875	  0	0.90000	  0	 13	 42	 43	  1	
13-Apr-2013	sub2309	2309	  1	  1	 10	  5	  1	  6	  1	  6	  0	  1	  1	0.45040	  0	0.90000	  0	 16	 47	 38	  1	
13-Apr-2013	sub2309	2309	  1	  1	 11	  5	  1	  1	  3	  1	  1	  1	  1	0.44911	  1	0.90000	  0	 11	 30	 31	  1	
13-Apr-2013	sub2309	2309	  1	  1	 12	  5	  1	  2	  6	  3	  1	  2	  1	0.42738	  1	0.90000	  0	 12	 30	 31	  1	
13-Apr-2013	sub2309	2309	  1	  1	 13	  5	  1	  4	  5	  3	  1	  1	  0	0.42043	  0	0.90000	  0	 14	 42	 43	  1	
13-Apr-2013	sub2309	2309	  1	  1	 14	  5	  1	  5	  2	  1	  1	  2	  0	0.43980	  0	0.90000	  0	 15	 45	 46	  1	
13-Apr-2013	sub2309	2309	  1	  1	 15	  5	  1	  5	  2	  1	  0	  1	  0	0.29088	  1	0.90000	  0	 15	 37	 48	  1	
13-Apr-2013	sub2309	2309	  1	  1	 16	  5	  1	  5	  2	  1	  1	  2	  0	0.33949	  0	0.80000	  0	 15	 45	 46	  1	
13-Apr-2013	sub2309	2309	  1	  1	 17	  5	  1	  6	  1	  6	  1	  2	  1	0.10439	  1	0.80000	  0	 16	 35	 36	  1	
13-Apr-2013	sub2309	2309	  1	  1	 18	  5	  1	  5	  2	  1	  1	  1	  1	0.49141	  1	0.70000	  0	 15	 35	 36	  1	
13-Apr-2013	sub2309	2309	  1	  1	 19	  5	  1	  5	  2	  1	  0	  1	  0	0.38263	  1	0.70000	  0	 15	 37	 48	  1	
13-Apr-2013	sub2309	2309	  1	  1	 20	  5	  1	  2	  6	  3	  1	  2	  1	0.59017	  1	0.70000	  0	 12	 30	 31	  0	
13-Apr-2013	sub2309	2309	  1	  1	 21	  5	  1	  3	  4	  3	  1	  1	  1	0.41142	  1	0.60000	  0	 13	 32	 33	  1	
13-Apr-2013	sub2309	2309	  1	  1	 22	  5	  1	  3	  4	  3	  0	  1	  0	0.34999	  1	0.60000	  0	 13	 34	 49	  1	
13-Apr-2013	sub2309	2309	  1	  1	 23	  5	  1	  6	  1	  6	  0	  2	  0	0.49677	  1	0.60000	  0	 16	 37	 48	  1	
13-Apr-2013	sub2309	2309	  1	  1	 24	  5	  1	  6	  1	  6	  0	  1	  1	0.47733	  0	0.60000	  0	 16	 47	 38	  1	
13-Apr-2013	sub2309	2309	  1	  1	 25	  5	  1	  4	  5	  3	  1	  2	  1	0.54121	  1	0.60000	  0	 14	 32	 33	  0	
13-Apr-2013	sub2309	2309	  1	  1	 26	  5	  1	  1	  3	  1	  1	  1	  1	0.48253	  1	0.50000	  0	 11	 30	 31	  1	
13-Apr-2013	sub2309	2309	  1	  1	 27	  5	  1	  2	  6	  3	  1	  2	  1	0.47023	  1	0.50000	  0	 12	 30	 31	  1	
13-Apr-2013	sub2309	2309	  1	  1	 28	  5	  1	  6	  1	  6	  0	  2	  0	0.53599	  1	0.50000	  1	 16	 37	 51	  0	
13-Apr-2013	sub2309	2309	  1	  1	 29	  5	  1	  2	  6	  3	  1	  2	  1	0.42974	  1	0.90000	  0	 12	 30	 31	  1	
13-Apr-2013	sub2309	2309	  1	  1	 30	  5	  1	  1	  3	  1	  1	  2	  0	0.37903	  0	0.80000	  0	 11	 40	 41	  1	
13-Apr-2013	sub2309	2309	  1	  1	 31	  5	  1	  6	  1	  6	  1	  1	  0	0.26792	  0	0.80000	  0	 16	 45	 46	  1	
13-Apr-2013	sub2309	2309	  1	  1	 32	  5	  1	  3	  4	  3	  1	  2	  0	0.20454	  0	0.80000	  0	 13	 42	 43	  1	
13-Apr-2013	sub2309	2309	  1	  1	 33	  5	  1	  6	  1	  6	  1	  1	  0	0.28167	  0	0.80000	  0	 16	 45	 46	  1	
13-Apr-2013	sub2309	2309	  1	  1	 34	  5	  1	  3	  4	  3	  1	  2	  0	0.26910	  0	0.80000	  0	 13	 42	 43	  1	
13-Apr-2013	sub2309	2309	  1	  1	 35	  5	  1	  4	  5	  3	  1	  1	  0	0.44547	  0	0.70000	  0	 14	 42	 43	  1	
13-Apr-2013	sub2309	2309	  1	  1	 36	  5	  1	  5	  2	  1	  1	  2	  0	0.38229	  0	0.70000	  0	 15	 45	 46	  1	
13-Apr-2013	sub2309	2309	  1	  1	 37	  5	  1	  6	  1	  6	  0	  1	  1	0.35212	  0	0.70000	  0	 16	 47	 38	  1	
13-Apr-2013	sub2309	2309	  1	  1	 38	  5	  1	  4	  5	  3	  0	  1	  1	0.44421	  0	0.70000	  0	 14	 44	 39	  1	
13-Apr-2013	sub2309	2309	  1	  1	 39	  5	  1	  4	  5	  3	  0	  1	  1	0.35371	  0	0.70000	  0	 14	 44	 39	  1	
13-Apr-2013	sub2309	2309	  1	  1	 40	  5	  1	  3	  4	  3	  0	  1	  0	0.35651	  1	0.70000	  0	 13	 34	 49	  1	
13-Apr-2013	sub2309	2309	  1	  1	 41	  5	  1	  3	  4	  3	  1	  1	  1	0.31349	  1	0.60000	  0	 13	 32	 33	  1	
13-Apr-2013	sub2309	2309	  1	  1	 42	  5	  1	  5	  2	  1	  0	  1	  0	0.45842	  1	0.60000	  0	 15	 37	 48	  1	
13-Apr-2013	sub2309	2309	  1	  1	 43	  5	  1	  6	  1	  6	  1	  1	  0	0.40838	  0	0.60000	  0	 16	 45	 46	  1	
13-Apr-2013	sub2309	2309	  1	  1	 44	  5	  1	  1	  3	  1	  1	  2	  0	0.38026	  0	0.60000	  0	 11	 40	 41	  1	
13-Apr-2013	sub2309	2309	  1	  1	 45	  5	  1	  2	  6	  3	  1	  1	  0	0.33566	  0	0.60000	  0	 12	 40	 41	  1	
13-Apr-2013	sub2309	2309	  1	  1	 46	  5	  1	  2	  6	  3	  1	  2	  1	0.27704	  1	0.60000	  0	 12	 30	 31	  1	
13-Apr-2013	sub2309	2309	  1	  1	 47	  5	  1	  2	  6	  3	  1	  2	  1	0.33630	  1	0.60000	  0	 12	 30	 31	  1	
13-Apr-2013	sub2309	2309	  1	  1	 48	  5	  1	  2	  6	  3	  1	  2	  1	0.30243	  1	0.60000	  0	 12	 30	 31	  1	
13-Apr-2013	sub2309	2309	  1	  1	 49	  5	  1	  4	  5	  3	  1	  1	  0	0.54704	  0	0.60000	  0	 14	 42	 43	  0	
13-Apr-2013	sub2309	2309	  1	  1	 50	  5	  1	  2	  6	  3	  1	  2	  1	0.36649	  1	0.60000	  0	 12	 30	 31	  1	
13-Apr-2013	sub2309	2309	  1	  1	 51	  5	  1	  5	  2	  1	  1	  2	  0	0.38304	  0	0.50000	  0	 15	 45	 46	  1	
13-Apr-2013	sub2309	2309	  1	  1	 52	  5	  1	  2	  6	  3	  1	  2	  1	0.49214	  1	0.50000	  0	 12	 30	 31	  1	
13-Apr-2013	sub2309	2309	  1	  1	 53	  5	  1	  3	  4	  3	  1	  2	  0	0.42290	  0	0.50000	  0	 13	 42	 43	  1	
13-Apr-2013	sub2309	2309	  1	  1	 54	  5	  1	  1	  3	  1	  1	  1	  1	0.41602	  1	0.50000	  0	 11	 30	 31	  1	
13-Apr-2013	sub2309	2309	  1	  1	 55	  5	  1	  2	  6	  3	  1	  1	  0	0.42802	  0	0.50000	  0	 12	 40	 41	  1	
13-Apr-2013	sub2309	2309	  1	  1	 56	  5	  1	  3	  4	  3	  1	  2	  0	0.31331	  0	0.50000	  0	 13	 42	 43	  1	
13-Apr-2013	sub2309	2309	  1	  1	 57	  5	  1	  1	  3	  1	  1	  1	  1	0.11103	  1	0.50000	  0	 11	 30	 31	  1	
13-Apr-2013	sub2309	2309	  1	  1	 58	  5	  1	  1	  3	  1	  1	  1	  1	0.57700	  1	0.50000	  1	 11	 30	 51	  0	
13-Apr-2013	sub2309	2309	  1	  1	 59	  5	  1	  6	  1	  6	  0	  1	  1	0.45892	  0	0.70000	  0	 16	 47	 38	  1	
13-Apr-2013	sub2309	2309	  1	  1	 60	  5	  1	  4	  5	  3	  1	  2	  1	0.54378	  1	0.70000	  0	 14	 32	 33	  0	
13-Apr-2013	sub2309	2309	  1	  1	 61	  5	  1	  6	  1	  6	  0	  1	  1	0.00018	  0	0.60000	  0	 16	 47	 38	  1	
13-Apr-2013	sub2309	2309	  1	  1	 62	  5	  1	  3	  4	  3	  0	  2	  1	1.97239	  0	0.60000	  1	 13	 44	 51	  0	
13-Apr-2013	sub2309	2309	  1	  1	 63	  5	  1	  4	  5	  3	  1	  1	  0	0.49661	  0	0.80000	  0	 14	 42	 43	  1	
13-Apr-2013	sub2309	2309	  1	  1	 64	  5	  1	  2	  6	  3	  1	  2	  1	0.39845	  1	0.80000	  0	 12	 30	 31	  1	
13-Apr-2013	sub2309	2309	  1	  1	 65	  5	  1	  2	  6	  3	  1	  1	  0	0.30710	  0	0.80000	  0	 12	 40	 41	  1	
13-Apr-2013	sub2309	2309	  1	  1	 66	  5	  1	  6	  1	  6	  1	  2	  1	0.00016	  1	0.80000	  0	 16	 35	 36	  1	
13-Apr-2013	sub2309	2309	  1	  1	 67	  5	  1	  1	  3	  1	  1	  1	  1	0.45149	  1	0.80000	  0	 11	 30	 31	  1	
13-Apr-2013	sub2309	2309	  1	  1	 68	  5	  1	  5	  2	  1	  1	  2	  0	0.41259	  0	0.70000	  0	 15	 45	 46	  1	
13-Apr-2013	sub2309	2309	  1	  1	 69	  5	  1	  5	  2	  1	  0	  2	  1	0.58673	  0	0.70000	  0	 15	 47	 38	  0	
13-Apr-2013	sub2309	2309	  1	  1	 70	  5	  1	  5	  2	  1	  1	  1	  1	0.45468	  1	0.70000	  0	 15	 35	 36	  1	
13-Apr-2013	sub2309	2309	  1	  1	 71	  5	  1	  4	  5	  3	  1	  2	  1	0.58521	  1	0.70000	  0	 14	 32	 33	  0	
13-Apr-2013	sub2309	2309	  1	  1	 72	  5	  1	  4	  5	  3	  1	  2	  1	0.43843	  1	0.70000	  0	 14	 32	 33	  1	
13-Apr-2013	sub2309	2309	  1	  1	 73	  5	  1	  1	  3	  1	  1	  2	  0	0.40826	  0	0.70000	  0	 11	 40	 41	  1	
13-Apr-2013	sub2309	2309	  1	  1	 74	  5	  1	  1	  3	  1	  1	  1	  1	0.29833	  1	0.70000	  0	 11	 30	 31	  1	
13-Apr-2013	sub2309	2309	  1	  1	 75	  5	  1	  3	  4	  3	  1	  1	  1	0.43910	  1	0.70000	  0	 13	 32	 33	  1	
13-Apr-2013	sub2309	2309	  1	  1	 76	  5	  2	  2	  6	  3	  1	  2	  1	0.51583	  1	0.70000	  0	 22	 60	 61	  0	
13-Apr-2013	sub2309	2309	  1	  1	 77	  5	  2	  6	  1	  6	  0	  2	  0	0.48530	  1	0.70000	  0	 26	 67	 88	  1	
13-Apr-2013	sub2309	2309	  1	  1	 78	  5	  2	  1	  3	  1	  1	  2	  0	0.44544	  0	0.70000	  0	 21	 80	 81	  1	
13-Apr-2013	sub2309	2309	  1	  1	 79	  5	  2	  2	  6	  3	  1	  1	  0	0.37961	  0	0.70000	  0	 22	 80	 81	  1	
13-Apr-2013	sub2309	2309	  1	  1	 80	  5	  2	  3	  4	  3	  0	  2	  1	0.60501	  0	0.70000	  0	 23	 84	 69	  0	
13-Apr-2013	sub2309	2309	  1	  1	 81	  5	  2	  3	  4	  3	  1	  1	  1	0.39373	  1	0.60000	  0	 23	 62	 63	  1	
13-Apr-2013	sub2309	2309	  1	  1	 82	  5	  2	  3	  4	  3	  1	  1	  1	0.35109	  1	0.60000	  0	 23	 62	 63	  1	
13-Apr-2013	sub2309	2309	  1	  1	 83	  5	  2	  2	  6	  3	  1	  2	  1	0.45032	  1	0.60000	  0	 22	 60	 61	  1	
13-Apr-2013	sub2309	2309	  1	  1	 84	  5	  2	  6	  1	  6	  1	  2	  1	0.41944	  1	0.60000	  0	 26	 65	 66	  1	
13-Apr-2013	sub2309	2309	  1	  1	 85	  5	  2	  2	  6	  3	  1	  2	  1	0.37892	  1	0.60000	  0	 22	 60	 61	  1	
13-Apr-2013	sub2309	2309	  1	  1	 86	  5	  2	  6	  1	  6	  0	  2	  0	0.50635	  1	0.60000	  0	 26	 67	 88	  0	
13-Apr-2013	sub2309	2309	  1	  1	 87	  5	  2	  3	  4	  3	  1	  2	  0	0.40513	  0	0.60000	  0	 23	 82	 83	  1	
13-Apr-2013	sub2309	2309	  1	  1	 88	  5	  2	  3	  4	  3	  1	  1	  1	0.32880	  1	0.60000	  0	 23	 62	 63	  1	
13-Apr-2013	sub2309	2309	  1	  1	 89	  5	  2	  5	  2	  1	  0	  2	  1	0.46822	  0	0.60000	  0	 25	 87	 68	  1	
13-Apr-2013	sub2309	2309	  1	  1	 90	  5	  2	  4	  5	  3	  1	  1	  0	0.37415	  0	0.60000	  0	 24	 82	 83	  1	
13-Apr-2013	sub2309	2309	  1	  1	 91	  5	  2	  6	  1	  6	  0	  2	  0	0.40879	  1	0.60000	  0	 26	 67	 88	  1	
13-Apr-2013	sub2309	2309	  1	  1	 92	  5	  2	  5	  2	  1	  0	  1	  0	0.56330	  1	0.60000	  0	 25	 67	 88	  0	
13-Apr-2013	sub2309	2309	  1	  1	 93	  5	  2	  5	  2	  1	  0	  1	  0	0.44115	  1	0.60000	  0	 25	 67	 88	  1	
13-Apr-2013	sub2309	2309	  1	  1	 94	  5	  2	  1	  3	  1	  1	  1	  1	0.53599	  1	0.60000	  0	 21	 60	 61	  0	
13-Apr-2013	sub2309	2309	  1	  1	 95	  5	  2	  3	  4	  3	  1	  2	  0	0.45885	  0	0.60000	  0	 23	 82	 83	  1	
13-Apr-2013	sub2309	2309	  1	  1	 96	  5	  2	  5	  2	  1	  0	  1	  0	0.55241	  1	0.60000	  0	 25	 67	 88	  0	
13-Apr-2013	sub2309	2309	  1	  1	 97	  5	  2	  2	  6	  3	  1	  2	  1	0.46168	  1	0.60000	  0	 22	 60	 61	  1	
13-Apr-2013	sub2309	2309	  1	  1	 98	  5	  2	  1	  3	  1	  1	  1	  1	0.44687	  1	0.60000	  0	 21	 60	 61	  1	
13-Apr-2013	sub2309	2309	  1	  1	 99	  5	  2	  5	  2	  1	  0	  2	  1	0.49988	  0	0.60000	  0	 25	 87	 68	  1	
13-Apr-2013	sub2309	2309	  1	  1	100	  5	  2	  5	  2	  1	  0	  2	  1	0.38300	  0	0.60000	  0	 25	 87	 68	  1	
13-Apr-2013	sub2309	2309	  1	  1	101	  5	  2	  1	  3	  1	  1	  1	  1	0.44010	  1	0.50000	  0	 21	 60	 61	  1	
13-Apr-2013	sub2309	2309	  1	  1	102	  5	  2	  1	  3	  1	  1	  1	  1	0.43799	  1	0.50000	  0	 21	 60	 61	  1	
13-Apr-2013	sub2309	2309	  1	  1	103	  5	  2	  5	  2	  1	  0	  2	  1	0.48000	  0	0.50000	  0	 25	 87	 68	  1	
13-Apr-2013	sub2309	2309	  1	  1	104	  5	  2	  2	  6	  3	  1	  2	  1	0.47579	  1	0.50000	  0	 22	 60	 61	  1	
13-Apr-2013	sub2309	2309	  1	  1	105	  5	  2	  4	  5	  3	  1	  1	  0	0.46086	  0	0.50000	  0	 24	 82	 83	  1	
13-Apr-2013	sub2309	2309	  1	  1	106	  5	  2	  6	  1	  6	  1	  2	  1	0.55542	  1	0.50000	  1	 26	 65	 51	  0	
13-Apr-2013	sub2309	2309	  1	  1	107	  5	  2	  4	  5	  3	  1	  2	  1	0.55932	  1	0.60000	  0	 24	 62	 63	  0	
13-Apr-2013	sub2309	2309	  1	  1	108	  5	  2	  3	  4	  3	  0	  1	  0	0.46798	  1	0.60000	  0	 23	 64	 89	  1	
13-Apr-2013	sub2309	2309	  1	  1	109	  5	  2	  1	  3	  1	  1	  1	  1	0.50177	  1	0.60000	  0	 21	 60	 61	  0	
13-Apr-2013	sub2309	2309	  1	  1	110	  5	  2	  4	  5	  3	  0	  1	  1	0.47844	  0	0.60000	  0	 24	 84	 69	  1	
13-Apr-2013	sub2309	2309	  1	  1	111	  5	  2	  6	  1	  6	  1	  2	  1	0.45559	  1	0.60000	  0	 26	 65	 66	  1	
13-Apr-2013	sub2309	2309	  1	  1	112	  5	  2	  3	  4	  3	  1	  2	  0	0.39570	  0	0.60000	  0	 23	 82	 83	  1	
13-Apr-2013	sub2309	2309	  1	  1	113	  5	  2	  4	  5	  3	  1	  1	  0	0.51384	  0	0.60000	  0	 24	 82	 83	  0	
13-Apr-2013	sub2309	2309	  1	  1	114	  5	  2	  2	  6	  3	  1	  2	  1	0.44530	  1	0.60000	  0	 22	 60	 61	  1	
13-Apr-2013	sub2309	2309	  1	  1	115	  5	  2	  5	  2	  1	  0	  2	  1	0.56269	  0	0.60000	  0	 25	 87	 68	  0	
13-Apr-2013	sub2309	2309	  1	  1	116	  5	  2	  5	  2	  1	  0	  1	  0	0.49899	  1	0.60000	  0	 25	 67	 88	  1	
13-Apr-2013	sub2309	2309	  1	  1	117	  5	  2	  1	  3	  1	  1	  1	  1	0.43462	  1	0.60000	  0	 21	 60	 61	  1	
13-Apr-2013	sub2309	2309	  1	  1	118	  5	  2	  1	  3	  1	  1	  1	  1	0.43480	  1	0.60000	  0	 21	 60	 61	  1	
13-Apr-2013	sub2309	2309	  1	  1	119	  5	  2	  2	  6	  3	  1	  2	  1	0.40986	  1	0.60000	  0	 22	 60	 61	  1	
13-Apr-2013	sub2309	2309	  1	  1	120	  5	  2	  6	  1	  6	  1	  1	  0	0.49395	  0	0.60000	  0	 26	 85	 86	  1	
13-Apr-2013	sub2309	2309	  1	  1	121	  5	  2	  2	  6	  3	  1	  2	  1	0.44601	  1	0.60000	  0	 22	 60	 61	  1	
13-Apr-2013	sub2309	2309	  1	  1	122	  5	  2	  6	  1	  6	  1	  2	  1	0.37093	  1	0.60000	  0	 26	 65	 66	  1	
13-Apr-2013	sub2309	2309	  1	  1	123	  5	  2	  5	  2	  1	  0	  1	  0	0.48152	  1	0.60000	  0	 25	 67	 88	  1	
13-Apr-2013	sub2309	2309	  1	  1	124	  5	  2	  4	  5	  3	  1	  2	  1	0.37318	  1	0.60000	  0	 24	 62	 63	  1	
13-Apr-2013	sub2309	2309	  1	  1	125	  5	  2	  5	  2	  1	  0	  2	  1	0.39553	  0	0.60000	  0	 25	 87	 68	  1	
13-Apr-2013	sub2309	2309	  1	  1	126	  5	  2	  4	  5	  3	  1	  2	  1	0.41931	  1	0.50000	  0	 24	 62	 63	  1	
13-Apr-2013	sub2309	2309	  1	  1	127	  5	  2	  4	  5	  3	  1	  2	  1	0.36922	  1	0.50000	  0	 24	 62	 63	  1	
13-Apr-2013	sub2309	2309	  1	  1	128	  5	  2	  1	  3	  1	  1	  2	  0	0.42299	  0	0.50000	  0	 21	 80	 81	  1	
13-Apr-2013	sub2309	2309	  1	  1	129	  5	  2	  4	  5	  3	  0	  1	  1	0.48180	  0	0.50000	  0	 24	 84	 69	  1	
13-Apr-2013	sub2309	2309	  1	  1	130	  5	  2	  4	  5	  3	  1	  2	  1	0.47805	  1	0.50000	  0	 24	 62	 63	  1	
13-Apr-2013	sub2309	2309	  1	  1	131	  5	  2	  3	  4	  3	  1	  1	  1	0.55291	  1	0.50000	  1	 23	 62	 51	  0	
13-Apr-2013	sub2309	2309	  1	  1	132	  5	  2	  1	  3	  1	  1	  1	  1	0.50628	  1	0.60000	  0	 21	 60	 61	  0	
13-Apr-2013	sub2309	2309	  1	  1	133	  5	  2	  6	  1	  6	  0	  2	  0	0.48125	  1	0.60000	  0	 26	 67	 88	  1	
13-Apr-2013	sub2309	2309	  1	  1	134	  5	  2	  2	  6	  3	  1	  1	  0	0.42023	  0	0.60000	  0	 22	 80	 81	  1	
13-Apr-2013	sub2309	2309	  1	  1	135	  5	  2	  4	  5	  3	  1	  2	  1	0.36583	  1	0.60000	  0	 24	 62	 63	  1	
13-Apr-2013	sub2309	2309	  1	  1	136	  5	  2	  1	  3	  1	  1	  2	  0	0.36786	  0	0.60000	  0	 21	 80	 81	  1	
13-Apr-2013	sub2309	2309	  1	  1	137	  5	  2	  3	  4	  3	  1	  2	  0	0.41739	  0	0.60000	  0	 23	 82	 83	  1	
13-Apr-2013	sub2309	2309	  1	  1	138	  5	  2	  3	  4	  3	  1	  1	  1	0.51089	  1	0.60000	  0	 23	 62	 63	  0	
13-Apr-2013	sub2309	2309	  1	  1	139	  5	  2	  1	  3	  1	  1	  1	  1	0.44418	  1	0.60000	  0	 21	 60	 61	  1	
13-Apr-2013	sub2309	2309	  1	  1	140	  5	  2	  6	  1	  6	  0	  2	  0	0.59062	  1	0.60000	  0	 26	 67	 88	  0	
13-Apr-2013	sub2309	2309	  1	  1	141	  5	  2	  4	  5	  3	  1	  1	  0	0.36665	  0	0.60000	  0	 24	 82	 83	  1	
13-Apr-2013	sub2309	2309	  1	  1	142	  5	  2	  6	  1	  6	  1	  2	  1	0.55494	  1	0.60000	  0	 26	 65	 66	  0	
13-Apr-2013	sub2309	2309	  1	  1	143	  5	  2	  1	  3	  1	  1	  1	  1	0.52410	  1	0.60000	  0	 21	 60	 61	  0	
13-Apr-2013	sub2309	2309	  1	  1	144	  5	  2	  5	  2	  1	  0	  2	  1	0.47150	  0	0.60000	  0	 25	 87	 68	  1	
13-Apr-2013	sub2309	2309	  1	  1	145	  5	  2	  5	  2	  1	  0	  2	  1	0.40443	  0	0.60000	  0	 25	 87	 68	  1	
13-Apr-2013	sub2309	2309	  1	  1	146	  5	  2	  4	  5	  3	  0	  1	  1	0.45124	  0	0.60000	  0	 24	 84	 69	  1	
13-Apr-2013	sub2309	2309	  1	  1	147	  5	  2	  3	  4	  3	  1	  2	  0	0.43265	  0	0.60000	  0	 23	 82	 83	  1	
13-Apr-2013	sub2309	2309	  1	  1	148	  5	  2	  6	  1	  6	  0	  2	  0	0.57598	  1	0.60000	  0	 26	 67	 88	  0	
13-Apr-2013	sub2309	2309	  1	  1	149	  5	  2	  2	  6	  3	  1	  2	  1	0.51104	  1	0.60000	  0	 22	 60	 61	  0	
13-Apr-2013	sub2309	2309	  1	  1	150	  5	  2	  2	  6	  3	  1	  2	  1	0.43368	  1	0.60000	  0	 22	 60	 61	  1	
13-Apr-2013	sub2309	2309	  1	  1	  1	  6	  1	  3	  6	  5	  1	  1	  1	0.44132	  1	0.60000	  0	 13	 32	 33	  1	
13-Apr-2013	sub2309	2309	  1	  1	  2	  6	  1	  3	  6	  5	  0	  1	  0	0.37922	  1	0.30000	  1	 13	 34	 51	  1	
13-Apr-2013	sub2309	2309	  1	  1	  3	  6	  1	  6	  3	  5	  0	  1	  1	0.35365	  0	0.90000	  0	 16	 47	 38	  1	
13-Apr-2013	sub2309	2309	  1	  1	  4	  6	  1	  4	  4	  2	  1	  1	  0	0.30697	  0	0.90000	  0	 14	 42	 43	  1	
13-Apr-2013	sub2309	2309	  1	  1	  5	  6	  1	  2	  1	  5	  1	  2	  1	0.51033	  1	0.90000	  0	 12	 30	 31	  0	
13-Apr-2013	sub2309	2309	  1	  1	  6	  6	  1	  2	  1	  5	  1	  2	  1	0.43328	  1	0.90000	  0	 12	 30	 31	  1	
13-Apr-2013	sub2309	2309	  1	  1	  7	  6	  1	  3	  6	  5	  1	  1	  1	0.40355	  1	0.90000	  0	 13	 32	 33	  1	
13-Apr-2013	sub2309	2309	  1	  1	  8	  6	  1	  6	  3	  5	  0	  2	  0	0.31715	  1	0.90000	  0	 16	 37	 48	  1	
13-Apr-2013	sub2309	2309	  1	  1	  9	  6	  1	  2	  1	  5	  1	  2	  1	0.31286	  1	0.90000	  0	 12	 30	 31	  1	
13-Apr-2013	sub2309	2309	  1	  1	 10	  6	  1	  5	  5	  5	  1	  2	  0	0.36910	  0	0.90000	  0	 15	 45	 46	  1	
13-Apr-2013	sub2309	2309	  1	  1	 11	  6	  1	  3	  6	  5	  1	  1	  1	0.34608	  1	0.90000	  0	 13	 32	 33	  1	
13-Apr-2013	sub2309	2309	  1	  1	 12	  6	  1	  3	  6	  5	  1	  1	  1	0.47791	  1	0.90000	  0	 13	 32	 33	  1	
13-Apr-2013	sub2309	2309	  1	  1	 13	  6	  1	  5	  5	  5	  1	  2	  0	0.40547	  0	0.90000	  0	 15	 45	 46	  1	
13-Apr-2013	sub2309	2309	  1	  1	 14	  6	  1	  5	  5	  5	  1	  1	  1	0.35158	  1	0.90000	  0	 15	 35	 36	  1	
13-Apr-2013	sub2309	2309	  1	  1	 15	  6	  1	  2	  1	  5	  1	  2	  1	0.53239	  1	0.90000	  0	 12	 30	 31	  0	
13-Apr-2013	sub2309	2309	  1	  1	 16	  6	  1	  4	  4	  2	  1	  2	  1	0.45421	  1	0.80000	  0	 14	 32	 33	  1	
13-Apr-2013	sub2309	2309	  1	  1	 17	  6	  1	  1	  2	  5	  1	  2	  0	0.47045	  0	0.80000	  0	 11	 40	 41	  1	
13-Apr-2013	sub2309	2309	  1	  1	 18	  6	  1	  3	  6	  5	  1	  2	  0	0.40813	  0	0.70000	  0	 13	 42	 43	  1	
13-Apr-2013	sub2309	2309	  1	  1	 19	  6	  1	  2	  1	  5	  1	  2	  1	0.49027	  1	0.70000	  0	 12	 30	 31	  1	
13-Apr-2013	sub2309	2309	  1	  1	 20	  6	  1	  6	  3	  5	  1	  1	  0	0.38595	  0	0.70000	  0	 16	 45	 46	  1	
13-Apr-2013	sub2309	2309	  1	  1	 21	  6	  1	  4	  4	  2	  1	  2	  1	0.45413	  1	0.60000	  0	 14	 32	 33	  1	
13-Apr-2013	sub2309	2309	  1	  1	 22	  6	  1	  1	  2	  5	  1	  2	  0	0.46750	  0	0.60000	  0	 11	 40	 41	  1	
13-Apr-2013	sub2309	2309	  1	  1	 23	  6	  1	  5	  5	  5	  0	  2	  1	0.40559	  0	0.60000	  0	 15	 47	 38	  1	
13-Apr-2013	sub2309	2309	  1	  1	 24	  6	  1	  6	  3	  5	  0	  2	  0	0.45486	  1	0.60000	  0	 16	 37	 48	  1	
13-Apr-2013	sub2309	2309	  1	  1	 25	  6	  1	  5	  5	  5	  1	  2	  0	0.50823	  0	0.60000	  0	 15	 45	 46	  0	
13-Apr-2013	sub2309	2309	  1	  1	 26	  6	  1	  1	  2	  5	  1	  1	  1	0.40737	  1	0.50000	  0	 11	 30	 31	  1	
13-Apr-2013	sub2309	2309	  1	  1	 27	  6	  1	  5	  5	  5	  0	  1	  0	0.42722	  1	0.50000	  0	 15	 37	 48	  1	
13-Apr-2013	sub2309	2309	  1	  1	 28	  6	  1	  1	  2	  5	  1	  1	  1	0.49783	  1	0.50000	  0	 11	 30	 31	  1	
13-Apr-2013	sub2309	2309	  1	  1	 29	  6	  1	  2	  1	  5	  1	  2	  1	0.51646	  1	0.50000	  1	 12	 30	 51	  0	
13-Apr-2013	sub2309	2309	  1	  1	 30	  6	  1	  3	  6	  5	  0	  1	  0	0.53948	  1	0.80000	  0	 13	 34	 49	  0	
13-Apr-2013	sub2309	2309	  1	  1	 31	  6	  1	  6	  3	  5	  1	  2	  1	0.46961	  1	0.80000	  0	 16	 35	 36	  1	
13-Apr-2013	sub2309	2309	  1	  1	 32	  6	  1	  6	  3	  5	  1	  2	  1	0.35233	  1	0.80000	  0	 16	 35	 36	  1	
13-Apr-2013	sub2309	2309	  1	  1	 33	  6	  1	  2	  1	  5	  1	  2	  1	0.46997	  1	0.80000	  0	 12	 30	 31	  1	
13-Apr-2013	sub2309	2309	  1	  1	 34	  6	  1	  1	  2	  5	  1	  1	  1	0.51359	  1	0.80000	  0	 11	 30	 31	  0	
13-Apr-2013	sub2309	2309	  1	  1	 35	  6	  1	  1	  2	  5	  1	  1	  1	0.47209	  1	0.70000	  0	 11	 30	 31	  1	
13-Apr-2013	sub2309	2309	  1	  1	 36	  6	  1	  4	  4	  2	  1	  1	  0	0.46945	  0	0.70000	  0	 14	 42	 43	  1	
13-Apr-2013	sub2309	2309	  1	  1	 37	  6	  1	  4	  4	  2	  1	  2	  1	0.54728	  1	0.70000	  0	 14	 32	 33	  0	
13-Apr-2013	sub2309	2309	  1	  1	 38	  6	  1	  5	  5	  5	  1	  2	  0	0.57625	  0	0.70000	  0	 15	 45	 46	  0	
13-Apr-2013	sub2309	2309	  1	  1	 39	  6	  1	  5	  5	  5	  0	  1	  0	0.58377	  1	0.70000	  0	 15	 37	 48	  0	
13-Apr-2013	sub2309	2309	  1	  1	 40	  6	  1	  2	  1	  5	  1	  2	  1	0.45419	  1	0.70000	  0	 12	 30	 31	  1	
13-Apr-2013	sub2309	2309	  1	  1	 41	  6	  1	  4	  4	  2	  1	  1	  0	0.58712	  0	0.60000	  0	 14	 42	 43	  0	
13-Apr-2013	sub2309	2309	  1	  1	 42	  6	  1	  2	  1	  5	  1	  2	  1	0.43296	  1	0.60000	  0	 12	 30	 31	  1	
13-Apr-2013	sub2309	2309	  1	  1	 43	  6	  1	  2	  1	  5	  1	  2	  1	0.47379	  1	0.60000	  0	 12	 30	 31	  1	
13-Apr-2013	sub2309	2309	  1	  1	 44	  6	  1	  2	  1	  5	  1	  2	  1	0.37399	  1	0.60000	  0	 12	 30	 31	  1	
13-Apr-2013	sub2309	2309	  1	  1	 45	  6	  1	  6	  3	  5	  0	  2	  0	0.36074	  1	0.60000	  0	 16	 37	 48	  1	
13-Apr-2013	sub2309	2309	  1	  1	 46	  6	  1	  4	  4	  2	  0	  2	  0	0.42838	  1	0.60000	  0	 14	 34	 49	  1	
13-Apr-2013	sub2309	2309	  1	  1	 47	  6	  1	  6	  3	  5	  0	  2	  0	0.44317	  1	0.60000	  0	 16	 37	 48	  1	
13-Apr-2013	sub2309	2309	  1	  1	 48	  6	  1	  4	  4	  2	  1	  1	  0	0.56545	  0	0.60000	  0	 14	 42	 43	  0	
13-Apr-2013	sub2309	2309	  1	  1	 49	  6	  1	  1	  2	  5	  1	  2	  0	0.43411	  0	0.60000	  0	 11	 40	 41	  1	
13-Apr-2013	sub2309	2309	  1	  1	 50	  6	  1	  3	  6	  5	  1	  1	  1	0.55727	  1	0.60000	  0	 13	 32	 33	  0	
13-Apr-2013	sub2309	2309	  1	  1	 51	  6	  1	  3	  6	  5	  1	  1	  1	0.38055	  1	0.50000	  0	 13	 32	 33	  1	
13-Apr-2013	sub2309	2309	  1	  1	 52	  6	  1	  5	  5	  5	  0	  1	  0	0.64971	  1	0.50000	  1	 15	 37	 51	  0	
13-Apr-2013	sub2309	2309	  1	  1	 53	  6	  1	  6	  3	  5	  1	  2	  1	0.51049	  1	0.70000	  0	 16	 35	 36	  0	
13-Apr-2013	sub2309	2309	  1	  1	 54	  6	  1	  3	  6	  5	  0	  1	  0	0.51264	  1	0.70000	  0	 13	 34	 49	  0	
13-Apr-2013	sub2309	2309	  1	  1	 55	  6	  1	  3	  6	  5	  1	  1	  1	0.41533	  1	0.70000	  0	 13	 32	 33	  1	
13-Apr-2013	sub2309	2309	  1	  1	 56	  6	  1	  1	  2	  5	  1	  1	  1	0.48640	  1	0.70000	  0	 11	 30	 31	  1	
13-Apr-2013	sub2309	2309	  1	  1	 57	  6	  1	  1	  2	  5	  1	  1	  1	0.42478	  1	0.70000	  0	 11	 30	 31	  1	
13-Apr-2013	sub2309	2309	  1	  1	 58	  6	  1	  2	  1	  5	  1	  2	  1	0.46657	  1	0.70000	  0	 12	 30	 31	  1	
13-Apr-2013	sub2309	2309	  1	  1	 59	  6	  1	  6	  3	  5	  1	  2	  1	0.40103	  1	0.70000	  0	 16	 35	 36	  1	
13-Apr-2013	sub2309	2309	  1	  1	 60	  6	  1	  5	  5	  5	  1	  1	  1	0.54375	  1	0.70000	  0	 15	 35	 36	  0	
13-Apr-2013	sub2309	2309	  1	  1	 61	  6	  1	  6	  3	  5	  0	  2	  0	0.54241	  1	0.60000	  0	 16	 37	 48	  0	
13-Apr-2013	sub2309	2309	  1	  1	 62	  6	  1	  2	  1	  5	  1	  2	  1	0.47879	  1	0.60000	  0	 12	 30	 31	  1	
13-Apr-2013	sub2309	2309	  1	  1	 63	  6	  1	  3	  6	  5	  1	  1	  1	0.51824	  1	0.60000	  0	 13	 32	 33	  0	
13-Apr-2013	sub2309	2309	  1	  1	 64	  6	  1	  5	  5	  5	  0	  1	  0	0.45785	  1	0.60000	  0	 15	 37	 48	  1	
13-Apr-2013	sub2309	2309	  1	  1	 65	  6	  1	  4	  4	  2	  1	  2	  1	0.47983	  1	0.60000	  0	 14	 32	 33	  1	
13-Apr-2013	sub2309	2309	  1	  1	 66	  6	  1	  6	  3	  5	  0	  2	  0	0.44160	  1	0.60000	  0	 16	 37	 48	  1	
13-Apr-2013	sub2309	2309	  1	  1	 67	  6	  1	  4	  4	  2	  0	  2	  0	0.58247	  1	0.60000	  0	 14	 34	 49	  0	
13-Apr-2013	sub2309	2309	  1	  1	 68	  6	  1	  1	  2	  5	  1	  1	  1	0.48543	  1	0.60000	  0	 11	 30	 31	  1	
13-Apr-2013	sub2309	2309	  1	  1	 69	  6	  1	  3	  6	  5	  1	  1	  1	0.35330	  1	0.60000	  0	 13	 32	 33	  1	
13-Apr-2013	sub2309	2309	  1	  1	 70	  6	  1	  4	  4	  2	  1	  1	  0	0.36609	  0	0.60000	  0	 14	 42	 43	  1	
13-Apr-2013	sub2309	2309	  1	  1	 71	  6	  1	  5	  5	  5	  0	  1	  0	0.54415	  1	0.60000	  0	 15	 37	 48	  0	
13-Apr-2013	sub2309	2309	  1	  1	 72	  6	  1	  1	  2	  5	  1	  2	  0	0.44566	  0	0.60000	  0	 11	 40	 41	  1	
13-Apr-2013	sub2309	2309	  1	  1	 73	  6	  1	  6	  3	  5	  1	  2	  1	0.56056	  1	0.60000	  0	 16	 35	 36	  0	
13-Apr-2013	sub2309	2309	  1	  1	 74	  6	  1	  1	  2	  5	  1	  2	  0	0.45466	  0	0.60000	  0	 11	 40	 41	  1	
13-Apr-2013	sub2309	2309	  1	  1	 75	  6	  1	  4	  4	  2	  1	  1	  0	0.52557	  0	0.60000	  0	 14	 42	 43	  0	
13-Apr-2013	sub2309	2309	  1	  1	 76	  6	  2	  4	  4	  2	  1	  2	  1	0.38530	  1	0.50000	  0	 24	 62	 63	  1	
13-Apr-2013	sub2309	2309	  1	  1	 77	  6	  2	  2	  1	  5	  1	  2	  1	0.46845	  1	0.50000	  0	 22	 60	 61	  1	
13-Apr-2013	sub2309	2309	  1	  1	 78	  6	  2	  2	  1	  5	  1	  2	  1	0.45476	  1	0.50000	  0	 22	 60	 61	  1	
13-Apr-2013	sub2309	2309	  1	  1	 79	  6	  2	  3	  6	  5	  1	  1	  1	0.53062	  1	0.50000	  1	 23	 62	 51	  0	
13-Apr-2013	sub2309	2309	  1	  1	 80	  6	  2	  2	  1	  5	  1	  2	  1	0.53298	  1	0.70000	  0	 22	 60	 61	  0	
13-Apr-2013	sub2309	2309	  1	  1	 81	  6	  2	  5	  5	  5	  0	  1	  0	0.48615	  1	0.60000	  0	 25	 67	 88	  1	
13-Apr-2013	sub2309	2309	  1	  1	 82	  6	  2	  2	  1	  5	  1	  2	  1	0.46319	  1	0.60000	  0	 22	 60	 61	  1	
13-Apr-2013	sub2309	2309	  1	  1	 83	  6	  2	  2	  1	  5	  1	  2	  1	0.43985	  1	0.60000	  0	 22	 60	 61	  1	
13-Apr-2013	sub2309	2309	  1	  1	 84	  6	  2	  1	  2	  5	  1	  2	  0	0.45798	  0	0.60000	  0	 21	 80	 81	  1	
13-Apr-2013	sub2309	2309	  1	  1	 85	  6	  2	  5	  5	  5	  0	  2	  1	0.61569	  0	0.60000	  1	 25	 87	 51	  0	
13-Apr-2013	sub2309	2309	  1	  1	 86	  6	  2	  6	  3	  5	  1	  1	  0	0.47228	  0	0.70000	  0	 26	 85	 86	  1	
13-Apr-2013	sub2309	2309	  1	  1	 87	  6	  2	  2	  1	  5	  1	  2	  1	0.48072	  1	0.70000	  0	 22	 60	 61	  1	
13-Apr-2013	sub2309	2309	  1	  1	 88	  6	  2	  1	  2	  5	  1	  2	  0	0.53164	  0	0.70000	  0	 21	 80	 81	  0	
13-Apr-2013	sub2309	2309	  1	  1	 89	  6	  2	  3	  6	  5	  1	  1	  1	0.54044	  1	0.70000	  0	 23	 62	 63	  0	
13-Apr-2013	sub2309	2309	  1	  1	 90	  6	  2	  6	  3	  5	  1	  1	  0	0.67120	  0	0.70000	  0	 26	 85	 86	  0	
13-Apr-2013	sub2309	2309	  1	  1	 91	  6	  2	  4	  4	  2	  1	  2	  1	0.46069	  1	0.70000	  0	 24	 62	 63	  1	
13-Apr-2013	sub2309	2309	  1	  1	 92	  6	  2	  3	  6	  5	  1	  2	  0	0.43110	  0	0.70000	  0	 23	 82	 83	  1	
13-Apr-2013	sub2309	2309	  1	  1	 93	  6	  2	  5	  5	  5	  0	  1	  0	0.54044	  1	0.70000	  0	 25	 67	 88	  0	
13-Apr-2013	sub2309	2309	  1	  1	 94	  6	  2	  1	  2	  5	  1	  2	  0	0.46986	  0	0.70000	  0	 21	 80	 81	  1	
13-Apr-2013	sub2309	2309	  1	  1	 95	  6	  2	  6	  3	  5	  1	  2	  1	0.48388	  1	0.70000	  0	 26	 65	 66	  1	
13-Apr-2013	sub2309	2309	  1	  1	 96	  6	  2	  5	  5	  5	  0	  2	  1	0.48913	  0	0.70000	  0	 25	 87	 68	  1	
13-Apr-2013	sub2309	2309	  1	  1	 97	  6	  2	  4	  4	  2	  1	  2	  1	0.55335	  1	0.70000	  0	 24	 62	 63	  0	
13-Apr-2013	sub2309	2309	  1	  1	 98	  6	  2	  1	  2	  5	  1	  1	  1	0.42854	  1	0.70000	  0	 21	 60	 61	  1	
13-Apr-2013	sub2309	2309	  1	  1	 99	  6	  2	  5	  5	  5	  0	  1	  0	0.57893	  1	0.70000	  0	 25	 67	 88	  0	
13-Apr-2013	sub2309	2309	  1	  1	100	  6	  2	  4	  4	  2	  1	  2	  1	0.53753	  1	0.70000	  0	 24	 62	 63	  0	
13-Apr-2013	sub2309	2309	  1	  1	101	  6	  2	  5	  5	  5	  0	  2	  1	0.45523	  0	0.60000	  0	 25	 87	 68	  1	
13-Apr-2013	sub2309	2309	  1	  1	102	  6	  2	  3	  6	  5	  1	  1	  1	0.56020	  1	0.60000	  0	 23	 62	 63	  0	
13-Apr-2013	sub2309	2309	  1	  1	103	  6	  2	  2	  1	  5	  1	  2	  1	0.49666	  1	0.60000	  0	 22	 60	 61	  1	
13-Apr-2013	sub2309	2309	  1	  1	104	  6	  2	  1	  2	  5	  1	  1	  1	0.46097	  1	0.60000	  0	 21	 60	 61	  1	
13-Apr-2013	sub2309	2309	  1	  1	105	  6	  2	  3	  6	  5	  1	  1	  1	0.64017	  1	0.60000	  1	 23	 62	 51	  0	
13-Apr-2013	sub2309	2309	  1	  1	106	  6	  2	  4	  4	  2	  0	  1	  1	0.46947	  0	0.70000	  0	 24	 84	 69	  1	
13-Apr-2013	sub2309	2309	  1	  1	107	  6	  2	  6	  3	  5	  0	  2	  0	0.47976	  1	0.70000	  0	 26	 67	 88	  1	
13-Apr-2013	sub2309	2309	  1	  1	108	  6	  2	  5	  5	  5	  0	  1	  0	0.51399	  1	0.70000	  0	 25	 67	 88	  0	
13-Apr-2013	sub2309	2309	  1	  1	109	  6	  2	  4	  4	  2	  0	  2	  0	0.47868	  1	0.70000	  0	 24	 64	 89	  1	
13-Apr-2013	sub2309	2309	  1	  1	110	  6	  2	  1	  2	  5	  1	  1	  1	0.51094	  1	0.70000	  0	 21	 60	 61	  0	
13-Apr-2013	sub2309	2309	  1	  1	111	  6	  2	  5	  5	  5	  0	  2	  1	0.54035	  0	0.70000	  0	 25	 87	 68	  0	
13-Apr-2013	sub2309	2309	  1	  1	112	  6	  2	  3	  6	  5	  0	  1	  0	0.49618	  1	0.70000	  0	 23	 64	 89	  1	
13-Apr-2013	sub2309	2309	  1	  1	113	  6	  2	  6	  3	  5	  0	  1	  1	0.51626	  0	0.70000	  0	 26	 87	 68	  0	
13-Apr-2013	sub2309	2309	  1	  1	114	  6	  2	  6	  3	  5	  1	  1	  0	0.42932	  0	0.70000	  0	 26	 85	 86	  1	
13-Apr-2013	sub2309	2309	  1	  1	115	  6	  2	  4	  4	  2	  1	  2	  1	0.43459	  1	0.70000	  0	 24	 62	 63	  1	
13-Apr-2013	sub2309	2309	  1	  1	116	  6	  2	  5	  5	  5	  0	  1	  0	0.51664	  1	0.70000	  0	 25	 67	 88	  0	
13-Apr-2013	sub2309	2309	  1	  1	117	  6	  2	  3	  6	  5	  1	  2	  0	0.44642	  0	0.70000	  0	 23	 82	 83	  1	
13-Apr-2013	sub2309	2309	  1	  1	118	  6	  2	  4	  4	  2	  0	  2	  0	0.52098	  1	0.70000	  0	 24	 64	 89	  0	
13-Apr-2013	sub2309	2309	  1	  1	119	  6	  2	  2	  1	  5	  1	  1	  0	0.47341	  0	0.70000	  0	 22	 80	 81	  1	
13-Apr-2013	sub2309	2309	  1	  1	120	  6	  2	  3	  6	  5	  1	  1	  1	0.45762	  1	0.70000	  0	 23	 62	 63	  1	
13-Apr-2013	sub2309	2309	  1	  1	121	  6	  2	  1	  2	  5	  1	  1	  1	0.50125	  1	0.60000	  0	 21	 60	 61	  0	
13-Apr-2013	sub2309	2309	  1	  1	122	  6	  2	  6	  3	  5	  0	  2	  0	0.57493	  1	0.60000	  0	 26	 67	 88	  0	
13-Apr-2013	sub2309	2309	  1	  1	123	  6	  2	  1	  2	  5	  1	  2	  0	0.49146	  0	0.60000	  0	 21	 80	 81	  1	
13-Apr-2013	sub2309	2309	  1	  1	124	  6	  2	  4	  4	  2	  1	  2	  1	0.57167	  1	0.60000	  0	 24	 62	 63	  0	
13-Apr-2013	sub2309	2309	  1	  1	125	  6	  2	  1	  2	  5	  1	  2	  0	0.46913	  0	0.60000	  0	 21	 80	 81	  1	
13-Apr-2013	sub2309	2309	  1	  1	126	  6	  2	  3	  6	  5	  1	  1	  1	0.43819	  1	0.60000	  0	 23	 62	 63	  1	
13-Apr-2013	sub2309	2309	  1	  1	127	  6	  2	  2	  1	  5	  1	  2	  1	0.48492	  1	0.60000	  0	 22	 60	 61	  1	
13-Apr-2013	sub2309	2309	  1	  1	128	  6	  2	  5	  5	  5	  0	  2	  1	0.57507	  0	0.60000	  0	 25	 87	 68	  0	
13-Apr-2013	sub2309	2309	  1	  1	129	  6	  2	  5	  5	  5	  0	  2	  1	0.38602	  0	0.60000	  0	 25	 87	 68	  1	
13-Apr-2013	sub2309	2309	  1	  1	130	  6	  2	  1	  2	  5	  1	  1	  1	0.59606	  1	0.60000	  0	 21	 60	 61	  0	
13-Apr-2013	sub2309	2309	  1	  1	131	  6	  2	  2	  1	  5	  1	  2	  1	0.44384	  1	0.60000	  0	 22	 60	 61	  1	
13-Apr-2013	sub2309	2309	  1	  1	132	  6	  2	  2	  1	  5	  1	  2	  1	0.42021	  1	0.60000	  0	 22	 60	 61	  1	
13-Apr-2013	sub2309	2309	  1	  1	133	  6	  2	  1	  2	  5	  1	  1	  1	0.52447	  1	0.60000	  0	 21	 60	 61	  0	
13-Apr-2013	sub2309	2309	  1	  1	134	  6	  2	  6	  3	  5	  1	  2	  1	0.46811	  1	0.60000	  0	 26	 65	 66	  1	
13-Apr-2013	sub2309	2309	  1	  1	135	  6	  2	  3	  6	  5	  1	  1	  1	0.52132	  1	0.60000	  0	 23	 62	 63	  0	
13-Apr-2013	sub2309	2309	  1	  1	136	  6	  2	  2	  1	  5	  1	  2	  1	0.51730	  1	0.60000	  0	 22	 60	 61	  0	
13-Apr-2013	sub2309	2309	  1	  1	137	  6	  2	  5	  5	  5	  0	  2	  1	0.40726	  0	0.60000	  0	 25	 87	 68	  1	
13-Apr-2013	sub2309	2309	  1	  1	138	  6	  2	  4	  4	  2	  1	  2	  1	0.41130	  1	0.60000	  0	 24	 62	 63	  1	
13-Apr-2013	sub2309	2309	  1	  1	139	  6	  2	  6	  3	  5	  0	  1	  1	0.53738	  0	0.60000	  0	 26	 87	 68	  0	
13-Apr-2013	sub2309	2309	  1	  1	140	  6	  2	  4	  4	  2	  1	  2	  1	0.59338	  1	0.60000	  0	 24	 62	 63	  0	
13-Apr-2013	sub2309	2309	  1	  1	141	  6	  2	  5	  5	  5	  0	  1	  0	0.52354	  1	0.60000	  0	 25	 67	 88	  0	
13-Apr-2013	sub2309	2309	  1	  1	142	  6	  2	  3	  6	  5	  1	  1	  1	0.55260	  1	0.60000	  0	 23	 62	 63	  0	
13-Apr-2013	sub2309	2309	  1	  1	143	  6	  2	  1	  2	  5	  1	  1	  1	0.52511	  1	0.60000	  0	 21	 60	 61	  0	
13-Apr-2013	sub2309	2309	  1	  1	144	  6	  2	  4	  4	  2	  1	  2	  1	0.56986	  1	0.60000	  0	 24	 62	 63	  0	
13-Apr-2013	sub2309	2309	  1	  1	145	  6	  2	  6	  3	  5	  0	  2	  0	0.59042	  1	0.60000	  0	 26	 67	 88	  0	
13-Apr-2013	sub2309	2309	  1	  1	146	  6	  2	  6	  3	  5	  1	  2	  1	0.54858	  1	0.60000	  0	 26	 65	 66	  0	
13-Apr-2013	sub2309	2309	  1	  1	147	  6	  2	  4	  4	  2	  1	  2	  1	0.52675	  1	0.60000	  0	 24	 62	 63	  0	
13-Apr-2013	sub2309	2309	  1	  1	148	  6	  2	  1	  2	  5	  1	  1	  1	0.48617	  1	0.60000	  0	 21	 60	 61	  1	
13-Apr-2013	sub2309	2309	  1	  1	149	  6	  2	  6	  3	  5	  0	  2	  0	0.44813	  1	0.60000	  0	 26	 67	 88	  1	
13-Apr-2013	sub2309	2309	  1	  1	150	  6	  2	  3	  6	  5	  0	  1	  0	0.54760	  1	0.60000	  0	 23	 64	 89	  0	
