Date 	 Name 	 ID 	 Gender 	 Appearance 	 Trial 	 Block 	 Bin 	 Condition 	 Category 	 Number 	 Valid 	 Keypress 	 Correct 	 RT 	 Realcorrect 	 Deadline 	 Timeout 	 Stimtrigger 	 Resptrigger 	 Fedtrigger 	 WithinTime 	 
13-Apr-2013	sub2310	2310	  2	  0	  1	  1	  1	  3	  6	  5	  0	  1	  0	14.71301	  1	0.60000	  1	 13	 34	 51	  0	
13-Apr-2013	sub2310	2310	  2	  0	  2	  1	  1	  3	  6	  5	  0	  1	  0	4.50219	  1	0.90000	  1	 13	 34	 51	  0	
13-Apr-2013	sub2310	2310	  2	  0	  3	  1	  1	  1	  1	  1	  1	  1	  1	12.73884	  1	0.90000	  1	 11	 30	 51	  0	
13-Apr-2013	sub2310	2310	  2	  0	  4	  1	  1	  3	  6	  5	  1	  1	  1	0.37160	  1	0.90000	  0	 13	 32	 33	  1	
13-Apr-2013	sub2310	2310	  2	  0	  5	  1	  1	  1	  1	  1	  1	  1	  1	0.30061	  1	0.90000	  0	 11	 30	 31	  1	
13-Apr-2013	sub2310	2310	  2	  0	  6	  1	  1	  6	  5	  5	  0	  2	  0	0.25078	  1	0.90000	  0	 16	 37	 48	  1	
13-Apr-2013	sub2310	2310	  2	  0	  7	  1	  1	  5	  4	  4	  1	  2	  0	0.42388	  0	0.90000	  0	 15	 45	 46	  1	
13-Apr-2013	sub2310	2310	  2	  0	  8	  1	  1	  1	  1	  1	  1	  1	  1	0.22551	  1	0.90000	  0	 11	 30	 31	  1	
13-Apr-2013	sub2310	2310	  2	  0	  9	  1	  1	  6	  5	  5	  1	  1	  0	0.18469	  0	0.90000	  0	 16	 45	 46	  1	
13-Apr-2013	sub2310	2310	  2	  0	 10	  1	  1	  1	  1	  1	  1	  1	  1	0.07284	  1	0.90000	  0	 11	 30	 31	  1	
13-Apr-2013	sub2310	2310	  2	  0	 11	  1	  1	  1	  1	  1	  1	  1	  1	0.22720	  1	0.90000	  0	 11	 30	 31	  1	
13-Apr-2013	sub2310	2310	  2	  0	 12	  1	  1	  3	  6	  5	  1	  1	  1	0.34078	  1	0.90000	  0	 13	 32	 33	  1	
13-Apr-2013	sub2310	2310	  2	  0	 13	  1	  1	  2	  2	  5	  1	  2	  1	0.26340	  1	0.90000	  0	 12	 30	 31	  1	
13-Apr-2013	sub2310	2310	  2	  0	 14	  1	  1	  1	  1	  1	  1	  1	  1	0.20150	  1	0.90000	  0	 11	 30	 31	  1	
13-Apr-2013	sub2310	2310	  2	  0	 15	  1	  1	  6	  5	  5	  1	  2	  1	0.34014	  1	0.90000	  0	 16	 35	 36	  1	
13-Apr-2013	sub2310	2310	  2	  0	 16	  1	  1	  2	  2	  5	  1	  2	  1	0.51372	  1	0.90000	  0	 12	 30	 31	  0	
13-Apr-2013	sub2310	2310	  2	  0	 17	  1	  1	  2	  2	  5	  1	  1	  0	0.00023	  0	0.90000	  0	 12	 40	 41	  1	
13-Apr-2013	sub2310	2310	  2	  0	 18	  1	  1	  1	  1	  1	  1	  2	  0	0.07120	  0	0.90000	  0	 11	 40	 41	  1	
13-Apr-2013	sub2310	2310	  2	  0	 19	  1	  1	  3	  6	  5	  0	  1	  0	0.00010	  1	0.90000	  0	 13	 34	 49	  1	
13-Apr-2013	sub2310	2310	  2	  0	 20	  1	  1	  4	  3	  5	  0	  1	  1	0.57835	  0	0.90000	  0	 14	 44	 39	  0	
13-Apr-2013	sub2310	2310	  2	  0	 21	  1	  1	  3	  6	  5	  1	  1	  1	0.31876	  1	0.90000	  0	 13	 32	 33	  1	
13-Apr-2013	sub2310	2310	  2	  0	 22	  1	  1	  3	  6	  5	  1	  1	  1	0.29931	  1	0.90000	  0	 13	 32	 33	  1	
13-Apr-2013	sub2310	2310	  2	  0	 23	  1	  1	  5	  4	  4	  1	  2	  0	0.38223	  0	0.90000	  0	 15	 45	 46	  1	
13-Apr-2013	sub2310	2310	  2	  0	 24	  1	  1	  3	  6	  5	  1	  1	  1	0.18025	  1	0.90000	  0	 13	 32	 33	  1	
13-Apr-2013	sub2310	2310	  2	  0	 25	  1	  1	  4	  3	  5	  1	  1	  0	0.02456	  0	0.90000	  0	 14	 42	 43	  1	
13-Apr-2013	sub2310	2310	  2	  0	 26	  1	  1	  1	  1	  1	  1	  2	  0	0.06066	  0	0.90000	  0	 11	 40	 41	  1	
13-Apr-2013	sub2310	2310	  2	  0	 27	  1	  1	  4	  3	  5	  1	  2	  1	0.22151	  1	0.90000	  0	 14	 32	 33	  1	
13-Apr-2013	sub2310	2310	  2	  0	 28	  1	  1	  6	  5	  5	  0	  2	  0	0.22397	  1	0.90000	  0	 16	 37	 48	  1	
13-Apr-2013	sub2310	2310	  2	  0	 29	  1	  1	  6	  5	  5	  1	  1	  0	0.21751	  0	0.90000	  0	 16	 45	 46	  1	
13-Apr-2013	sub2310	2310	  2	  0	 30	  1	  1	  2	  2	  5	  1	  1	  0	0.00021	  0	0.90000	  0	 12	 40	 41	  1	
13-Apr-2013	sub2310	2310	  2	  0	 31	  1	  1	  5	  4	  4	  0	  1	  0	0.00009	  1	0.90000	  0	 15	 37	 48	  1	
13-Apr-2013	sub2310	2310	  2	  0	 32	  1	  1	  5	  4	  4	  1	  2	  0	0.37403	  0	0.90000	  0	 15	 45	 46	  1	
13-Apr-2013	sub2310	2310	  2	  0	 33	  1	  1	  4	  3	  5	  1	  2	  1	0.10847	  1	0.90000	  0	 14	 32	 33	  1	
13-Apr-2013	sub2310	2310	  2	  0	 34	  1	  1	  2	  2	  5	  1	  2	  1	0.34357	  1	0.90000	  0	 12	 30	 31	  1	
13-Apr-2013	sub2310	2310	  2	  0	 35	  1	  1	  3	  6	  5	  1	  2	  0	0.39357	  0	0.90000	  0	 13	 42	 43	  1	
13-Apr-2013	sub2310	2310	  2	  0	 36	  1	  1	  6	  5	  5	  1	  2	  1	0.27651	  1	0.90000	  0	 16	 35	 36	  1	
13-Apr-2013	sub2310	2310	  2	  0	 37	  1	  1	  5	  4	  4	  0	  1	  0	0.23523	  1	0.90000	  0	 15	 37	 48	  1	
13-Apr-2013	sub2310	2310	  2	  0	 38	  1	  1	  4	  3	  5	  1	  1	  0	0.02996	  0	0.90000	  0	 14	 42	 43	  1	
13-Apr-2013	sub2310	2310	  2	  0	 39	  1	  1	  2	  2	  5	  1	  2	  1	0.89349	  1	0.90000	  0	 12	 30	 31	  0	
13-Apr-2013	sub2310	2310	  2	  0	 40	  1	  1	  2	  2	  5	  1	  2	  1	0.24659	  1	0.90000	  0	 12	 30	 31	  1	
13-Apr-2013	sub2310	2310	  2	  0	 41	  1	  1	  5	  4	  4	  0	  1	  0	0.25381	  1	0.90000	  0	 15	 37	 48	  1	
13-Apr-2013	sub2310	2310	  2	  0	 42	  1	  1	  2	  2	  5	  1	  2	  1	0.31592	  1	0.90000	  0	 12	 30	 31	  1	
13-Apr-2013	sub2310	2310	  2	  0	 43	  1	  1	  4	  3	  5	  1	  2	  1	0.25886	  1	0.90000	  0	 14	 32	 33	  1	
13-Apr-2013	sub2310	2310	  2	  0	 44	  1	  1	  6	  5	  5	  0	  2	  0	0.27688	  1	0.80000	  0	 16	 37	 48	  1	
13-Apr-2013	sub2310	2310	  2	  0	 45	  1	  1	  3	  6	  5	  1	  2	  0	0.32474	  0	0.80000	  0	 13	 42	 43	  1	
13-Apr-2013	sub2310	2310	  2	  0	 46	  1	  1	  1	  1	  1	  1	  1	  1	0.10056	  1	0.80000	  0	 11	 30	 31	  1	
13-Apr-2013	sub2310	2310	  2	  0	 47	  1	  1	  6	  5	  5	  0	  1	  1	0.05332	  0	0.80000	  0	 16	 47	 38	  1	
13-Apr-2013	sub2310	2310	  2	  0	 48	  1	  1	  3	  6	  5	  1	  1	  1	0.25512	  1	0.80000	  0	 13	 32	 33	  1	
13-Apr-2013	sub2310	2310	  2	  0	 49	  1	  1	  4	  3	  5	  1	  1	  0	0.35169	  0	0.80000	  0	 14	 42	 43	  1	
13-Apr-2013	sub2310	2310	  2	  0	 50	  1	  1	  4	  3	  5	  1	  1	  0	0.30410	  0	0.80000	  0	 14	 42	 43	  1	
13-Apr-2013	sub2310	2310	  2	  0	 51	  1	  1	  2	  2	  5	  1	  2	  1	0.34459	  1	0.70000	  0	 12	 30	 31	  1	
13-Apr-2013	sub2310	2310	  2	  0	 52	  1	  1	  2	  2	  5	  1	  2	  1	0.32110	  1	0.70000	  0	 12	 30	 31	  1	
13-Apr-2013	sub2310	2310	  2	  0	 53	  1	  1	  6	  5	  5	  1	  2	  1	0.31681	  1	0.70000	  0	 16	 35	 36	  1	
13-Apr-2013	sub2310	2310	  2	  0	 54	  1	  1	  6	  5	  5	  0	  2	  0	0.30975	  1	0.70000	  0	 16	 37	 48	  1	
13-Apr-2013	sub2310	2310	  2	  0	 55	  1	  1	  4	  3	  5	  0	  1	  1	0.17573	  0	0.70000	  0	 14	 44	 39	  1	
13-Apr-2013	sub2310	2310	  2	  0	 56	  1	  1	  2	  2	  5	  1	  1	  0	0.28358	  0	0.70000	  0	 12	 40	 41	  1	
13-Apr-2013	sub2310	2310	  2	  0	 57	  1	  1	  3	  6	  5	  1	  2	  0	0.02668	  0	0.70000	  0	 13	 42	 43	  1	
13-Apr-2013	sub2310	2310	  2	  0	 58	  1	  1	  2	  2	  5	  1	  2	  1	0.19813	  1	0.70000	  0	 12	 30	 31	  1	
13-Apr-2013	sub2310	2310	  2	  0	 59	  1	  1	  4	  3	  5	  1	  2	  1	0.30707	  1	0.70000	  0	 14	 32	 33	  1	
13-Apr-2013	sub2310	2310	  2	  0	 60	  1	  1	  6	  5	  5	  1	  2	  1	0.24778	  1	0.70000	  0	 16	 35	 36	  1	
13-Apr-2013	sub2310	2310	  2	  0	 61	  1	  1	  5	  4	  4	  0	  1	  0	0.10429	  1	0.60000	  0	 15	 37	 48	  1	
13-Apr-2013	sub2310	2310	  2	  0	 62	  1	  1	  4	  3	  5	  1	  1	  0	0.16364	  0	0.60000	  0	 14	 42	 43	  1	
13-Apr-2013	sub2310	2310	  2	  0	 63	  1	  1	  6	  5	  5	  0	  1	  1	0.06686	  0	0.60000	  0	 16	 47	 38	  1	
13-Apr-2013	sub2310	2310	  2	  0	 64	  1	  1	  1	  1	  1	  1	  1	  1	0.29154	  1	0.60000	  0	 11	 30	 31	  1	
13-Apr-2013	sub2310	2310	  2	  0	 65	  1	  1	  1	  1	  1	  1	  1	  1	0.30740	  1	0.60000	  0	 11	 30	 31	  1	
13-Apr-2013	sub2310	2310	  2	  0	 66	  1	  1	  5	  4	  4	  1	  1	  1	0.30729	  1	0.60000	  0	 15	 35	 36	  1	
13-Apr-2013	sub2310	2310	  2	  0	 67	  1	  1	  5	  4	  4	  0	  1	  0	0.43643	  1	0.60000	  0	 15	 37	 48	  1	
13-Apr-2013	sub2310	2310	  2	  0	 68	  1	  1	  6	  5	  5	  0	  1	  1	0.38307	  0	0.60000	  0	 16	 47	 38	  1	
13-Apr-2013	sub2310	2310	  2	  0	 69	  1	  1	  5	  4	  4	  1	  2	  0	0.31072	  0	0.60000	  0	 15	 45	 46	  1	
13-Apr-2013	sub2310	2310	  2	  0	 70	  1	  1	  1	  1	  1	  1	  2	  0	0.22272	  0	0.60000	  0	 11	 40	 41	  1	
13-Apr-2013	sub2310	2310	  2	  0	 71	  1	  1	  4	  3	  5	  1	  1	  0	0.61176	  0	0.60000	  1	 14	 42	 51	  0	
13-Apr-2013	sub2310	2310	  2	  0	 72	  1	  1	  3	  6	  5	  1	  1	  1	0.21180	  1	0.70000	  0	 13	 32	 33	  1	
13-Apr-2013	sub2310	2310	  2	  0	 73	  1	  1	  5	  4	  4	  1	  1	  1	0.27562	  1	0.70000	  0	 15	 35	 36	  1	
13-Apr-2013	sub2310	2310	  2	  0	 74	  1	  1	  2	  2	  5	  1	  1	  0	0.29403	  0	0.70000	  0	 12	 40	 41	  1	
13-Apr-2013	sub2310	2310	  2	  0	 75	  1	  1	  5	  4	  4	  0	  2	  1	0.36963	  0	0.70000	  0	 15	 47	 38	  1	
13-Apr-2013	sub2310	2310	  2	  0	  1	  2	  1	  1	  1	  4	  1	  1	  1	0.69083	  1	0.60000	  1	 11	 30	 51	  0	
13-Apr-2013	sub2310	2310	  2	  0	  2	  2	  1	  3	  4	  3	  1	  1	  1	0.00017	  1	0.90000	  0	 13	 32	 33	  1	
13-Apr-2013	sub2310	2310	  2	  0	  3	  2	  1	  1	  1	  4	  1	  1	  1	0.00024	  1	0.90000	  0	 11	 30	 31	  1	
13-Apr-2013	sub2310	2310	  2	  0	  4	  2	  1	  3	  4	  3	  1	  1	  1	0.00021	  1	0.90000	  0	 13	 32	 33	  1	
13-Apr-2013	sub2310	2310	  2	  0	  5	  2	  1	  2	  3	  3	  1	  2	  1	0.66239	  1	0.90000	  0	 12	 30	 31	  0	
13-Apr-2013	sub2310	2310	  2	  0	  6	  2	  1	  2	  3	  3	  1	  1	  0	0.30451	  0	0.90000	  0	 12	 40	 41	  1	
13-Apr-2013	sub2310	2310	  2	  0	  7	  2	  1	  6	  6	  6	  1	  1	  0	0.00010	  0	0.90000	  0	 16	 45	 46	  1	
13-Apr-2013	sub2310	2310	  2	  0	  8	  2	  1	  6	  6	  6	  1	  1	  0	0.10421	  0	0.90000	  0	 16	 45	 46	  1	
13-Apr-2013	sub2310	2310	  2	  0	  9	  2	  1	  1	  1	  4	  1	  2	  0	0.19573	  0	0.90000	  0	 11	 40	 41	  1	
13-Apr-2013	sub2310	2310	  2	  0	 10	  2	  1	  2	  3	  3	  1	  2	  1	0.00093	  1	0.90000	  0	 12	 30	 31	  1	
13-Apr-2013	sub2310	2310	  2	  0	 11	  2	  1	  5	  5	  6	  0	  2	  1	0.00017	  0	0.90000	  0	 15	 47	 38	  1	
13-Apr-2013	sub2310	2310	  2	  0	 12	  2	  1	  1	  1	  4	  1	  1	  1	0.26657	  1	0.90000	  0	 11	 30	 31	  1	
13-Apr-2013	sub2310	2310	  2	  0	 13	  2	  1	  6	  6	  6	  1	  1	  0	0.32294	  0	0.90000	  0	 16	 45	 46	  1	
13-Apr-2013	sub2310	2310	  2	  0	 14	  2	  1	  4	  2	  3	  1	  1	  0	0.24402	  0	0.90000	  0	 14	 42	 43	  1	
13-Apr-2013	sub2310	2310	  2	  0	 15	  2	  1	  2	  3	  3	  1	  2	  1	0.02589	  1	0.90000	  0	 12	 30	 31	  1	
13-Apr-2013	sub2310	2310	  2	  0	 16	  2	  1	  5	  5	  6	  0	  2	  1	0.27018	  0	0.80000	  0	 15	 47	 38	  1	
13-Apr-2013	sub2310	2310	  2	  0	 17	  2	  1	  3	  4	  3	  1	  2	  0	0.17319	  0	0.80000	  0	 13	 42	 43	  1	
13-Apr-2013	sub2310	2310	  2	  0	 18	  2	  1	  6	  6	  6	  1	  1	  0	0.00009	  0	0.70000	  0	 16	 45	 46	  1	
13-Apr-2013	sub2310	2310	  2	  0	 19	  2	  1	  4	  2	  3	  1	  2	  1	0.17046	  1	0.70000	  0	 14	 32	 33	  1	
13-Apr-2013	sub2310	2310	  2	  0	 20	  2	  1	  6	  6	  6	  1	  2	  1	0.00143	  1	0.70000	  0	 16	 35	 36	  1	
13-Apr-2013	sub2310	2310	  2	  0	 21	  2	  1	  4	  2	  3	  1	  2	  1	0.00018	  1	0.60000	  0	 14	 32	 33	  1	
13-Apr-2013	sub2310	2310	  2	  0	 22	  2	  1	  5	  5	  6	  0	  2	  1	0.20949	  0	0.60000	  0	 15	 47	 38	  1	
13-Apr-2013	sub2310	2310	  2	  0	 23	  2	  1	  2	  3	  3	  1	  2	  1	0.23558	  1	0.60000	  0	 12	 30	 31	  1	
13-Apr-2013	sub2310	2310	  2	  0	 24	  2	  1	  4	  2	  3	  1	  2	  1	0.29476	  1	0.60000	  0	 14	 32	 33	  1	
13-Apr-2013	sub2310	2310	  2	  0	 25	  2	  1	  1	  1	  4	  1	  2	  0	0.31559	  0	0.60000	  0	 11	 40	 41	  1	
13-Apr-2013	sub2310	2310	  2	  0	 26	  2	  1	  4	  2	  3	  1	  1	  0	0.07550	  0	0.50000	  0	 14	 42	 43	  1	
13-Apr-2013	sub2310	2310	  2	  0	 27	  2	  1	  4	  2	  3	  0	  2	  0	0.60258	  1	0.50000	  1	 14	 34	 51	  0	
13-Apr-2013	sub2310	2310	  2	  0	 28	  2	  1	  1	  1	  4	  1	  2	  0	0.09320	  0	0.90000	  0	 11	 40	 41	  1	
13-Apr-2013	sub2310	2310	  2	  0	 29	  2	  1	  1	  1	  4	  1	  2	  0	0.19723	  0	0.90000	  0	 11	 40	 41	  1	
13-Apr-2013	sub2310	2310	  2	  0	 30	  2	  1	  5	  5	  6	  1	  1	  1	0.05019	  1	0.80000	  0	 15	 35	 36	  1	
13-Apr-2013	sub2310	2310	  2	  0	 31	  2	  1	  4	  2	  3	  0	  1	  1	0.17402	  0	0.80000	  0	 14	 44	 39	  1	
13-Apr-2013	sub2310	2310	  2	  0	 32	  2	  1	  3	  4	  3	  0	  1	  0	0.07229	  1	0.80000	  0	 13	 34	 49	  1	
13-Apr-2013	sub2310	2310	  2	  0	 33	  2	  1	  6	  6	  6	  0	  2	  0	0.27154	  1	0.80000	  0	 16	 37	 48	  1	
13-Apr-2013	sub2310	2310	  2	  0	 34	  2	  1	  3	  4	  3	  0	  1	  0	0.00010	  1	0.80000	  0	 13	 34	 49	  1	
13-Apr-2013	sub2310	2310	  2	  0	 35	  2	  1	  2	  3	  3	  1	  1	  0	2.09543	  0	0.70000	  1	 12	 40	 51	  0	
13-Apr-2013	sub2310	2310	  2	  0	 36	  2	  1	  6	  6	  6	  0	  1	  1	0.16099	  0	0.90000	  0	 16	 47	 38	  1	
13-Apr-2013	sub2310	2310	  2	  0	 37	  2	  1	  3	  4	  3	  1	  1	  1	0.00093	  1	0.90000	  0	 13	 32	 33	  1	
13-Apr-2013	sub2310	2310	  2	  0	 38	  2	  1	  3	  4	  3	  1	  1	  1	0.00224	  1	0.90000	  0	 13	 32	 33	  1	
13-Apr-2013	sub2310	2310	  2	  0	 39	  2	  1	  2	  3	  3	  1	  1	  0	0.00009	  0	0.90000	  0	 12	 40	 41	  1	
13-Apr-2013	sub2310	2310	  2	  0	 40	  2	  1	  1	  1	  4	  1	  2	  0	0.34414	  0	0.90000	  0	 11	 40	 41	  1	
13-Apr-2013	sub2310	2310	  2	  0	 41	  2	  1	  6	  6	  6	  0	  1	  1	0.00018	  0	0.90000	  0	 16	 47	 38	  1	
13-Apr-2013	sub2310	2310	  2	  0	 42	  2	  1	  3	  4	  3	  1	  1	  1	0.00010	  1	0.90000	  0	 13	 32	 33	  1	
13-Apr-2013	sub2310	2310	  2	  0	 43	  2	  1	  1	  1	  4	  1	  1	  1	2.19167	  1	0.90000	  1	 11	 30	 51	  0	
13-Apr-2013	sub2310	2310	  2	  0	 44	  2	  1	  6	  6	  6	  0	  1	  1	0.35173	  0	0.90000	  0	 16	 47	 38	  1	
13-Apr-2013	sub2310	2310	  2	  0	 45	  2	  1	  1	  1	  4	  1	  1	  1	0.70610	  1	0.90000	  0	 11	 30	 31	  0	
13-Apr-2013	sub2310	2310	  2	  0	 46	  2	  1	  5	  5	  6	  0	  2	  1	0.13788	  0	0.90000	  0	 15	 47	 38	  1	
13-Apr-2013	sub2310	2310	  2	  0	 47	  2	  1	  2	  3	  3	  1	  2	  1	0.00009	  1	0.90000	  0	 12	 30	 31	  1	
13-Apr-2013	sub2310	2310	  2	  0	 48	  2	  1	  5	  5	  6	  1	  1	  1	0.36973	  1	0.90000	  0	 15	 35	 36	  1	
13-Apr-2013	sub2310	2310	  2	  0	 49	  2	  1	  6	  6	  6	  0	  1	  1	0.36232	  0	0.90000	  0	 16	 47	 38	  1	
13-Apr-2013	sub2310	2310	  2	  0	 50	  2	  1	  1	  1	  4	  1	  1	  1	0.25104	  1	0.90000	  0	 11	 30	 31	  1	
13-Apr-2013	sub2310	2310	  2	  0	 51	  2	  1	  3	  4	  3	  1	  2	  0	0.05174	  0	0.90000	  0	 13	 42	 43	  1	
13-Apr-2013	sub2310	2310	  2	  0	 52	  2	  1	  6	  6	  6	  0	  2	  0	0.00021	  1	0.90000	  0	 16	 37	 48	  1	
13-Apr-2013	sub2310	2310	  2	  0	 53	  2	  1	  5	  5	  6	  1	  2	  0	0.00010	  0	0.90000	  0	 15	 45	 46	  1	
13-Apr-2013	sub2310	2310	  2	  0	 54	  2	  1	  4	  2	  3	  1	  2	  1	0.42290	  1	0.90000	  0	 14	 32	 33	  1	
13-Apr-2013	sub2310	2310	  2	  0	 55	  2	  1	  2	  3	  3	  1	  2	  1	0.33164	  1	0.90000	  0	 12	 30	 31	  1	
13-Apr-2013	sub2310	2310	  2	  0	 56	  2	  1	  4	  2	  3	  1	  2	  1	0.27535	  1	0.90000	  0	 14	 32	 33	  1	
13-Apr-2013	sub2310	2310	  2	  0	 57	  2	  1	  4	  2	  3	  1	  2	  1	0.10002	  1	0.90000	  0	 14	 32	 33	  1	
13-Apr-2013	sub2310	2310	  2	  0	 58	  2	  1	  3	  4	  3	  1	  1	  1	0.14444	  1	0.90000	  0	 13	 32	 33	  1	
13-Apr-2013	sub2310	2310	  2	  0	 59	  2	  1	  1	  1	  4	  1	  1	  1	0.16692	  1	0.80000	  0	 11	 30	 31	  1	
13-Apr-2013	sub2310	2310	  2	  0	 60	  2	  1	  5	  5	  6	  0	  1	  0	0.23529	  1	0.80000	  0	 15	 37	 48	  1	
13-Apr-2013	sub2310	2310	  2	  0	 61	  2	  1	  4	  2	  3	  1	  1	  0	0.23854	  0	0.80000	  0	 14	 42	 43	  1	
13-Apr-2013	sub2310	2310	  2	  0	 62	  2	  1	  5	  5	  6	  1	  2	  0	0.14697	  0	0.80000	  0	 15	 45	 46	  1	
13-Apr-2013	sub2310	2310	  2	  0	 63	  2	  1	  6	  6	  6	  1	  1	  0	0.00010	  0	0.80000	  0	 16	 45	 46	  1	
13-Apr-2013	sub2310	2310	  2	  0	 64	  2	  1	  3	  4	  3	  0	  1	  0	0.18422	  1	0.80000	  0	 13	 34	 49	  1	
13-Apr-2013	sub2310	2310	  2	  0	 65	  2	  1	  4	  2	  3	  1	  1	  0	0.10233	  0	0.80000	  0	 14	 42	 43	  1	
13-Apr-2013	sub2310	2310	  2	  0	 66	  2	  1	  2	  3	  3	  1	  1	  0	0.45695	  0	0.80000	  0	 12	 40	 41	  1	
13-Apr-2013	sub2310	2310	  2	  0	 67	  2	  1	  3	  4	  3	  1	  2	  0	0.25152	  0	0.80000	  0	 13	 42	 43	  1	
13-Apr-2013	sub2310	2310	  2	  0	 68	  2	  1	  3	  4	  3	  1	  2	  0	0.34752	  0	0.70000	  0	 13	 42	 43	  1	
13-Apr-2013	sub2310	2310	  2	  0	 69	  2	  1	  5	  5	  6	  1	  2	  0	0.29172	  0	0.70000	  0	 15	 45	 46	  1	
13-Apr-2013	sub2310	2310	  2	  0	 70	  2	  1	  2	  3	  3	  1	  1	  0	0.50837	  0	0.70000	  0	 12	 40	 41	  0	
13-Apr-2013	sub2310	2310	  2	  0	 71	  2	  1	  5	  5	  6	  0	  1	  0	0.13308	  1	0.70000	  0	 15	 37	 48	  1	
13-Apr-2013	sub2310	2310	  2	  0	 72	  2	  1	  5	  5	  6	  1	  2	  0	0.26500	  0	0.70000	  0	 15	 45	 46	  1	
13-Apr-2013	sub2310	2310	  2	  0	 73	  2	  1	  6	  6	  6	  1	  2	  1	2.46480	  1	0.70000	  1	 16	 35	 51	  0	
13-Apr-2013	sub2310	2310	  2	  0	 74	  2	  1	  2	  3	  3	  1	  2	  1	0.40556	  1	0.80000	  0	 12	 30	 31	  1	
13-Apr-2013	sub2310	2310	  2	  0	 75	  2	  1	  2	  3	  3	  1	  2	  1	0.05548	  1	0.80000	  0	 12	 30	 31	  1	
13-Apr-2013	sub2310	2310	  2	  0	 76	  2	  2	  5	  5	  6	  0	  2	  1	0.00096	  0	0.80000	  0	 25	 87	 68	  1	
13-Apr-2013	sub2310	2310	  2	  0	 77	  2	  2	  4	  2	  3	  0	  2	  0	0.33039	  1	0.80000	  0	 24	 64	 89	  1	
13-Apr-2013	sub2310	2310	  2	  0	 78	  2	  2	  1	  1	  4	  1	  1	  1	0.34414	  1	0.80000	  0	 21	 60	 61	  1	
13-Apr-2013	sub2310	2310	  2	  0	 79	  2	  2	  4	  2	  3	  0	  1	  1	0.02152	  0	0.80000	  0	 24	 84	 69	  1	
13-Apr-2013	sub2310	2310	  2	  0	 80	  2	  2	  2	  3	  3	  1	  1	  0	0.30995	  0	0.80000	  0	 22	 80	 81	  1	
13-Apr-2013	sub2310	2310	  2	  0	 81	  2	  2	  6	  6	  6	  0	  1	  1	0.27892	  0	0.80000	  0	 26	 87	 68	  1	
13-Apr-2013	sub2310	2310	  2	  0	 82	  2	  2	  1	  1	  4	  1	  1	  1	0.26787	  1	0.80000	  0	 21	 60	 61	  1	
13-Apr-2013	sub2310	2310	  2	  0	 83	  2	  2	  3	  4	  3	  1	  1	  1	0.13796	  1	0.80000	  0	 23	 62	 63	  1	
13-Apr-2013	sub2310	2310	  2	  0	 84	  2	  2	  6	  6	  6	  1	  2	  1	0.55660	  1	0.80000	  0	 26	 65	 66	  0	
13-Apr-2013	sub2310	2310	  2	  0	 85	  2	  2	  5	  5	  6	  0	  2	  1	0.28828	  0	0.70000	  0	 25	 87	 68	  1	
13-Apr-2013	sub2310	2310	  2	  0	 86	  2	  2	  5	  5	  6	  0	  2	  1	0.30725	  0	0.70000	  0	 25	 87	 68	  1	
13-Apr-2013	sub2310	2310	  2	  0	 87	  2	  2	  6	  6	  6	  0	  1	  1	0.26134	  0	0.70000	  0	 26	 87	 68	  1	
13-Apr-2013	sub2310	2310	  2	  0	 88	  2	  2	  3	  4	  3	  1	  1	  1	0.20191	  1	0.70000	  0	 23	 62	 63	  1	
13-Apr-2013	sub2310	2310	  2	  0	 89	  2	  2	  2	  3	  3	  1	  1	  0	0.11037	  0	0.70000	  0	 22	 80	 81	  1	
13-Apr-2013	sub2310	2310	  2	  0	 90	  2	  2	  1	  1	  4	  1	  1	  1	0.53965	  1	0.70000	  0	 21	 60	 61	  0	
13-Apr-2013	sub2310	2310	  2	  0	 91	  2	  2	  5	  5	  6	  0	  1	  0	0.30702	  1	0.70000	  0	 25	 67	 88	  1	
13-Apr-2013	sub2310	2310	  2	  0	 92	  2	  2	  1	  1	  4	  1	  2	  0	0.34691	  0	0.70000	  0	 21	 80	 81	  1	
13-Apr-2013	sub2310	2310	  2	  0	 93	  2	  2	  4	  2	  3	  1	  2	  1	0.15332	  1	0.70000	  0	 24	 62	 63	  1	
13-Apr-2013	sub2310	2310	  2	  0	 94	  2	  2	  1	  1	  4	  1	  2	  0	0.59150	  0	0.70000	  0	 21	 80	 81	  0	
13-Apr-2013	sub2310	2310	  2	  0	 95	  2	  2	  3	  4	  3	  1	  2	  0	0.00021	  0	0.70000	  0	 23	 82	 83	  1	
13-Apr-2013	sub2310	2310	  2	  0	 96	  2	  2	  4	  2	  3	  0	  1	  1	0.25354	  0	0.70000	  0	 24	 84	 69	  1	
13-Apr-2013	sub2310	2310	  2	  0	 97	  2	  2	  2	  3	  3	  1	  1	  0	0.33387	  0	0.70000	  0	 22	 80	 81	  1	
13-Apr-2013	sub2310	2310	  2	  0	 98	  2	  2	  2	  3	  3	  1	  1	  0	0.42993	  0	0.70000	  0	 22	 80	 81	  1	
13-Apr-2013	sub2310	2310	  2	  0	 99	  2	  2	  6	  6	  6	  1	  1	  0	0.47636	  0	0.70000	  0	 26	 85	 86	  1	
13-Apr-2013	sub2310	2310	  2	  0	100	  2	  2	  5	  5	  6	  0	  2	  1	0.29231	  0	0.70000	  0	 25	 87	 68	  1	
13-Apr-2013	sub2310	2310	  2	  0	101	  2	  2	  6	  6	  6	  0	  2	  0	0.32433	  1	0.60000	  0	 26	 67	 88	  1	
13-Apr-2013	sub2310	2310	  2	  0	102	  2	  2	  4	  2	  3	  1	  2	  1	0.24014	  1	0.60000	  0	 24	 62	 63	  1	
13-Apr-2013	sub2310	2310	  2	  0	103	  2	  2	  3	  4	  3	  1	  2	  0	0.29807	  0	0.60000	  0	 23	 82	 83	  1	
13-Apr-2013	sub2310	2310	  2	  0	104	  2	  2	  4	  2	  3	  1	  1	  0	0.34526	  0	0.60000	  0	 24	 82	 83	  1	
13-Apr-2013	sub2310	2310	  2	  0	105	  2	  2	  6	  6	  6	  0	  2	  0	0.35083	  1	0.60000	  0	 26	 67	 88	  1	
13-Apr-2013	sub2310	2310	  2	  0	106	  2	  2	  5	  5	  6	  0	  1	  0	0.21727	  1	0.60000	  0	 25	 67	 88	  1	
13-Apr-2013	sub2310	2310	  2	  0	107	  2	  2	  2	  3	  3	  1	  1	  0	0.25120	  0	0.60000	  0	 22	 80	 81	  1	
13-Apr-2013	sub2310	2310	  2	  0	108	  2	  2	  5	  5	  6	  0	  1	  0	0.38692	  1	0.60000	  0	 25	 67	 88	  1	
13-Apr-2013	sub2310	2310	  2	  0	109	  2	  2	  1	  1	  4	  1	  1	  1	0.44573	  1	0.60000	  0	 21	 60	 61	  1	
13-Apr-2013	sub2310	2310	  2	  0	110	  2	  2	  1	  1	  4	  1	  1	  1	0.48378	  1	0.60000	  0	 21	 60	 61	  1	
13-Apr-2013	sub2310	2310	  2	  0	111	  2	  2	  5	  5	  6	  0	  1	  0	0.31934	  1	0.60000	  0	 25	 67	 88	  1	
13-Apr-2013	sub2310	2310	  2	  0	112	  2	  2	  3	  4	  3	  1	  2	  0	0.11826	  0	0.60000	  0	 23	 82	 83	  1	
13-Apr-2013	sub2310	2310	  2	  0	113	  2	  2	  3	  4	  3	  0	  2	  1	0.19395	  0	0.60000	  0	 23	 84	 69	  1	
13-Apr-2013	sub2310	2310	  2	  0	114	  2	  2	  1	  1	  4	  1	  2	  0	0.54504	  0	0.60000	  0	 21	 80	 81	  0	
13-Apr-2013	sub2310	2310	  2	  0	115	  2	  2	  5	  5	  6	  0	  1	  0	0.63886	  1	0.60000	  1	 25	 67	 51	  0	
13-Apr-2013	sub2310	2310	  2	  0	116	  2	  2	  1	  1	  4	  1	  1	  1	0.28171	  1	0.70000	  0	 21	 60	 61	  1	
13-Apr-2013	sub2310	2310	  2	  0	117	  2	  2	  6	  6	  6	  1	  1	  0	0.41736	  0	0.70000	  0	 26	 85	 86	  1	
13-Apr-2013	sub2310	2310	  2	  0	118	  2	  2	  1	  1	  4	  1	  2	  0	0.48095	  0	0.70000	  0	 21	 80	 81	  1	
13-Apr-2013	sub2310	2310	  2	  0	119	  2	  2	  5	  5	  6	  0	  2	  1	0.38904	  0	0.70000	  0	 25	 87	 68	  1	
13-Apr-2013	sub2310	2310	  2	  0	120	  2	  2	  1	  1	  4	  1	  2	  0	0.37915	  0	0.70000	  0	 21	 80	 81	  1	
13-Apr-2013	sub2310	2310	  2	  0	121	  2	  2	  4	  2	  3	  1	  1	  0	0.04333	  0	0.60000	  0	 24	 82	 83	  1	
13-Apr-2013	sub2310	2310	  2	  0	122	  2	  2	  5	  5	  6	  0	  1	  0	0.00017	  1	0.60000	  0	 25	 67	 88	  1	
13-Apr-2013	sub2310	2310	  2	  0	123	  2	  2	  4	  2	  3	  1	  1	  0	0.00092	  0	0.60000	  0	 24	 82	 83	  1	
13-Apr-2013	sub2310	2310	  2	  0	124	  2	  2	  2	  3	  3	  1	  1	  0	0.00018	  0	0.60000	  0	 22	 80	 81	  1	
13-Apr-2013	sub2310	2310	  2	  0	125	  2	  2	  4	  2	  3	  1	  1	  0	0.36545	  0	0.60000	  0	 24	 82	 83	  1	
13-Apr-2013	sub2310	2310	  2	  0	126	  2	  2	  5	  5	  6	  0	  1	  0	0.36301	  1	0.60000	  0	 25	 67	 88	  1	
13-Apr-2013	sub2310	2310	  2	  0	127	  2	  2	  3	  4	  3	  1	  2	  0	0.32670	  0	0.60000	  0	 23	 82	 83	  1	
13-Apr-2013	sub2310	2310	  2	  0	128	  2	  2	  2	  3	  3	  1	  1	  0	0.05627	  0	0.60000	  0	 22	 80	 81	  1	
13-Apr-2013	sub2310	2310	  2	  0	129	  2	  2	  3	  4	  3	  1	  2	  0	0.00093	  0	0.60000	  0	 23	 82	 83	  1	
13-Apr-2013	sub2310	2310	  2	  0	130	  2	  2	  2	  3	  3	  1	  2	  1	0.58915	  1	0.60000	  0	 22	 60	 61	  0	
13-Apr-2013	sub2310	2310	  2	  0	131	  2	  2	  4	  2	  3	  1	  2	  1	0.34051	  1	0.60000	  0	 24	 62	 63	  1	
13-Apr-2013	sub2310	2310	  2	  0	132	  2	  2	  4	  2	  3	  1	  2	  1	0.31543	  1	0.60000	  0	 24	 62	 63	  1	
13-Apr-2013	sub2310	2310	  2	  0	133	  2	  2	  6	  6	  6	  0	  2	  0	0.29591	  1	0.60000	  0	 26	 67	 88	  1	
13-Apr-2013	sub2310	2310	  2	  0	134	  2	  2	  3	  4	  3	  1	  1	  1	0.10274	  1	0.60000	  0	 23	 62	 63	  1	
13-Apr-2013	sub2310	2310	  2	  0	135	  2	  2	  3	  4	  3	  0	  1	  0	0.49972	  1	0.60000	  0	 23	 64	 89	  1	
13-Apr-2013	sub2310	2310	  2	  0	136	  2	  2	  5	  5	  6	  0	  1	  0	0.00010	  1	0.60000	  0	 25	 67	 88	  1	
13-Apr-2013	sub2310	2310	  2	  0	137	  2	  2	  3	  4	  3	  1	  1	  1	0.68452	  1	0.60000	  1	 23	 62	 51	  0	
13-Apr-2013	sub2310	2310	  2	  0	138	  2	  2	  4	  2	  3	  1	  1	  0	0.28702	  0	0.70000	  0	 24	 82	 83	  1	
13-Apr-2013	sub2310	2310	  2	  0	139	  2	  2	  1	  1	  4	  1	  1	  1	0.64682	  1	0.70000	  0	 21	 60	 61	  0	
13-Apr-2013	sub2310	2310	  2	  0	140	  2	  2	  2	  3	  3	  1	  1	  0	0.03974	  0	0.70000	  0	 22	 80	 81	  1	
13-Apr-2013	sub2310	2310	  2	  0	141	  2	  2	  6	  6	  6	  1	  1	  0	0.36210	  0	0.60000	  0	 26	 85	 86	  1	
13-Apr-2013	sub2310	2310	  2	  0	142	  2	  2	  6	  6	  6	  1	  1	  0	0.39892	  0	0.60000	  0	 26	 85	 86	  1	
13-Apr-2013	sub2310	2310	  2	  0	143	  2	  2	  2	  3	  3	  1	  2	  1	0.01313	  1	0.60000	  0	 22	 60	 61	  1	
13-Apr-2013	sub2310	2310	  2	  0	144	  2	  2	  3	  4	  3	  1	  2	  0	0.31181	  0	0.60000	  0	 23	 82	 83	  1	
13-Apr-2013	sub2310	2310	  2	  0	145	  2	  2	  6	  6	  6	  1	  2	  1	0.40452	  1	0.60000	  0	 26	 65	 66	  1	
13-Apr-2013	sub2310	2310	  2	  0	146	  2	  2	  1	  1	  4	  1	  2	  0	0.34429	  0	0.60000	  0	 21	 80	 81	  1	
13-Apr-2013	sub2310	2310	  2	  0	147	  2	  2	  2	  3	  3	  1	  2	  1	0.32402	  1	0.60000	  0	 22	 60	 61	  1	
13-Apr-2013	sub2310	2310	  2	  0	148	  2	  2	  6	  6	  6	  0	  2	  0	0.32399	  1	0.60000	  0	 26	 67	 88	  1	
13-Apr-2013	sub2310	2310	  2	  0	149	  2	  2	  4	  2	  3	  1	  1	  0	0.00034	  0	0.60000	  0	 24	 82	 83	  1	
13-Apr-2013	sub2310	2310	  2	  0	150	  2	  2	  2	  3	  3	  1	  1	  0	0.90036	  0	0.60000	  1	 22	 80	 51	  0	
13-Apr-2013	sub2310	2310	  2	  0	  1	  3	  1	  3	  1	  6	  1	  1	  1	0.41975	  1	0.60000	  0	 13	 32	 33	  1	
13-Apr-2013	sub2310	2310	  2	  0	  2	  3	  1	  6	  5	  3	  0	  1	  1	0.29821	  0	0.30000	  0	 16	 47	 38	  1	
13-Apr-2013	sub2310	2310	  2	  0	  3	  3	  1	  1	  3	  6	  1	  1	  1	0.29323	  1	0.30000	  0	 11	 30	 31	  1	
13-Apr-2013	sub2310	2310	  2	  0	  4	  3	  1	  3	  1	  6	  0	  1	  0	0.11509	  1	0.30000	  0	 13	 34	 49	  1	
13-Apr-2013	sub2310	2310	  2	  0	  5	  3	  1	  1	  3	  6	  1	  2	  0	0.41601	  0	0.30000	  1	 11	 40	 51	  1	
13-Apr-2013	sub2310	2310	  2	  0	  6	  3	  1	  2	  2	  6	  1	  2	  1	0.00010	  1	0.90000	  0	 12	 30	 31	  1	
13-Apr-2013	sub2310	2310	  2	  0	  7	  3	  1	  2	  2	  6	  1	  2	  1	0.22144	  1	0.90000	  0	 12	 30	 31	  1	
13-Apr-2013	sub2310	2310	  2	  0	  8	  3	  1	  3	  1	  6	  1	  2	  0	0.16925	  0	0.90000	  0	 13	 42	 43	  1	
13-Apr-2013	sub2310	2310	  2	  0	  9	  3	  1	  6	  5	  3	  0	  1	  1	0.25101	  0	0.90000	  0	 16	 47	 38	  1	
13-Apr-2013	sub2310	2310	  2	  0	 10	  3	  1	  1	  3	  6	  1	  1	  1	0.32181	  1	0.90000	  0	 11	 30	 31	  1	
13-Apr-2013	sub2310	2310	  2	  0	 11	  3	  1	  4	  6	  3	  0	  1	  1	0.32982	  0	0.90000	  0	 14	 44	 39	  1	
13-Apr-2013	sub2310	2310	  2	  0	 12	  3	  1	  2	  2	  6	  1	  2	  1	0.03788	  1	0.90000	  0	 12	 30	 31	  1	
13-Apr-2013	sub2310	2310	  2	  0	 13	  3	  1	  5	  4	  2	  0	  2	  1	0.58557	  0	0.90000	  0	 15	 47	 38	  0	
13-Apr-2013	sub2310	2310	  2	  0	 14	  3	  1	  4	  6	  3	  1	  2	  1	0.32529	  1	0.90000	  0	 14	 32	 33	  1	
13-Apr-2013	sub2310	2310	  2	  0	 15	  3	  1	  1	  3	  6	  1	  1	  1	0.15409	  1	0.90000	  0	 11	 30	 31	  1	
13-Apr-2013	sub2310	2310	  2	  0	 16	  3	  1	  5	  4	  2	  1	  1	  1	0.21377	  1	0.80000	  0	 15	 35	 36	  1	
13-Apr-2013	sub2310	2310	  2	  0	 17	  3	  1	  6	  5	  3	  1	  1	  0	0.29526	  0	0.80000	  0	 16	 45	 46	  1	
13-Apr-2013	sub2310	2310	  2	  0	 18	  3	  1	  2	  2	  6	  1	  2	  1	0.39227	  1	0.70000	  0	 12	 30	 31	  1	
13-Apr-2013	sub2310	2310	  2	  0	 19	  3	  1	  3	  1	  6	  1	  2	  0	0.00010	  0	0.70000	  0	 13	 42	 43	  1	
13-Apr-2013	sub2310	2310	  2	  0	 20	  3	  1	  4	  6	  3	  1	  1	  0	0.46158	  0	0.70000	  0	 14	 42	 43	  1	
13-Apr-2013	sub2310	2310	  2	  0	 21	  3	  1	  6	  5	  3	  1	  1	  0	0.45437	  0	0.60000	  0	 16	 45	 46	  1	
13-Apr-2013	sub2310	2310	  2	  0	 22	  3	  1	  4	  6	  3	  1	  1	  0	0.72134	  0	0.60000	  1	 14	 42	 51	  0	
13-Apr-2013	sub2310	2310	  2	  0	 23	  3	  1	  5	  4	  2	  1	  1	  1	0.37523	  1	0.90000	  0	 15	 35	 36	  1	
13-Apr-2013	sub2310	2310	  2	  0	 24	  3	  1	  5	  4	  2	  1	  2	  0	0.25185	  0	0.90000	  0	 15	 45	 46	  1	
13-Apr-2013	sub2310	2310	  2	  0	 25	  3	  1	  2	  2	  6	  1	  2	  1	0.15752	  1	0.90000	  0	 12	 30	 31	  1	
13-Apr-2013	sub2310	2310	  2	  0	 26	  3	  1	  2	  2	  6	  1	  2	  1	0.29928	  1	0.90000	  0	 12	 30	 31	  1	
13-Apr-2013	sub2310	2310	  2	  0	 27	  3	  1	  4	  6	  3	  1	  1	  0	0.24300	  0	0.90000	  0	 14	 42	 43	  1	
13-Apr-2013	sub2310	2310	  2	  0	 28	  3	  1	  1	  3	  6	  1	  1	  1	0.01783	  1	0.90000	  0	 11	 30	 31	  1	
13-Apr-2013	sub2310	2310	  2	  0	 29	  3	  1	  5	  4	  2	  0	  1	  0	0.00018	  1	0.90000	  0	 15	 37	 48	  1	
13-Apr-2013	sub2310	2310	  2	  0	 30	  3	  1	  1	  3	  6	  1	  2	  0	0.29217	  0	0.80000	  0	 11	 40	 41	  1	
13-Apr-2013	sub2310	2310	  2	  0	 31	  3	  1	  1	  3	  6	  1	  1	  1	0.21143	  1	0.80000	  0	 11	 30	 31	  1	
13-Apr-2013	sub2310	2310	  2	  0	 32	  3	  1	  5	  4	  2	  1	  1	  1	0.23203	  1	0.80000	  0	 15	 35	 36	  1	
13-Apr-2013	sub2310	2310	  2	  0	 33	  3	  1	  3	  1	  6	  1	  1	  1	0.03545	  1	0.80000	  0	 13	 32	 33	  1	
13-Apr-2013	sub2310	2310	  2	  0	 34	  3	  1	  2	  2	  6	  1	  2	  1	0.42269	  1	0.80000	  0	 12	 30	 31	  1	
13-Apr-2013	sub2310	2310	  2	  0	 35	  3	  1	  5	  4	  2	  0	  2	  1	0.35037	  0	0.70000	  0	 15	 47	 38	  1	
13-Apr-2013	sub2310	2310	  2	  0	 36	  3	  1	  3	  1	  6	  1	  2	  0	0.36832	  0	0.70000	  0	 13	 42	 43	  1	
13-Apr-2013	sub2310	2310	  2	  0	 37	  3	  1	  1	  3	  6	  1	  1	  1	0.31077	  1	0.70000	  0	 11	 30	 31	  1	
13-Apr-2013	sub2310	2310	  2	  0	 38	  3	  1	  4	  6	  3	  1	  1	  0	1.26605	  0	0.70000	  1	 14	 42	 51	  0	
13-Apr-2013	sub2310	2310	  2	  0	 39	  3	  1	  5	  4	  2	  0	  1	  0	0.07607	  1	0.90000	  0	 15	 37	 48	  1	
13-Apr-2013	sub2310	2310	  2	  0	 40	  3	  1	  3	  1	  6	  1	  1	  1	0.35684	  1	0.90000	  0	 13	 32	 33	  1	
13-Apr-2013	sub2310	2310	  2	  0	 41	  3	  1	  6	  5	  3	  0	  2	  0	0.52701	  1	0.90000	  0	 16	 37	 48	  0	
13-Apr-2013	sub2310	2310	  2	  0	 42	  3	  1	  4	  6	  3	  1	  1	  0	0.00143	  0	0.90000	  0	 14	 42	 43	  1	
13-Apr-2013	sub2310	2310	  2	  0	 43	  3	  1	  6	  5	  3	  0	  2	  0	0.41953	  1	0.90000	  0	 16	 37	 48	  1	
13-Apr-2013	sub2310	2310	  2	  0	 44	  3	  1	  2	  2	  6	  1	  1	  0	0.33969	  0	0.80000	  0	 12	 40	 41	  1	
13-Apr-2013	sub2310	2310	  2	  0	 45	  3	  1	  5	  4	  2	  1	  1	  1	0.68283	  1	0.80000	  0	 15	 35	 36	  0	
13-Apr-2013	sub2310	2310	  2	  0	 46	  3	  1	  6	  5	  3	  1	  1	  0	0.37128	  0	0.80000	  0	 16	 45	 46	  1	
13-Apr-2013	sub2310	2310	  2	  0	 47	  3	  1	  6	  5	  3	  0	  2	  0	0.79880	  1	0.80000	  0	 16	 37	 48	  0	
13-Apr-2013	sub2310	2310	  2	  0	 48	  3	  1	  3	  1	  6	  1	  1	  1	0.48184	  1	0.80000	  0	 13	 32	 33	  1	
13-Apr-2013	sub2310	2310	  2	  0	 49	  3	  1	  5	  4	  2	  0	  2	  1	0.63077	  0	0.80000	  0	 15	 47	 38	  0	
13-Apr-2013	sub2310	2310	  2	  0	 50	  3	  1	  3	  1	  6	  1	  1	  1	0.29737	  1	0.80000	  0	 13	 32	 33	  1	
13-Apr-2013	sub2310	2310	  2	  0	 51	  3	  1	  2	  2	  6	  1	  2	  1	0.18074	  1	0.70000	  0	 12	 30	 31	  1	
13-Apr-2013	sub2310	2310	  2	  0	 52	  3	  1	  1	  3	  6	  1	  1	  1	0.27348	  1	0.70000	  0	 11	 30	 31	  1	
13-Apr-2013	sub2310	2310	  2	  0	 53	  3	  1	  1	  3	  6	  1	  2	  0	0.44281	  0	0.70000	  0	 11	 40	 41	  1	
13-Apr-2013	sub2310	2310	  2	  0	 54	  3	  1	  6	  5	  3	  1	  2	  1	0.39805	  1	0.70000	  0	 16	 35	 36	  1	
13-Apr-2013	sub2310	2310	  2	  0	 55	  3	  1	  4	  6	  3	  1	  1	  0	0.49016	  0	0.70000	  0	 14	 42	 43	  1	
13-Apr-2013	sub2310	2310	  2	  0	 56	  3	  1	  2	  2	  6	  1	  1	  0	0.47833	  0	0.70000	  0	 12	 40	 41	  1	
13-Apr-2013	sub2310	2310	  2	  0	 57	  3	  1	  2	  2	  6	  1	  1	  0	0.41099	  0	0.70000	  0	 12	 40	 41	  1	
13-Apr-2013	sub2310	2310	  2	  0	 58	  3	  1	  4	  6	  3	  1	  2	  1	0.98047	  1	0.70000	  1	 14	 32	 51	  0	
13-Apr-2013	sub2310	2310	  2	  0	 59	  3	  1	  3	  1	  6	  1	  2	  0	0.23393	  0	0.80000	  0	 13	 42	 43	  1	
13-Apr-2013	sub2310	2310	  2	  0	 60	  3	  1	  6	  5	  3	  1	  1	  0	0.22398	  0	0.80000	  0	 16	 45	 46	  1	
13-Apr-2013	sub2310	2310	  2	  0	 61	  3	  1	  3	  1	  6	  0	  2	  1	0.14749	  0	0.80000	  0	 13	 44	 39	  1	
13-Apr-2013	sub2310	2310	  2	  0	 62	  3	  1	  6	  5	  3	  1	  2	  1	0.33541	  1	0.80000	  0	 16	 35	 36	  1	
13-Apr-2013	sub2310	2310	  2	  0	 63	  3	  1	  1	  3	  6	  1	  1	  1	0.32719	  1	0.80000	  0	 11	 30	 31	  1	
13-Apr-2013	sub2310	2310	  2	  0	 64	  3	  1	  3	  1	  6	  1	  1	  1	0.29158	  1	0.80000	  0	 13	 32	 33	  1	
13-Apr-2013	sub2310	2310	  2	  0	 65	  3	  1	  1	  3	  6	  1	  2	  0	0.36400	  0	0.80000	  0	 11	 40	 41	  1	
13-Apr-2013	sub2310	2310	  2	  0	 66	  3	  1	  5	  4	  2	  0	  2	  1	0.31828	  0	0.80000	  0	 15	 47	 38	  1	
13-Apr-2013	sub2310	2310	  2	  0	 67	  3	  1	  4	  6	  3	  0	  2	  0	0.29696	  1	0.80000	  0	 14	 34	 49	  1	
13-Apr-2013	sub2310	2310	  2	  0	 68	  3	  1	  6	  5	  3	  0	  1	  1	0.76865	  0	0.70000	  1	 16	 47	 51	  0	
13-Apr-2013	sub2310	2310	  2	  0	 69	  3	  1	  4	  6	  3	  1	  1	  0	0.10102	  0	0.90000	  0	 14	 42	 43	  1	
13-Apr-2013	sub2310	2310	  2	  0	 70	  3	  1	  6	  5	  3	  1	  2	  1	0.60265	  1	0.90000	  0	 16	 35	 36	  0	
13-Apr-2013	sub2310	2310	  2	  0	 71	  3	  1	  5	  4	  2	  1	  2	  0	0.27145	  0	0.90000	  0	 15	 45	 46	  1	
13-Apr-2013	sub2310	2310	  2	  0	 72	  3	  1	  4	  6	  3	  1	  2	  1	0.40474	  1	0.90000	  0	 14	 32	 33	  1	
13-Apr-2013	sub2310	2310	  2	  0	 73	  3	  1	  2	  2	  6	  1	  1	  0	0.26453	  0	0.80000	  0	 12	 40	 41	  1	
13-Apr-2013	sub2310	2310	  2	  0	 74	  3	  1	  3	  1	  6	  0	  1	  0	0.17722	  1	0.80000	  0	 13	 34	 49	  1	
13-Apr-2013	sub2310	2310	  2	  0	 75	  3	  1	  2	  2	  6	  1	  1	  0	0.62620	  0	0.80000	  0	 12	 40	 41	  0	
13-Apr-2013	sub2310	2310	  2	  0	 76	  3	  2	  5	  4	  2	  0	  1	  0	0.60377	  1	0.80000	  0	 25	 67	 88	  0	
13-Apr-2013	sub2310	2310	  2	  0	 77	  3	  2	  6	  5	  3	  1	  2	  1	0.44939	  1	0.80000	  0	 26	 65	 66	  1	
13-Apr-2013	sub2310	2310	  2	  0	 78	  3	  2	  3	  1	  6	  1	  2	  0	0.42352	  0	0.80000	  0	 23	 82	 83	  1	
13-Apr-2013	sub2310	2310	  2	  0	 79	  3	  2	  5	  4	  2	  0	  1	  0	0.27522	  1	0.80000	  0	 25	 67	 88	  1	
13-Apr-2013	sub2310	2310	  2	  0	 80	  3	  2	  1	  3	  6	  1	  1	  1	0.19738	  1	0.80000	  0	 21	 60	 61	  1	
13-Apr-2013	sub2310	2310	  2	  0	 81	  3	  2	  1	  3	  6	  1	  1	  1	0.30527	  1	0.80000	  0	 21	 60	 61	  1	
13-Apr-2013	sub2310	2310	  2	  0	 82	  3	  2	  6	  5	  3	  1	  1	  0	0.34105	  0	0.80000	  0	 26	 85	 86	  1	
13-Apr-2013	sub2310	2310	  2	  0	 83	  3	  2	  4	  6	  3	  1	  1	  0	0.51517	  0	0.80000	  0	 24	 82	 83	  0	
13-Apr-2013	sub2310	2310	  2	  0	 84	  3	  2	  1	  3	  6	  1	  2	  0	0.00015	  0	0.80000	  0	 21	 80	 81	  1	
13-Apr-2013	sub2310	2310	  2	  0	 85	  3	  2	  4	  6	  3	  1	  2	  1	0.32615	  1	0.70000	  0	 24	 62	 63	  1	
13-Apr-2013	sub2310	2310	  2	  0	 86	  3	  2	  1	  3	  6	  1	  2	  0	0.33598	  0	0.70000	  0	 21	 80	 81	  1	
13-Apr-2013	sub2310	2310	  2	  0	 87	  3	  2	  1	  3	  6	  1	  2	  0	0.37558	  0	0.70000	  0	 21	 80	 81	  1	
13-Apr-2013	sub2310	2310	  2	  0	 88	  3	  2	  4	  6	  3	  0	  1	  1	0.98925	  0	0.70000	  1	 24	 84	 51	  0	
13-Apr-2013	sub2310	2310	  2	  0	 89	  3	  2	  2	  2	  6	  1	  1	  0	0.36157	  0	0.80000	  0	 22	 80	 81	  1	
13-Apr-2013	sub2310	2310	  2	  0	 90	  3	  2	  6	  5	  3	  0	  1	  1	0.30748	  0	0.80000	  0	 26	 87	 68	  1	
13-Apr-2013	sub2310	2310	  2	  0	 91	  3	  2	  2	  2	  6	  1	  1	  0	0.02315	  0	0.80000	  0	 22	 80	 81	  1	
13-Apr-2013	sub2310	2310	  2	  0	 92	  3	  2	  1	  3	  6	  1	  2	  0	0.00765	  0	0.80000	  0	 21	 80	 81	  1	
13-Apr-2013	sub2310	2310	  2	  0	 93	  3	  2	  5	  4	  2	  0	  2	  1	0.07529	  0	0.80000	  0	 25	 87	 68	  1	
13-Apr-2013	sub2310	2310	  2	  0	 94	  3	  2	  1	  3	  6	  1	  2	  0	0.35144	  0	0.80000	  0	 21	 80	 81	  1	
13-Apr-2013	sub2310	2310	  2	  0	 95	  3	  2	  4	  6	  3	  1	  1	  0	0.34201	  0	0.80000	  0	 24	 82	 83	  1	
13-Apr-2013	sub2310	2310	  2	  0	 96	  3	  2	  2	  2	  6	  1	  2	  1	0.33908	  1	0.80000	  0	 22	 60	 61	  1	
13-Apr-2013	sub2310	2310	  2	  0	 97	  3	  2	  1	  3	  6	  1	  2	  0	0.30820	  0	0.80000	  0	 21	 80	 81	  1	
13-Apr-2013	sub2310	2310	  2	  0	 98	  3	  2	  4	  6	  3	  0	  1	  1	0.43114	  0	0.80000	  0	 24	 84	 69	  1	
13-Apr-2013	sub2310	2310	  2	  0	 99	  3	  2	  2	  2	  6	  1	  1	  0	0.34885	  0	0.80000	  0	 22	 80	 81	  1	
13-Apr-2013	sub2310	2310	  2	  0	100	  3	  2	  3	  1	  6	  0	  1	  0	0.40481	  1	0.80000	  0	 23	 64	 89	  1	
13-Apr-2013	sub2310	2310	  2	  0	101	  3	  2	  5	  4	  2	  0	  1	  0	0.32416	  1	0.70000	  0	 25	 67	 88	  1	
13-Apr-2013	sub2310	2310	  2	  0	102	  3	  2	  2	  2	  6	  1	  2	  1	0.30597	  1	0.70000	  0	 22	 60	 61	  1	
13-Apr-2013	sub2310	2310	  2	  0	103	  3	  2	  5	  4	  2	  0	  2	  1	0.31099	  0	0.70000	  0	 25	 87	 68	  1	
13-Apr-2013	sub2310	2310	  2	  0	104	  3	  2	  5	  4	  2	  0	  1	  0	0.65052	  1	0.70000	  0	 25	 67	 88	  0	
13-Apr-2013	sub2310	2310	  2	  0	105	  3	  2	  4	  6	  3	  1	  1	  0	0.31768	  0	0.70000	  0	 24	 82	 83	  1	
13-Apr-2013	sub2310	2310	  2	  0	106	  3	  2	  3	  1	  6	  1	  2	  0	0.29922	  0	0.70000	  0	 23	 82	 83	  1	
13-Apr-2013	sub2310	2310	  2	  0	107	  3	  2	  3	  1	  6	  1	  1	  1	0.17491	  1	0.70000	  0	 23	 62	 63	  1	
13-Apr-2013	sub2310	2310	  2	  0	108	  3	  2	  4	  6	  3	  1	  1	  0	0.00092	  0	0.70000	  0	 24	 82	 83	  1	
13-Apr-2013	sub2310	2310	  2	  0	109	  3	  2	  1	  3	  6	  1	  1	  1	0.00093	  1	0.70000	  0	 21	 60	 61	  1	
13-Apr-2013	sub2310	2310	  2	  0	110	  3	  2	  4	  6	  3	  1	  1	  0	0.31988	  0	0.70000	  0	 24	 82	 83	  1	
13-Apr-2013	sub2310	2310	  2	  0	111	  3	  2	  1	  3	  6	  1	  1	  1	0.31680	  1	0.70000	  0	 21	 60	 61	  1	
13-Apr-2013	sub2310	2310	  2	  0	112	  3	  2	  5	  4	  2	  0	  1	  0	0.35084	  1	0.70000	  0	 25	 67	 88	  1	
13-Apr-2013	sub2310	2310	  2	  0	113	  3	  2	  2	  2	  6	  1	  1	  0	0.38050	  0	0.70000	  0	 22	 80	 81	  1	
13-Apr-2013	sub2310	2310	  2	  0	114	  3	  2	  3	  1	  6	  1	  2	  0	0.34883	  0	0.70000	  0	 23	 82	 83	  1	
13-Apr-2013	sub2310	2310	  2	  0	115	  3	  2	  4	  6	  3	  1	  1	  0	0.00094	  0	0.70000	  0	 24	 82	 83	  1	
13-Apr-2013	sub2310	2310	  2	  0	116	  3	  2	  6	  5	  3	  1	  1	  0	0.00010	  0	0.70000	  0	 26	 85	 86	  1	
13-Apr-2013	sub2310	2310	  2	  0	117	  3	  2	  5	  4	  2	  0	  1	  0	0.00010	  1	0.70000	  0	 25	 67	 88	  1	
13-Apr-2013	sub2310	2310	  2	  0	118	  3	  2	  3	  1	  6	  1	  2	  0	0.33476	  0	0.70000	  0	 23	 82	 83	  1	
13-Apr-2013	sub2310	2310	  2	  0	119	  3	  2	  2	  2	  6	  1	  2	  1	0.42665	  1	0.70000	  0	 22	 60	 61	  1	
13-Apr-2013	sub2310	2310	  2	  0	120	  3	  2	  4	  6	  3	  1	  2	  1	0.62112	  1	0.70000	  0	 24	 62	 63	  0	
13-Apr-2013	sub2310	2310	  2	  0	121	  3	  2	  3	  1	  6	  1	  2	  0	0.31107	  0	0.60000	  0	 23	 82	 83	  1	
13-Apr-2013	sub2310	2310	  2	  0	122	  3	  2	  4	  6	  3	  0	  1	  1	0.38906	  0	0.60000	  0	 24	 84	 69	  1	
13-Apr-2013	sub2310	2310	  2	  0	123	  3	  2	  5	  4	  2	  0	  1	  0	0.39222	  1	0.60000	  0	 25	 67	 88	  1	
13-Apr-2013	sub2310	2310	  2	  0	124	  3	  2	  6	  5	  3	  1	  2	  1	0.30535	  1	0.60000	  0	 26	 65	 66	  1	
13-Apr-2013	sub2310	2310	  2	  0	125	  3	  2	  6	  5	  3	  1	  2	  1	0.26106	  1	0.60000	  0	 26	 65	 66	  1	
13-Apr-2013	sub2310	2310	  2	  0	126	  3	  2	  5	  4	  2	  0	  2	  1	0.32926	  0	0.60000	  0	 25	 87	 68	  1	
13-Apr-2013	sub2310	2310	  2	  0	127	  3	  2	  5	  4	  2	  0	  2	  1	0.46031	  0	0.60000	  0	 25	 87	 68	  1	
13-Apr-2013	sub2310	2310	  2	  0	128	  3	  2	  2	  2	  6	  1	  2	  1	0.34158	  1	0.60000	  0	 22	 60	 61	  1	
13-Apr-2013	sub2310	2310	  2	  0	129	  3	  2	  3	  1	  6	  1	  2	  0	0.28829	  0	0.60000	  0	 23	 82	 83	  1	
13-Apr-2013	sub2310	2310	  2	  0	130	  3	  2	  2	  2	  6	  1	  2	  1	0.86261	  1	0.60000	  1	 22	 60	 51	  0	
13-Apr-2013	sub2310	2310	  2	  0	131	  3	  2	  6	  5	  3	  0	  2	  0	0.68543	  1	0.70000	  0	 26	 67	 88	  0	
13-Apr-2013	sub2310	2310	  2	  0	132	  3	  2	  6	  5	  3	  0	  1	  1	0.14687	  0	0.70000	  0	 26	 87	 68	  1	
13-Apr-2013	sub2310	2310	  2	  0	133	  3	  2	  2	  2	  6	  1	  1	  0	0.23287	  0	0.70000	  0	 22	 80	 81	  1	
13-Apr-2013	sub2310	2310	  2	  0	134	  3	  2	  6	  5	  3	  1	  1	  0	0.51797	  0	0.70000	  0	 26	 85	 86	  0	
13-Apr-2013	sub2310	2310	  2	  0	135	  3	  2	  2	  2	  6	  1	  2	  1	0.49375	  1	0.70000	  0	 22	 60	 61	  1	
13-Apr-2013	sub2310	2310	  2	  0	136	  3	  2	  5	  4	  2	  0	  2	  1	0.28261	  0	0.70000	  0	 25	 87	 68	  1	
13-Apr-2013	sub2310	2310	  2	  0	137	  3	  2	  3	  1	  6	  1	  2	  0	0.14912	  0	0.70000	  0	 23	 82	 83	  1	
13-Apr-2013	sub2310	2310	  2	  0	138	  3	  2	  1	  3	  6	  1	  2	  0	0.43184	  0	0.70000	  0	 21	 80	 81	  1	
13-Apr-2013	sub2310	2310	  2	  0	139	  3	  2	  3	  1	  6	  1	  1	  1	0.41604	  1	0.70000	  0	 23	 62	 63	  1	
13-Apr-2013	sub2310	2310	  2	  0	140	  3	  2	  3	  1	  6	  0	  2	  1	0.29146	  0	0.70000	  0	 23	 84	 69	  1	
13-Apr-2013	sub2310	2310	  2	  0	141	  3	  2	  2	  2	  6	  1	  2	  1	0.50516	  1	0.60000	  0	 22	 60	 61	  0	
13-Apr-2013	sub2310	2310	  2	  0	142	  3	  2	  5	  4	  2	  0	  1	  0	0.33749	  1	0.60000	  0	 25	 67	 88	  1	
13-Apr-2013	sub2310	2310	  2	  0	143	  3	  2	  6	  5	  3	  0	  1	  1	0.37119	  0	0.60000	  0	 26	 87	 68	  1	
13-Apr-2013	sub2310	2310	  2	  0	144	  3	  2	  4	  6	  3	  1	  1	  0	0.58975	  0	0.60000	  0	 24	 82	 83	  0	
13-Apr-2013	sub2310	2310	  2	  0	145	  3	  2	  3	  1	  6	  1	  2	  0	0.35047	  0	0.60000	  0	 23	 82	 83	  1	
13-Apr-2013	sub2310	2310	  2	  0	146	  3	  2	  6	  5	  3	  0	  1	  1	0.47205	  0	0.60000	  0	 26	 87	 68	  1	
13-Apr-2013	sub2310	2310	  2	  0	147	  3	  2	  1	  3	  6	  1	  1	  1	0.31833	  1	0.60000	  0	 21	 60	 61	  1	
13-Apr-2013	sub2310	2310	  2	  0	148	  3	  2	  6	  5	  3	  0	  1	  1	0.43929	  0	0.60000	  0	 26	 87	 68	  1	
13-Apr-2013	sub2310	2310	  2	  0	149	  3	  2	  1	  3	  6	  1	  1	  1	0.37873	  1	0.60000	  0	 21	 60	 61	  1	
13-Apr-2013	sub2310	2310	  2	  0	150	  3	  2	  4	  6	  3	  1	  1	  0	0.33240	  0	0.60000	  0	 24	 82	 83	  1	
13-Apr-2013	sub2310	2310	  2	  0	  1	  4	  1	  1	  5	  2	  1	  1	  1	0.49473	  1	0.60000	  0	 11	 30	 31	  1	
13-Apr-2013	sub2310	2310	  2	  0	  2	  4	  1	  3	  4	  6	  0	  1	  0	0.35815	  1	0.30000	  1	 13	 34	 51	  1	
13-Apr-2013	sub2310	2310	  2	  0	  3	  4	  1	  6	  1	  3	  0	  1	  1	0.08425	  0	0.90000	  0	 16	 47	 38	  1	
13-Apr-2013	sub2310	2310	  2	  0	  4	  4	  1	  2	  6	  2	  1	  2	  1	0.32510	  1	0.90000	  0	 12	 30	 31	  1	
13-Apr-2013	sub2310	2310	  2	  0	  5	  4	  1	  6	  1	  3	  0	  2	  0	0.34937	  1	0.90000	  0	 16	 37	 48	  1	
13-Apr-2013	sub2310	2310	  2	  0	  6	  4	  1	  1	  5	  2	  1	  1	  1	0.37159	  1	0.90000	  0	 11	 30	 31	  1	
13-Apr-2013	sub2310	2310	  2	  0	  7	  4	  1	  4	  2	  1	  1	  1	  0	0.39761	  0	0.90000	  0	 14	 42	 43	  1	
13-Apr-2013	sub2310	2310	  2	  0	  8	  4	  1	  4	  2	  1	  1	  1	  0	0.41638	  0	0.90000	  0	 14	 42	 43	  1	
13-Apr-2013	sub2310	2310	  2	  0	  9	  4	  1	  3	  4	  6	  0	  2	  1	0.51691	  0	0.90000	  0	 13	 44	 39	  0	
13-Apr-2013	sub2310	2310	  2	  0	 10	  4	  1	  1	  5	  2	  1	  1	  1	0.34585	  1	0.90000	  0	 11	 30	 31	  1	
13-Apr-2013	sub2310	2310	  2	  0	 11	  4	  1	  5	  3	  1	  1	  1	  1	0.40131	  1	0.90000	  0	 15	 35	 36	  1	
13-Apr-2013	sub2310	2310	  2	  0	 12	  4	  1	  2	  6	  2	  1	  2	  1	0.40574	  1	0.90000	  0	 12	 30	 31	  1	
13-Apr-2013	sub2310	2310	  2	  0	 13	  4	  1	  6	  1	  3	  1	  2	  1	0.45043	  1	0.90000	  0	 16	 35	 36	  1	
13-Apr-2013	sub2310	2310	  2	  0	 14	  4	  1	  5	  3	  1	  0	  1	  0	0.40486	  1	0.90000	  0	 15	 37	 48	  1	
13-Apr-2013	sub2310	2310	  2	  0	 15	  4	  1	  5	  3	  1	  0	  1	  0	0.36433	  1	0.90000	  0	 15	 37	 48	  1	
13-Apr-2013	sub2310	2310	  2	  0	 16	  4	  1	  2	  6	  2	  1	  2	  1	0.31113	  1	0.80000	  0	 12	 30	 31	  1	
13-Apr-2013	sub2310	2310	  2	  0	 17	  4	  1	  6	  1	  3	  0	  2	  0	0.35490	  1	0.80000	  0	 16	 37	 48	  1	
13-Apr-2013	sub2310	2310	  2	  0	 18	  4	  1	  5	  3	  1	  0	  1	  0	0.78996	  1	0.70000	  1	 15	 37	 51	  0	
13-Apr-2013	sub2310	2310	  2	  0	 19	  4	  1	  2	  6	  2	  1	  1	  0	0.12969	  0	0.90000	  0	 12	 40	 41	  1	
13-Apr-2013	sub2310	2310	  2	  0	 20	  4	  1	  1	  5	  2	  1	  2	  0	0.56732	  0	0.90000	  0	 11	 40	 41	  0	
13-Apr-2013	sub2310	2310	  2	  0	 21	  4	  1	  1	  5	  2	  1	  2	  0	0.29204	  0	0.90000	  0	 11	 40	 41	  1	
13-Apr-2013	sub2310	2310	  2	  0	 22	  4	  1	  6	  1	  3	  1	  1	  0	0.40027	  0	0.90000	  0	 16	 45	 46	  1	
13-Apr-2013	sub2310	2310	  2	  0	 23	  4	  1	  6	  1	  3	  1	  2	  1	0.39674	  1	0.90000	  0	 16	 35	 36	  1	
13-Apr-2013	sub2310	2310	  2	  0	 24	  4	  1	  2	  6	  2	  1	  2	  1	0.30888	  1	0.90000	  0	 12	 30	 31	  1	
13-Apr-2013	sub2310	2310	  2	  0	 25	  4	  1	  3	  4	  6	  0	  2	  1	0.38528	  0	0.90000	  0	 13	 44	 39	  1	
13-Apr-2013	sub2310	2310	  2	  0	 26	  4	  1	  1	  5	  2	  1	  2	  0	0.42884	  0	0.90000	  0	 11	 40	 41	  1	
13-Apr-2013	sub2310	2310	  2	  0	 27	  4	  1	  6	  1	  3	  0	  1	  1	0.35463	  0	0.90000	  0	 16	 47	 38	  1	
13-Apr-2013	sub2310	2310	  2	  0	 28	  4	  1	  1	  5	  2	  1	  1	  1	0.35391	  1	0.90000	  0	 11	 30	 31	  1	
13-Apr-2013	sub2310	2310	  2	  0	 29	  4	  1	  1	  5	  2	  1	  2	  0	0.34934	  0	0.90000	  0	 11	 40	 41	  1	
13-Apr-2013	sub2310	2310	  2	  0	 30	  4	  1	  2	  6	  2	  1	  2	  1	0.51219	  1	0.80000	  0	 12	 30	 31	  0	
13-Apr-2013	sub2310	2310	  2	  0	 31	  4	  1	  4	  2	  1	  0	  2	  0	0.47124	  1	0.80000	  0	 14	 34	 49	  1	
13-Apr-2013	sub2310	2310	  2	  0	 32	  4	  1	  4	  2	  1	  1	  1	  0	0.50772	  0	0.80000	  0	 14	 42	 43	  0	
13-Apr-2013	sub2310	2310	  2	  0	 33	  4	  1	  6	  1	  3	  0	  2	  0	0.53623	  1	0.80000	  0	 16	 37	 48	  0	
13-Apr-2013	sub2310	2310	  2	  0	 34	  4	  1	  3	  4	  6	  1	  2	  0	0.35751	  0	0.80000	  0	 13	 42	 43	  1	
13-Apr-2013	sub2310	2310	  2	  0	 35	  4	  1	  5	  3	  1	  1	  1	  1	0.35967	  1	0.70000	  0	 15	 35	 36	  1	
13-Apr-2013	sub2310	2310	  2	  0	 36	  4	  1	  5	  3	  1	  0	  1	  0	0.32978	  1	0.70000	  0	 15	 37	 48	  1	
13-Apr-2013	sub2310	2310	  2	  0	 37	  4	  1	  2	  6	  2	  1	  2	  1	0.41602	  1	0.70000	  0	 12	 30	 31	  1	
13-Apr-2013	sub2310	2310	  2	  0	 38	  4	  1	  6	  1	  3	  1	  2	  1	0.38453	  1	0.70000	  0	 16	 35	 36	  1	
13-Apr-2013	sub2310	2310	  2	  0	 39	  4	  1	  2	  6	  2	  1	  2	  1	0.31666	  1	0.70000	  0	 12	 30	 31	  1	
13-Apr-2013	sub2310	2310	  2	  0	 40	  4	  1	  1	  5	  2	  1	  2	  0	0.33359	  0	0.70000	  0	 11	 40	 41	  1	
13-Apr-2013	sub2310	2310	  2	  0	 41	  4	  1	  5	  3	  1	  1	  1	  1	0.35686	  1	0.60000	  0	 15	 35	 36	  1	
13-Apr-2013	sub2310	2310	  2	  0	 42	  4	  1	  4	  2	  1	  1	  1	  0	0.33684	  0	0.60000	  0	 14	 42	 43	  1	
13-Apr-2013	sub2310	2310	  2	  0	 43	  4	  1	  2	  6	  2	  1	  2	  1	0.34364	  1	0.60000	  0	 12	 30	 31	  1	
13-Apr-2013	sub2310	2310	  2	  0	 44	  4	  1	  2	  6	  2	  1	  2	  1	0.44690	  1	0.60000	  0	 12	 30	 31	  1	
13-Apr-2013	sub2310	2310	  2	  0	 45	  4	  1	  3	  4	  6	  1	  2	  0	0.28919	  0	0.60000	  0	 13	 42	 43	  1	
13-Apr-2013	sub2310	2310	  2	  0	 46	  4	  1	  4	  2	  1	  1	  1	  0	0.88757	  0	0.60000	  1	 14	 42	 51	  0	
13-Apr-2013	sub2310	2310	  2	  0	 47	  4	  1	  6	  1	  3	  1	  1	  0	0.22296	  0	0.80000	  0	 16	 45	 46	  1	
13-Apr-2013	sub2310	2310	  2	  0	 48	  4	  1	  4	  2	  1	  1	  1	  0	0.27139	  0	0.80000	  0	 14	 42	 43	  1	
13-Apr-2013	sub2310	2310	  2	  0	 49	  4	  1	  1	  5	  2	  1	  1	  1	0.30618	  1	0.80000	  0	 11	 30	 31	  1	
13-Apr-2013	sub2310	2310	  2	  0	 50	  4	  1	  3	  4	  6	  1	  1	  1	0.38819	  1	0.80000	  0	 13	 32	 33	  1	
13-Apr-2013	sub2310	2310	  2	  0	 51	  4	  1	  6	  1	  3	  1	  1	  0	0.37783	  0	0.70000	  0	 16	 45	 46	  1	
13-Apr-2013	sub2310	2310	  2	  0	 52	  4	  1	  5	  3	  1	  0	  1	  0	0.41385	  1	0.70000	  0	 15	 37	 48	  1	
13-Apr-2013	sub2310	2310	  2	  0	 53	  4	  1	  3	  4	  6	  1	  1	  1	0.38692	  1	0.70000	  0	 13	 32	 33	  1	
13-Apr-2013	sub2310	2310	  2	  0	 54	  4	  1	  5	  3	  1	  1	  1	  1	0.37451	  1	0.70000	  0	 15	 35	 36	  1	
13-Apr-2013	sub2310	2310	  2	  0	 55	  4	  1	  3	  4	  6	  1	  1	  1	0.34959	  1	0.70000	  0	 13	 32	 33	  1	
13-Apr-2013	sub2310	2310	  2	  0	 56	  4	  1	  3	  4	  6	  1	  1	  1	0.33444	  1	0.70000	  0	 13	 32	 33	  1	
13-Apr-2013	sub2310	2310	  2	  0	 57	  4	  1	  5	  3	  1	  1	  1	  1	0.32191	  1	0.70000	  0	 15	 35	 36	  1	
13-Apr-2013	sub2310	2310	  2	  0	 58	  4	  1	  1	  5	  2	  1	  1	  1	0.35147	  1	0.70000	  0	 11	 30	 31	  1	
13-Apr-2013	sub2310	2310	  2	  0	 59	  4	  1	  2	  6	  2	  1	  1	  0	0.51701	  0	0.70000	  0	 12	 40	 41	  0	
13-Apr-2013	sub2310	2310	  2	  0	 60	  4	  1	  3	  4	  6	  1	  2	  0	0.39193	  0	0.70000	  0	 13	 42	 43	  1	
13-Apr-2013	sub2310	2310	  2	  0	 61	  4	  1	  6	  1	  3	  0	  2	  0	0.25408	  1	0.60000	  0	 16	 37	 48	  1	
13-Apr-2013	sub2310	2310	  2	  0	 62	  4	  1	  4	  2	  1	  1	  1	  0	0.31699	  0	0.60000	  0	 14	 42	 43	  1	
13-Apr-2013	sub2310	2310	  2	  0	 63	  4	  1	  3	  4	  6	  1	  2	  0	0.01543	  0	0.60000	  0	 13	 42	 43	  1	
13-Apr-2013	sub2310	2310	  2	  0	 64	  4	  1	  2	  6	  2	  1	  1	  0	1.69497	  0	0.60000	  1	 12	 40	 51	  0	
13-Apr-2013	sub2310	2310	  2	  0	 65	  4	  1	  5	  3	  1	  1	  1	  1	0.21637	  1	0.80000	  0	 15	 35	 36	  1	
13-Apr-2013	sub2310	2310	  2	  0	 66	  4	  1	  2	  6	  2	  1	  1	  0	0.28416	  0	0.80000	  0	 12	 40	 41	  1	
13-Apr-2013	sub2310	2310	  2	  0	 67	  4	  1	  5	  3	  1	  0	  1	  0	0.33815	  1	0.80000	  0	 15	 37	 48	  1	
13-Apr-2013	sub2310	2310	  2	  0	 68	  4	  1	  4	  2	  1	  0	  2	  0	0.36963	  1	0.70000	  0	 14	 34	 49	  1	
13-Apr-2013	sub2310	2310	  2	  0	 69	  4	  1	  6	  1	  3	  0	  1	  1	0.22864	  0	0.70000	  0	 16	 47	 38	  1	
13-Apr-2013	sub2310	2310	  2	  0	 70	  4	  1	  3	  4	  6	  1	  1	  1	0.41046	  1	0.70000	  0	 13	 32	 33	  1	
13-Apr-2013	sub2310	2310	  2	  0	 71	  4	  1	  4	  2	  1	  1	  1	  0	0.35774	  0	0.70000	  0	 14	 42	 43	  1	
13-Apr-2013	sub2310	2310	  2	  0	 72	  4	  1	  4	  2	  1	  1	  1	  0	0.36291	  0	0.70000	  0	 14	 42	 43	  1	
13-Apr-2013	sub2310	2310	  2	  0	 73	  4	  1	  3	  4	  6	  1	  1	  1	0.43314	  1	0.70000	  0	 13	 32	 33	  1	
13-Apr-2013	sub2310	2310	  2	  0	 74	  4	  1	  4	  2	  1	  1	  1	  0	0.52461	  0	0.70000	  0	 14	 42	 43	  0	
13-Apr-2013	sub2310	2310	  2	  0	 75	  4	  1	  1	  5	  2	  1	  2	  0	0.38133	  0	0.70000	  0	 11	 40	 41	  1	
13-Apr-2013	sub2310	2310	  2	  0	 76	  4	  2	  1	  5	  2	  1	  2	  0	0.34969	  0	0.70000	  0	 21	 80	 81	  1	
13-Apr-2013	sub2310	2310	  2	  0	 77	  4	  2	  4	  2	  1	  0	  1	  1	0.31621	  0	0.70000	  0	 24	 84	 69	  1	
13-Apr-2013	sub2310	2310	  2	  0	 78	  4	  2	  6	  1	  3	  1	  1	  0	0.38634	  0	0.70000	  0	 26	 85	 86	  1	
13-Apr-2013	sub2310	2310	  2	  0	 79	  4	  2	  3	  4	  6	  1	  1	  1	0.00143	  1	0.70000	  0	 23	 62	 63	  1	
13-Apr-2013	sub2310	2310	  2	  0	 80	  4	  2	  1	  5	  2	  1	  1	  1	0.48244	  1	0.70000	  0	 21	 60	 61	  1	
13-Apr-2013	sub2310	2310	  2	  0	 81	  4	  2	  2	  6	  2	  1	  1	  0	0.39682	  0	0.60000	  0	 22	 80	 81	  1	
13-Apr-2013	sub2310	2310	  2	  0	 82	  4	  2	  5	  3	  1	  0	  1	  0	0.88728	  1	0.60000	  1	 25	 67	 51	  0	
13-Apr-2013	sub2310	2310	  2	  0	 83	  4	  2	  3	  4	  6	  1	  1	  1	0.35637	  1	0.80000	  0	 23	 62	 63	  1	
13-Apr-2013	sub2310	2310	  2	  0	 84	  4	  2	  3	  4	  6	  1	  1	  1	0.28089	  1	0.80000	  0	 23	 62	 63	  1	
13-Apr-2013	sub2310	2310	  2	  0	 85	  4	  2	  1	  5	  2	  1	  1	  1	0.31657	  1	0.70000	  0	 21	 60	 61	  1	
13-Apr-2013	sub2310	2310	  2	  0	 86	  4	  2	  4	  2	  1	  1	  1	  0	0.37406	  0	0.70000	  0	 24	 82	 83	  1	
13-Apr-2013	sub2310	2310	  2	  0	 87	  4	  2	  3	  4	  6	  1	  1	  1	0.60466	  1	0.70000	  0	 23	 62	 63	  0	
13-Apr-2013	sub2310	2310	  2	  0	 88	  4	  2	  3	  4	  6	  1	  1	  1	1.09253	  1	0.70000	  1	 23	 62	 51	  0	
13-Apr-2013	sub2310	2310	  2	  0	 89	  4	  2	  1	  5	  2	  1	  1	  1	0.64822	  1	0.80000	  0	 21	 60	 61	  0	
13-Apr-2013	sub2310	2310	  2	  0	 90	  4	  2	  1	  5	  2	  1	  1	  1	0.41007	  1	0.80000	  0	 21	 60	 61	  1	
13-Apr-2013	sub2310	2310	  2	  0	 91	  4	  2	  2	  6	  2	  1	  1	  0	0.33579	  0	0.80000	  0	 22	 80	 81	  1	
13-Apr-2013	sub2310	2310	  2	  0	 92	  4	  2	  4	  2	  1	  1	  1	  0	0.29545	  0	0.80000	  0	 24	 82	 83	  1	
13-Apr-2013	sub2310	2310	  2	  0	 93	  4	  2	  5	  3	  1	  0	  2	  1	0.52771	  0	0.80000	  0	 25	 87	 68	  0	
13-Apr-2013	sub2310	2310	  2	  0	 94	  4	  2	  3	  4	  6	  1	  2	  0	0.40929	  0	0.80000	  0	 23	 82	 83	  1	
13-Apr-2013	sub2310	2310	  2	  0	 95	  4	  2	  5	  3	  1	  0	  1	  0	0.43238	  1	0.80000	  0	 25	 67	 88	  1	
13-Apr-2013	sub2310	2310	  2	  0	 96	  4	  2	  2	  6	  2	  1	  2	  1	0.35020	  1	0.80000	  0	 22	 60	 61	  1	
13-Apr-2013	sub2310	2310	  2	  0	 97	  4	  2	  6	  1	  3	  1	  2	  1	0.33088	  1	0.80000	  0	 26	 65	 66	  1	
13-Apr-2013	sub2310	2310	  2	  0	 98	  4	  2	  5	  3	  1	  0	  2	  1	0.38759	  0	0.80000	  0	 25	 87	 68	  1	
13-Apr-2013	sub2310	2310	  2	  0	 99	  4	  2	  4	  2	  1	  1	  2	  1	0.31441	  1	0.80000	  0	 24	 62	 63	  1	
13-Apr-2013	sub2310	2310	  2	  0	100	  4	  2	  2	  6	  2	  1	  2	  1	0.37505	  1	0.80000	  0	 22	 60	 61	  1	
13-Apr-2013	sub2310	2310	  2	  0	101	  4	  2	  6	  1	  3	  0	  2	  0	0.36047	  1	0.70000	  0	 26	 67	 88	  1	
13-Apr-2013	sub2310	2310	  2	  0	102	  4	  2	  3	  4	  6	  1	  1	  1	0.60132	  1	0.70000	  0	 23	 62	 63	  0	
13-Apr-2013	sub2310	2310	  2	  0	103	  4	  2	  4	  2	  1	  0	  1	  1	0.36430	  0	0.70000	  0	 24	 84	 69	  1	
13-Apr-2013	sub2310	2310	  2	  0	104	  4	  2	  5	  3	  1	  0	  1	  0	0.23864	  1	0.70000	  0	 25	 67	 88	  1	
13-Apr-2013	sub2310	2310	  2	  0	105	  4	  2	  6	  1	  3	  1	  1	  0	0.26879	  0	0.70000	  0	 26	 85	 86	  1	
13-Apr-2013	sub2310	2310	  2	  0	106	  4	  2	  6	  1	  3	  0	  1	  1	0.36716	  0	0.70000	  0	 26	 87	 68	  1	
13-Apr-2013	sub2310	2310	  2	  0	107	  4	  2	  5	  3	  1	  0	  1	  0	0.64257	  1	0.70000	  0	 25	 67	 88	  0	
13-Apr-2013	sub2310	2310	  2	  0	108	  4	  2	  6	  1	  3	  0	  2	  0	0.40620	  1	0.70000	  0	 26	 67	 88	  1	
13-Apr-2013	sub2310	2310	  2	  0	109	  4	  2	  6	  1	  3	  0	  2	  0	0.50621	  1	0.70000	  0	 26	 67	 88	  0	
13-Apr-2013	sub2310	2310	  2	  0	110	  4	  2	  1	  5	  2	  1	  2	  0	0.48170	  0	0.70000	  0	 21	 80	 81	  1	
13-Apr-2013	sub2310	2310	  2	  0	111	  4	  2	  2	  6	  2	  1	  2	  1	0.47828	  1	0.70000	  0	 22	 60	 61	  1	
13-Apr-2013	sub2310	2310	  2	  0	112	  4	  2	  4	  2	  1	  1	  2	  1	0.43240	  1	0.70000	  0	 24	 62	 63	  1	
13-Apr-2013	sub2310	2310	  2	  0	113	  4	  2	  6	  1	  3	  0	  2	  0	0.19961	  1	0.70000	  0	 26	 67	 88	  1	
13-Apr-2013	sub2310	2310	  2	  0	114	  4	  2	  5	  3	  1	  0	  2	  1	0.47712	  0	0.70000	  0	 25	 87	 68	  1	
13-Apr-2013	sub2310	2310	  2	  0	115	  4	  2	  2	  6	  2	  1	  2	  1	0.43419	  1	0.70000	  0	 22	 60	 61	  1	
13-Apr-2013	sub2310	2310	  2	  0	116	  4	  2	  6	  1	  3	  1	  2	  1	0.36592	  1	0.70000	  0	 26	 65	 66	  1	
13-Apr-2013	sub2310	2310	  2	  0	117	  4	  2	  4	  2	  1	  1	  2	  1	0.51054	  1	0.70000	  0	 24	 62	 63	  0	
13-Apr-2013	sub2310	2310	  2	  0	118	  4	  2	  2	  6	  2	  1	  1	  0	0.38681	  0	0.70000	  0	 22	 80	 81	  1	
13-Apr-2013	sub2310	2310	  2	  0	119	  4	  2	  2	  6	  2	  1	  1	  0	0.41557	  0	0.70000	  0	 22	 80	 81	  1	
13-Apr-2013	sub2310	2310	  2	  0	120	  4	  2	  4	  2	  1	  1	  1	  0	0.57701	  0	0.70000	  0	 24	 82	 83	  0	
13-Apr-2013	sub2310	2310	  2	  0	121	  4	  2	  1	  5	  2	  1	  2	  0	0.44473	  0	0.60000	  0	 21	 80	 81	  1	
13-Apr-2013	sub2310	2310	  2	  0	122	  4	  2	  5	  3	  1	  0	  2	  1	0.49515	  0	0.60000	  0	 25	 87	 68	  1	
13-Apr-2013	sub2310	2310	  2	  0	123	  4	  2	  3	  4	  6	  0	  2	  1	0.61945	  0	0.60000	  1	 23	 84	 51	  0	
13-Apr-2013	sub2310	2310	  2	  0	124	  4	  2	  3	  4	  6	  0	  2	  1	0.33371	  0	0.70000	  0	 23	 84	 69	  1	
13-Apr-2013	sub2310	2310	  2	  0	125	  4	  2	  5	  3	  1	  0	  2	  1	0.39598	  0	0.70000	  0	 25	 87	 68	  1	
13-Apr-2013	sub2310	2310	  2	  0	126	  4	  2	  5	  3	  1	  0	  2	  1	0.47352	  0	0.70000	  0	 25	 87	 68	  1	
13-Apr-2013	sub2310	2310	  2	  0	127	  4	  2	  2	  6	  2	  1	  2	  1	0.30837	  1	0.70000	  0	 22	 60	 61	  1	
13-Apr-2013	sub2310	2310	  2	  0	128	  4	  2	  3	  4	  6	  1	  2	  0	0.30923	  0	0.70000	  0	 23	 82	 83	  1	
13-Apr-2013	sub2310	2310	  2	  0	129	  4	  2	  3	  4	  6	  1	  1	  1	0.58800	  1	0.70000	  0	 23	 62	 63	  0	
13-Apr-2013	sub2310	2310	  2	  0	130	  4	  2	  1	  5	  2	  1	  2	  0	0.38540	  0	0.70000	  0	 21	 80	 81	  1	
13-Apr-2013	sub2310	2310	  2	  0	131	  4	  2	  4	  2	  1	  1	  2	  1	0.42359	  1	0.70000	  0	 24	 62	 63	  1	
13-Apr-2013	sub2310	2310	  2	  0	132	  4	  2	  2	  6	  2	  1	  2	  1	0.44877	  1	0.70000	  0	 22	 60	 61	  1	
13-Apr-2013	sub2310	2310	  2	  0	133	  4	  2	  4	  2	  1	  1	  2	  1	0.37431	  1	0.70000	  0	 24	 62	 63	  1	
13-Apr-2013	sub2310	2310	  2	  0	134	  4	  2	  1	  5	  2	  1	  2	  0	0.31044	  0	0.70000	  0	 21	 80	 81	  1	
13-Apr-2013	sub2310	2310	  2	  0	135	  4	  2	  1	  5	  2	  1	  1	  1	0.38618	  1	0.70000	  0	 21	 60	 61	  1	
13-Apr-2013	sub2310	2310	  2	  0	136	  4	  2	  3	  4	  6	  1	  2	  0	0.31562	  0	0.70000	  0	 23	 82	 83	  1	
13-Apr-2013	sub2310	2310	  2	  0	137	  4	  2	  4	  2	  1	  0	  2	  0	0.32745	  1	0.70000	  0	 24	 64	 89	  1	
13-Apr-2013	sub2310	2310	  2	  0	138	  4	  2	  6	  1	  3	  0	  1	  1	0.34352	  0	0.70000	  0	 26	 87	 68	  1	
13-Apr-2013	sub2310	2310	  2	  0	139	  4	  2	  2	  6	  2	  1	  1	  0	0.33805	  0	0.70000	  0	 22	 80	 81	  1	
13-Apr-2013	sub2310	2310	  2	  0	140	  4	  2	  5	  3	  1	  0	  2	  1	0.32673	  0	0.70000	  0	 25	 87	 68	  1	
13-Apr-2013	sub2310	2310	  2	  0	141	  4	  2	  1	  5	  2	  1	  2	  0	0.38096	  0	0.60000	  0	 21	 80	 81	  1	
13-Apr-2013	sub2310	2310	  2	  0	142	  4	  2	  6	  1	  3	  1	  2	  1	0.35395	  1	0.60000	  0	 26	 65	 66	  1	
13-Apr-2013	sub2310	2310	  2	  0	143	  4	  2	  4	  2	  1	  1	  2	  1	0.33382	  1	0.60000	  0	 24	 62	 63	  1	
13-Apr-2013	sub2310	2310	  2	  0	144	  4	  2	  1	  5	  2	  1	  2	  0	0.29966	  0	0.60000	  0	 21	 80	 81	  1	
13-Apr-2013	sub2310	2310	  2	  0	145	  4	  2	  4	  2	  1	  1	  2	  1	0.30870	  1	0.60000	  0	 24	 62	 63	  1	
13-Apr-2013	sub2310	2310	  2	  0	146	  4	  2	  5	  3	  1	  0	  2	  1	0.39661	  0	0.60000	  0	 25	 87	 68	  1	
13-Apr-2013	sub2310	2310	  2	  0	147	  4	  2	  6	  1	  3	  1	  2	  1	0.34852	  1	0.60000	  0	 26	 65	 66	  1	
13-Apr-2013	sub2310	2310	  2	  0	148	  4	  2	  5	  3	  1	  0	  2	  1	0.27986	  0	0.60000	  0	 25	 87	 68	  1	
13-Apr-2013	sub2310	2310	  2	  0	149	  4	  2	  1	  5	  2	  1	  2	  0	0.27725	  0	0.60000	  0	 21	 80	 81	  1	
13-Apr-2013	sub2310	2310	  2	  0	150	  4	  2	  2	  6	  2	  1	  1	  0	0.80972	  0	0.60000	  1	 22	 80	 51	  0	
13-Apr-2013	sub2310	2310	  2	  0	  1	  5	  1	  6	  5	  4	  0	  1	  1	0.63406	  0	0.60000	  1	 16	 47	 51	  0	
13-Apr-2013	sub2310	2310	  2	  0	  2	  5	  1	  2	  4	  1	  1	  1	  0	0.29266	  0	0.90000	  0	 12	 40	 41	  1	
13-Apr-2013	sub2310	2310	  2	  0	  3	  5	  1	  4	  2	  4	  1	  2	  1	0.11537	  1	0.90000	  0	 14	 32	 33	  1	
13-Apr-2013	sub2310	2310	  2	  0	  4	  5	  1	  1	  3	  4	  1	  2	  0	0.35160	  0	0.90000	  0	 11	 40	 41	  1	
13-Apr-2013	sub2310	2310	  2	  0	  5	  5	  1	  6	  5	  4	  0	  1	  1	0.32496	  0	0.90000	  0	 16	 47	 38	  1	
13-Apr-2013	sub2310	2310	  2	  0	  6	  5	  1	  6	  5	  4	  1	  1	  0	0.30011	  0	0.90000	  0	 16	 45	 46	  1	
13-Apr-2013	sub2310	2310	  2	  0	  7	  5	  1	  3	  1	  5	  1	  1	  1	0.28064	  1	0.90000	  0	 13	 32	 33	  1	
13-Apr-2013	sub2310	2310	  2	  0	  8	  5	  1	  5	  6	  4	  0	  1	  0	0.34579	  1	0.90000	  0	 15	 37	 48	  1	
13-Apr-2013	sub2310	2310	  2	  0	  9	  5	  1	  4	  2	  4	  0	  2	  0	0.43613	  1	0.90000	  0	 14	 34	 49	  1	
13-Apr-2013	sub2310	2310	  2	  0	 10	  5	  1	  4	  2	  4	  1	  1	  0	0.37483	  0	0.90000	  0	 14	 42	 43	  1	
13-Apr-2013	sub2310	2310	  2	  0	 11	  5	  1	  6	  5	  4	  0	  1	  1	0.46446	  0	0.90000	  0	 16	 47	 38	  1	
13-Apr-2013	sub2310	2310	  2	  0	 12	  5	  1	  4	  2	  4	  1	  1	  0	0.36476	  0	0.90000	  0	 14	 42	 43	  1	
13-Apr-2013	sub2310	2310	  2	  0	 13	  5	  1	  6	  5	  4	  0	  2	  0	0.33307	  1	0.90000	  0	 16	 37	 48	  1	
13-Apr-2013	sub2310	2310	  2	  0	 14	  5	  1	  4	  2	  4	  1	  1	  0	0.28956	  0	0.90000	  0	 14	 42	 43	  1	
13-Apr-2013	sub2310	2310	  2	  0	 15	  5	  1	  1	  3	  4	  1	  1	  1	0.31555	  1	0.90000	  0	 11	 30	 31	  1	
13-Apr-2013	sub2310	2310	  2	  0	 16	  5	  1	  2	  4	  1	  1	  1	  0	0.35070	  0	0.80000	  0	 12	 40	 41	  1	
13-Apr-2013	sub2310	2310	  2	  0	 17	  5	  1	  1	  3	  4	  1	  1	  1	0.52674	  1	0.80000	  0	 11	 30	 31	  0	
13-Apr-2013	sub2310	2310	  2	  0	 18	  5	  1	  2	  4	  1	  1	  1	  0	0.34544	  0	0.70000	  0	 12	 40	 41	  1	
13-Apr-2013	sub2310	2310	  2	  0	 19	  5	  1	  3	  1	  5	  1	  1	  1	0.40848	  1	0.70000	  0	 13	 32	 33	  1	
13-Apr-2013	sub2310	2310	  2	  0	 20	  5	  1	  5	  6	  4	  1	  1	  1	0.41436	  1	0.70000	  0	 15	 35	 36	  1	
13-Apr-2013	sub2310	2310	  2	  0	 21	  5	  1	  6	  5	  4	  1	  1	  0	0.43673	  0	0.60000	  0	 16	 45	 46	  1	
13-Apr-2013	sub2310	2310	  2	  0	 22	  5	  1	  3	  1	  5	  1	  1	  1	0.35151	  1	0.60000	  0	 13	 32	 33	  1	
13-Apr-2013	sub2310	2310	  2	  0	 23	  5	  1	  1	  3	  4	  1	  1	  1	0.41432	  1	0.60000	  0	 11	 30	 31	  1	
13-Apr-2013	sub2310	2310	  2	  0	 24	  5	  1	  3	  1	  5	  1	  1	  1	0.35099	  1	0.60000	  0	 13	 32	 33	  1	
13-Apr-2013	sub2310	2310	  2	  0	 25	  5	  1	  2	  4	  1	  1	  1	  0	0.41101	  0	0.60000	  0	 12	 40	 41	  1	
13-Apr-2013	sub2310	2310	  2	  0	 26	  5	  1	  4	  2	  4	  1	  2	  1	0.00017	  1	0.50000	  0	 14	 32	 33	  1	
13-Apr-2013	sub2310	2310	  2	  0	 27	  5	  1	  4	  2	  4	  1	  2	  1	0.25744	  1	0.50000	  0	 14	 32	 33	  1	
13-Apr-2013	sub2310	2310	  2	  0	 28	  5	  1	  2	  4	  1	  1	  2	  1	0.38636	  1	0.50000	  0	 12	 30	 31	  1	
13-Apr-2013	sub2310	2310	  2	  0	 29	  5	  1	  3	  1	  5	  0	  1	  0	0.35926	  1	0.50000	  0	 13	 34	 49	  1	
13-Apr-2013	sub2310	2310	  2	  0	 30	  5	  1	  6	  5	  4	  0	  1	  1	0.37736	  0	0.50000	  0	 16	 47	 38	  1	
13-Apr-2013	sub2310	2310	  2	  0	 31	  5	  1	  6	  5	  4	  1	  1	  0	0.56782	  0	0.50000	  1	 16	 45	 51	  0	
13-Apr-2013	sub2310	2310	  2	  0	 32	  5	  1	  5	  6	  4	  0	  1	  0	0.41471	  1	0.80000	  0	 15	 37	 48	  1	
13-Apr-2013	sub2310	2310	  2	  0	 33	  5	  1	  1	  3	  4	  1	  1	  1	0.29150	  1	0.80000	  0	 11	 30	 31	  1	
13-Apr-2013	sub2310	2310	  2	  0	 34	  5	  1	  3	  1	  5	  1	  1	  1	0.29192	  1	0.80000	  0	 13	 32	 33	  1	
13-Apr-2013	sub2310	2310	  2	  0	 35	  5	  1	  4	  2	  4	  1	  1	  0	0.29787	  0	0.70000	  0	 14	 42	 43	  1	
13-Apr-2013	sub2310	2310	  2	  0	 36	  5	  1	  1	  3	  4	  1	  1	  1	0.43670	  1	0.70000	  0	 11	 30	 31	  1	
13-Apr-2013	sub2310	2310	  2	  0	 37	  5	  1	  1	  3	  4	  1	  1	  1	0.32142	  1	0.70000	  0	 11	 30	 31	  1	
13-Apr-2013	sub2310	2310	  2	  0	 38	  5	  1	  3	  1	  5	  1	  1	  1	0.30719	  1	0.70000	  0	 13	 32	 33	  1	
13-Apr-2013	sub2310	2310	  2	  0	 39	  5	  1	  5	  6	  4	  0	  1	  0	0.18867	  1	0.70000	  0	 15	 37	 48	  1	
13-Apr-2013	sub2310	2310	  2	  0	 40	  5	  1	  3	  1	  5	  1	  2	  0	0.35717	  0	0.70000	  0	 13	 42	 43	  1	
13-Apr-2013	sub2310	2310	  2	  0	 41	  5	  1	  4	  2	  4	  1	  2	  1	0.31965	  1	0.60000	  0	 14	 32	 33	  1	
13-Apr-2013	sub2310	2310	  2	  0	 42	  5	  1	  2	  4	  1	  1	  2	  1	0.38509	  1	0.60000	  0	 12	 30	 31	  1	
13-Apr-2013	sub2310	2310	  2	  0	 43	  5	  1	  2	  4	  1	  1	  2	  1	0.32569	  1	0.60000	  0	 12	 30	 31	  1	
13-Apr-2013	sub2310	2310	  2	  0	 44	  5	  1	  1	  3	  4	  1	  2	  0	0.20934	  0	0.60000	  0	 11	 40	 41	  1	
13-Apr-2013	sub2310	2310	  2	  0	 45	  5	  1	  2	  4	  1	  1	  1	  0	0.53367	  0	0.60000	  0	 12	 40	 41	  0	
13-Apr-2013	sub2310	2310	  2	  0	 46	  5	  1	  6	  5	  4	  0	  1	  1	0.43764	  0	0.60000	  0	 16	 47	 38	  1	
13-Apr-2013	sub2310	2310	  2	  0	 47	  5	  1	  5	  6	  4	  1	  1	  1	0.36530	  1	0.60000	  0	 15	 35	 36	  1	
13-Apr-2013	sub2310	2310	  2	  0	 48	  5	  1	  5	  6	  4	  1	  1	  1	0.35372	  1	0.60000	  0	 15	 35	 36	  1	
13-Apr-2013	sub2310	2310	  2	  0	 49	  5	  1	  1	  3	  4	  1	  1	  1	0.36325	  1	0.60000	  0	 11	 30	 31	  1	
13-Apr-2013	sub2310	2310	  2	  0	 50	  5	  1	  5	  6	  4	  1	  1	  1	0.49612	  1	0.60000	  0	 15	 35	 36	  1	
13-Apr-2013	sub2310	2310	  2	  0	 51	  5	  1	  6	  5	  4	  1	  1	  0	0.49026	  0	0.50000	  0	 16	 45	 46	  1	
13-Apr-2013	sub2310	2310	  2	  0	 52	  5	  1	  1	  3	  4	  1	  1	  1	0.71540	  1	0.50000	  1	 11	 30	 51	  0	
13-Apr-2013	sub2310	2310	  2	  0	 53	  5	  1	  2	  4	  1	  1	  1	  0	0.27968	  0	0.70000	  0	 12	 40	 41	  1	
13-Apr-2013	sub2310	2310	  2	  0	 54	  5	  1	  5	  6	  4	  1	  1	  1	0.34586	  1	0.70000	  0	 15	 35	 36	  1	
13-Apr-2013	sub2310	2310	  2	  0	 55	  5	  1	  6	  5	  4	  0	  1	  1	0.51288	  0	0.70000	  0	 16	 47	 38	  0	
13-Apr-2013	sub2310	2310	  2	  0	 56	  5	  1	  3	  1	  5	  0	  2	  1	0.42784	  0	0.70000	  0	 13	 44	 39	  1	
13-Apr-2013	sub2310	2310	  2	  0	 57	  5	  1	  2	  4	  1	  1	  1	  0	0.41968	  0	0.70000	  0	 12	 40	 41	  1	
13-Apr-2013	sub2310	2310	  2	  0	 58	  5	  1	  3	  1	  5	  1	  1	  1	0.34767	  1	0.70000	  0	 13	 32	 33	  1	
13-Apr-2013	sub2310	2310	  2	  0	 59	  5	  1	  1	  3	  4	  1	  2	  0	0.53561	  0	0.70000	  0	 11	 40	 41	  0	
13-Apr-2013	sub2310	2310	  2	  0	 60	  5	  1	  3	  1	  5	  0	  1	  0	0.68959	  1	0.70000	  0	 13	 34	 49	  0	
13-Apr-2013	sub2310	2310	  2	  0	 61	  5	  1	  3	  1	  5	  1	  2	  0	0.29489	  0	0.60000	  0	 13	 42	 43	  1	
13-Apr-2013	sub2310	2310	  2	  0	 62	  5	  1	  5	  6	  4	  0	  2	  1	0.35855	  0	0.60000	  0	 15	 47	 38	  1	
13-Apr-2013	sub2310	2310	  2	  0	 63	  5	  1	  4	  2	  4	  0	  2	  0	0.54252	  1	0.60000	  0	 14	 34	 49	  0	
13-Apr-2013	sub2310	2310	  2	  0	 64	  5	  1	  6	  5	  4	  1	  1	  0	0.34161	  0	0.60000	  0	 16	 45	 46	  1	
13-Apr-2013	sub2310	2310	  2	  0	 65	  5	  1	  2	  4	  1	  1	  2	  1	0.45816	  1	0.60000	  0	 12	 30	 31	  1	
13-Apr-2013	sub2310	2310	  2	  0	 66	  5	  1	  5	  6	  4	  0	  2	  1	0.36395	  0	0.60000	  0	 15	 47	 38	  1	
13-Apr-2013	sub2310	2310	  2	  0	 67	  5	  1	  4	  2	  4	  1	  2	  1	0.40537	  1	0.60000	  0	 14	 32	 33	  1	
13-Apr-2013	sub2310	2310	  2	  0	 68	  5	  1	  6	  5	  4	  1	  2	  1	0.31888	  1	0.60000	  0	 16	 35	 36	  1	
13-Apr-2013	sub2310	2310	  2	  0	 69	  5	  1	  2	  4	  1	  1	  2	  1	0.31304	  1	0.60000	  0	 12	 30	 31	  1	
13-Apr-2013	sub2310	2310	  2	  0	 70	  5	  1	  2	  4	  1	  1	  2	  1	0.33529	  1	0.60000	  0	 12	 30	 31	  1	
13-Apr-2013	sub2310	2310	  2	  0	 71	  5	  1	  3	  1	  5	  1	  1	  1	0.28341	  1	0.60000	  0	 13	 32	 33	  1	
13-Apr-2013	sub2310	2310	  2	  0	 72	  5	  1	  5	  6	  4	  1	  1	  1	0.37398	  1	0.60000	  0	 15	 35	 36	  1	
13-Apr-2013	sub2310	2310	  2	  0	 73	  5	  1	  4	  2	  4	  1	  1	  0	0.27965	  0	0.60000	  0	 14	 42	 43	  1	
13-Apr-2013	sub2310	2310	  2	  0	 74	  5	  1	  1	  3	  4	  1	  2	  0	0.31110	  0	0.60000	  0	 11	 40	 41	  1	
13-Apr-2013	sub2310	2310	  2	  0	 75	  5	  1	  5	  6	  4	  1	  2	  0	0.61091	  0	0.60000	  1	 15	 45	 51	  0	
13-Apr-2013	sub2310	2310	  2	  0	 76	  5	  2	  2	  4	  1	  1	  2	  1	0.25563	  1	0.70000	  0	 22	 60	 61	  1	
13-Apr-2013	sub2310	2310	  2	  0	 77	  5	  2	  4	  2	  4	  1	  2	  1	0.35750	  1	0.70000	  0	 24	 62	 63	  1	
13-Apr-2013	sub2310	2310	  2	  0	 78	  5	  2	  4	  2	  4	  1	  2	  1	0.37034	  1	0.70000	  0	 24	 62	 63	  1	
13-Apr-2013	sub2310	2310	  2	  0	 79	  5	  2	  5	  6	  4	  0	  2	  1	0.16964	  0	0.70000	  0	 25	 87	 68	  1	
13-Apr-2013	sub2310	2310	  2	  0	 80	  5	  2	  2	  4	  1	  1	  2	  1	0.33315	  1	0.70000	  0	 22	 60	 61	  1	
13-Apr-2013	sub2310	2310	  2	  0	 81	  5	  2	  6	  5	  4	  1	  2	  1	0.38636	  1	0.60000	  0	 26	 65	 66	  1	
13-Apr-2013	sub2310	2310	  2	  0	 82	  5	  2	  1	  3	  4	  1	  2	  0	0.46988	  0	0.60000	  0	 21	 80	 81	  1	
13-Apr-2013	sub2310	2310	  2	  0	 83	  5	  2	  4	  2	  4	  1	  2	  1	0.31946	  1	0.60000	  0	 24	 62	 63	  1	
13-Apr-2013	sub2310	2310	  2	  0	 84	  5	  2	  3	  1	  5	  1	  2	  0	0.29994	  0	0.60000	  0	 23	 82	 83	  1	
13-Apr-2013	sub2310	2310	  2	  0	 85	  5	  2	  1	  3	  4	  1	  2	  0	0.32177	  0	0.60000	  0	 21	 80	 81	  1	
13-Apr-2013	sub2310	2310	  2	  0	 86	  5	  2	  1	  3	  4	  1	  2	  0	0.33560	  0	0.60000	  0	 21	 80	 81	  1	
13-Apr-2013	sub2310	2310	  2	  0	 87	  5	  2	  2	  4	  1	  1	  1	  0	0.00018	  0	0.60000	  0	 22	 80	 81	  1	
13-Apr-2013	sub2310	2310	  2	  0	 88	  5	  2	  6	  5	  4	  0	  2	  0	0.85243	  1	0.60000	  1	 26	 67	 51	  0	
13-Apr-2013	sub2310	2310	  2	  0	 89	  5	  2	  5	  6	  4	  0	  2	  1	0.00021	  0	0.70000	  0	 25	 87	 68	  1	
13-Apr-2013	sub2310	2310	  2	  0	 90	  5	  2	  4	  2	  4	  0	  2	  0	0.27529	  1	0.70000	  0	 24	 64	 89	  1	
13-Apr-2013	sub2310	2310	  2	  0	 91	  5	  2	  5	  6	  4	  0	  2	  1	0.40552	  0	0.70000	  0	 25	 87	 68	  1	
13-Apr-2013	sub2310	2310	  2	  0	 92	  5	  2	  1	  3	  4	  1	  2	  0	0.35588	  0	0.70000	  0	 21	 80	 81	  1	
13-Apr-2013	sub2310	2310	  2	  0	 93	  5	  2	  3	  1	  5	  1	  2	  0	0.29830	  0	0.70000	  0	 23	 82	 83	  1	
13-Apr-2013	sub2310	2310	  2	  0	 94	  5	  2	  5	  6	  4	  0	  1	  0	0.51150	  1	0.70000	  0	 25	 67	 88	  0	
13-Apr-2013	sub2310	2310	  2	  0	 95	  5	  2	  1	  3	  4	  1	  1	  1	0.40205	  1	0.70000	  0	 21	 60	 61	  1	
13-Apr-2013	sub2310	2310	  2	  0	 96	  5	  2	  5	  6	  4	  0	  1	  0	0.38588	  1	0.70000	  0	 25	 67	 88	  1	
13-Apr-2013	sub2310	2310	  2	  0	 97	  5	  2	  3	  1	  5	  0	  2	  1	0.28967	  0	0.70000	  0	 23	 84	 69	  1	
13-Apr-2013	sub2310	2310	  2	  0	 98	  5	  2	  3	  1	  5	  0	  2	  1	0.28867	  0	0.70000	  0	 23	 84	 69	  1	
13-Apr-2013	sub2310	2310	  2	  0	 99	  5	  2	  6	  5	  4	  0	  2	  0	0.27248	  1	0.70000	  0	 26	 67	 88	  1	
13-Apr-2013	sub2310	2310	  2	  0	100	  5	  2	  6	  5	  4	  1	  1	  0	0.41080	  0	0.70000	  0	 26	 85	 86	  1	
13-Apr-2013	sub2310	2310	  2	  0	101	  5	  2	  1	  3	  4	  1	  1	  1	0.21270	  1	0.60000	  0	 21	 60	 61	  1	
13-Apr-2013	sub2310	2310	  2	  0	102	  5	  2	  3	  1	  5	  1	  1	  1	0.37283	  1	0.60000	  0	 23	 62	 63	  1	
13-Apr-2013	sub2310	2310	  2	  0	103	  5	  2	  3	  1	  5	  1	  1	  1	0.27387	  1	0.60000	  0	 23	 62	 63	  1	
13-Apr-2013	sub2310	2310	  2	  0	104	  5	  2	  5	  6	  4	  0	  1	  0	0.31086	  1	0.60000	  0	 25	 67	 88	  1	
13-Apr-2013	sub2310	2310	  2	  0	105	  5	  2	  1	  3	  4	  1	  1	  1	0.29781	  1	0.60000	  0	 21	 60	 61	  1	
13-Apr-2013	sub2310	2310	  2	  0	106	  5	  2	  4	  2	  4	  1	  1	  0	0.36266	  0	0.60000	  0	 24	 82	 83	  1	
13-Apr-2013	sub2310	2310	  2	  0	107	  5	  2	  2	  4	  1	  1	  1	  0	0.33414	  0	0.60000	  0	 22	 80	 81	  1	
13-Apr-2013	sub2310	2310	  2	  0	108	  5	  2	  6	  5	  4	  1	  1	  0	0.30268	  0	0.60000	  0	 26	 85	 86	  1	
13-Apr-2013	sub2310	2310	  2	  0	109	  5	  2	  3	  1	  5	  1	  2	  0	0.30704	  0	0.60000	  0	 23	 82	 83	  1	
13-Apr-2013	sub2310	2310	  2	  0	110	  5	  2	  3	  1	  5	  1	  1	  1	0.25152	  1	0.60000	  0	 23	 62	 63	  1	
13-Apr-2013	sub2310	2310	  2	  0	111	  5	  2	  6	  5	  4	  0	  1	  1	0.45296	  0	0.60000	  0	 26	 87	 68	  1	
13-Apr-2013	sub2310	2310	  2	  0	112	  5	  2	  4	  2	  4	  1	  1	  0	0.30327	  0	0.60000	  0	 24	 82	 83	  1	
13-Apr-2013	sub2310	2310	  2	  0	113	  5	  2	  3	  1	  5	  1	  1	  1	0.30306	  1	0.60000	  0	 23	 62	 63	  1	
13-Apr-2013	sub2310	2310	  2	  0	114	  5	  2	  4	  2	  4	  1	  1	  0	0.40946	  0	0.60000	  0	 24	 82	 83	  1	
13-Apr-2013	sub2310	2310	  2	  0	115	  5	  2	  1	  3	  4	  1	  1	  1	0.74693	  1	0.60000	  1	 21	 60	 51	  0	
13-Apr-2013	sub2310	2310	  2	  0	116	  5	  2	  4	  2	  4	  1	  1	  0	0.00009	  0	0.70000	  0	 24	 82	 83	  1	
13-Apr-2013	sub2310	2310	  2	  0	117	  5	  2	  5	  6	  4	  0	  1	  0	0.18588	  1	0.70000	  0	 25	 67	 88	  1	
13-Apr-2013	sub2310	2310	  2	  0	118	  5	  2	  4	  2	  4	  1	  2	  1	0.20966	  1	0.70000	  0	 24	 62	 63	  1	
13-Apr-2013	sub2310	2310	  2	  0	119	  5	  2	  6	  5	  4	  0	  2	  0	0.00021	  1	0.70000	  0	 26	 67	 88	  1	
13-Apr-2013	sub2310	2310	  2	  0	120	  5	  2	  4	  2	  4	  1	  1	  0	0.44344	  0	0.70000	  0	 24	 82	 83	  1	
13-Apr-2013	sub2310	2310	  2	  0	121	  5	  2	  1	  3	  4	  1	  2	  0	0.56309	  0	0.60000	  0	 21	 80	 81	  0	
13-Apr-2013	sub2310	2310	  2	  0	122	  5	  2	  2	  4	  1	  1	  2	  1	0.42935	  1	0.60000	  0	 22	 60	 61	  1	
13-Apr-2013	sub2310	2310	  2	  0	123	  5	  2	  1	  3	  4	  1	  2	  0	0.34346	  0	0.60000	  0	 21	 80	 81	  1	
13-Apr-2013	sub2310	2310	  2	  0	124	  5	  2	  4	  2	  4	  1	  1	  0	0.24320	  0	0.60000	  0	 24	 82	 83	  1	
13-Apr-2013	sub2310	2310	  2	  0	125	  5	  2	  4	  2	  4	  0	  1	  1	0.28002	  0	0.60000	  0	 24	 84	 69	  1	
13-Apr-2013	sub2310	2310	  2	  0	126	  5	  2	  6	  5	  4	  1	  2	  1	0.26775	  1	0.60000	  0	 26	 65	 66	  1	
13-Apr-2013	sub2310	2310	  2	  0	127	  5	  2	  1	  3	  4	  1	  1	  1	0.31622	  1	0.60000	  0	 21	 60	 61	  1	
13-Apr-2013	sub2310	2310	  2	  0	128	  5	  2	  5	  6	  4	  0	  2	  1	0.31973	  0	0.60000	  0	 25	 87	 68	  1	
13-Apr-2013	sub2310	2310	  2	  0	129	  5	  2	  2	  4	  1	  1	  1	  0	0.30836	  0	0.60000	  0	 22	 80	 81	  1	
13-Apr-2013	sub2310	2310	  2	  0	130	  5	  2	  5	  6	  4	  0	  1	  0	0.27434	  1	0.60000	  0	 25	 67	 88	  1	
13-Apr-2013	sub2310	2310	  2	  0	131	  5	  2	  4	  2	  4	  0	  1	  1	0.37583	  0	0.60000	  0	 24	 84	 69	  1	
13-Apr-2013	sub2310	2310	  2	  0	132	  5	  2	  2	  4	  1	  1	  2	  1	0.62206	  1	0.60000	  1	 22	 60	 51	  0	
13-Apr-2013	sub2310	2310	  2	  0	133	  5	  2	  5	  6	  4	  0	  2	  1	0.35296	  0	0.70000	  0	 25	 87	 68	  1	
13-Apr-2013	sub2310	2310	  2	  0	134	  5	  2	  5	  6	  4	  0	  2	  1	0.34738	  0	0.70000	  0	 25	 87	 68	  1	
13-Apr-2013	sub2310	2310	  2	  0	135	  5	  2	  3	  1	  5	  1	  1	  1	0.31549	  1	0.70000	  0	 23	 62	 63	  1	
13-Apr-2013	sub2310	2310	  2	  0	136	  5	  2	  5	  6	  4	  0	  1	  0	0.31801	  1	0.70000	  0	 25	 67	 88	  1	
13-Apr-2013	sub2310	2310	  2	  0	137	  5	  2	  2	  4	  1	  1	  2	  1	0.32170	  1	0.70000	  0	 22	 60	 61	  1	
13-Apr-2013	sub2310	2310	  2	  0	138	  5	  2	  6	  5	  4	  0	  2	  0	0.37081	  1	0.70000	  0	 26	 67	 88	  1	
13-Apr-2013	sub2310	2310	  2	  0	139	  5	  2	  3	  1	  5	  1	  2	  0	0.29091	  0	0.70000	  0	 23	 82	 83	  1	
13-Apr-2013	sub2310	2310	  2	  0	140	  5	  2	  2	  4	  1	  1	  1	  0	0.48861	  0	0.70000	  0	 22	 80	 81	  1	
13-Apr-2013	sub2310	2310	  2	  0	141	  5	  2	  1	  3	  4	  1	  2	  0	0.35064	  0	0.60000	  0	 21	 80	 81	  1	
13-Apr-2013	sub2310	2310	  2	  0	142	  5	  2	  1	  3	  4	  1	  1	  1	0.09195	  1	0.60000	  0	 21	 60	 61	  1	
13-Apr-2013	sub2310	2310	  2	  0	143	  5	  2	  2	  4	  1	  1	  1	  0	0.29765	  0	0.60000	  0	 22	 80	 81	  1	
13-Apr-2013	sub2310	2310	  2	  0	144	  5	  2	  2	  4	  1	  1	  2	  1	0.28934	  1	0.60000	  0	 22	 60	 61	  1	
13-Apr-2013	sub2310	2310	  2	  0	145	  5	  2	  5	  6	  4	  0	  2	  1	0.34042	  0	0.60000	  0	 25	 87	 68	  1	
13-Apr-2013	sub2310	2310	  2	  0	146	  5	  2	  6	  5	  4	  1	  2	  1	0.29952	  1	0.60000	  0	 26	 65	 66	  1	
13-Apr-2013	sub2310	2310	  2	  0	147	  5	  2	  3	  1	  5	  1	  2	  0	0.37293	  0	0.60000	  0	 23	 82	 83	  1	
13-Apr-2013	sub2310	2310	  2	  0	148	  5	  2	  2	  4	  1	  1	  1	  0	0.36299	  0	0.60000	  0	 22	 80	 81	  1	
13-Apr-2013	sub2310	2310	  2	  0	149	  5	  2	  6	  5	  4	  1	  2	  1	0.35389	  1	0.60000	  0	 26	 65	 66	  1	
13-Apr-2013	sub2310	2310	  2	  0	150	  5	  2	  6	  5	  4	  0	  2	  0	0.43595	  1	0.60000	  0	 26	 67	 88	  1	
13-Apr-2013	sub2310	2310	  2	  0	  1	  6	  1	  6	  6	  1	  0	  1	  1	0.47853	  0	0.60000	  0	 16	 47	 38	  1	
13-Apr-2013	sub2310	2310	  2	  0	  2	  6	  1	  1	  4	  5	  1	  1	  1	0.31801	  1	0.30000	  1	 11	 30	 51	  1	
13-Apr-2013	sub2310	2310	  2	  0	  3	  6	  1	  6	  6	  1	  1	  1	  0	0.23714	  0	0.90000	  0	 16	 45	 46	  1	
13-Apr-2013	sub2310	2310	  2	  0	  4	  6	  1	  3	  5	  1	  1	  2	  0	0.32024	  0	0.90000	  0	 13	 42	 43	  1	
13-Apr-2013	sub2310	2310	  2	  0	  5	  6	  1	  1	  4	  5	  1	  1	  1	0.29292	  1	0.90000	  0	 11	 30	 31	  1	
13-Apr-2013	sub2310	2310	  2	  0	  6	  6	  1	  5	  3	  2	  0	  2	  1	0.28063	  0	0.90000	  0	 15	 47	 38	  1	
13-Apr-2013	sub2310	2310	  2	  0	  7	  6	  1	  4	  2	  2	  1	  2	  1	0.29772	  1	0.90000	  0	 14	 32	 33	  1	
13-Apr-2013	sub2310	2310	  2	  0	  8	  6	  1	  1	  4	  5	  1	  1	  1	0.34509	  1	0.90000	  0	 11	 30	 31	  1	
13-Apr-2013	sub2310	2310	  2	  0	  9	  6	  1	  2	  1	  2	  1	  1	  0	0.31075	  0	0.90000	  0	 12	 40	 41	  1	
13-Apr-2013	sub2310	2310	  2	  0	 10	  6	  1	  3	  5	  1	  1	  1	  1	0.38331	  1	0.90000	  0	 13	 32	 33	  1	
13-Apr-2013	sub2310	2310	  2	  0	 11	  6	  1	  1	  4	  5	  1	  2	  0	0.30922	  0	0.90000	  0	 11	 40	 41	  1	
13-Apr-2013	sub2310	2310	  2	  0	 12	  6	  1	  4	  2	  2	  1	  1	  0	0.30495	  0	0.90000	  0	 14	 42	 43	  1	
13-Apr-2013	sub2310	2310	  2	  0	 13	  6	  1	  3	  5	  1	  1	  2	  0	0.32250	  0	0.90000	  0	 13	 42	 43	  1	
13-Apr-2013	sub2310	2310	  2	  0	 14	  6	  1	  2	  1	  2	  1	  2	  1	0.35902	  1	0.90000	  0	 12	 30	 31	  1	
13-Apr-2013	sub2310	2310	  2	  0	 15	  6	  1	  6	  6	  1	  1	  2	  1	0.37010	  1	0.90000	  0	 16	 35	 36	  1	
13-Apr-2013	sub2310	2310	  2	  0	 16	  6	  1	  1	  4	  5	  1	  2	  0	0.37000	  0	0.80000	  0	 11	 40	 41	  1	
13-Apr-2013	sub2310	2310	  2	  0	 17	  6	  1	  6	  6	  1	  1	  1	  0	0.29617	  0	0.80000	  0	 16	 45	 46	  1	
13-Apr-2013	sub2310	2310	  2	  0	 18	  6	  1	  2	  1	  2	  1	  2	  1	0.31753	  1	0.70000	  0	 12	 30	 31	  1	
13-Apr-2013	sub2310	2310	  2	  0	 19	  6	  1	  2	  1	  2	  1	  2	  1	0.35270	  1	0.70000	  0	 12	 30	 31	  1	
13-Apr-2013	sub2310	2310	  2	  0	 20	  6	  1	  5	  3	  2	  1	  2	  0	0.35274	  0	0.70000	  0	 15	 45	 46	  1	
13-Apr-2013	sub2310	2310	  2	  0	 21	  6	  1	  5	  3	  2	  1	  1	  1	0.32325	  1	0.60000	  0	 15	 35	 36	  1	
13-Apr-2013	sub2310	2310	  2	  0	 22	  6	  1	  3	  5	  1	  1	  1	  1	0.29532	  1	0.60000	  0	 13	 32	 33	  1	
13-Apr-2013	sub2310	2310	  2	  0	 23	  6	  1	  6	  6	  1	  0	  1	  1	0.24804	  0	0.60000	  0	 16	 47	 38	  1	
13-Apr-2013	sub2310	2310	  2	  0	 24	  6	  1	  5	  3	  2	  1	  1	  1	0.24873	  1	0.60000	  0	 15	 35	 36	  1	
13-Apr-2013	sub2310	2310	  2	  0	 25	  6	  1	  2	  1	  2	  1	  1	  0	0.31390	  0	0.60000	  0	 12	 40	 41	  1	
13-Apr-2013	sub2310	2310	  2	  0	 26	  6	  1	  5	  3	  2	  0	  2	  1	0.22919	  0	0.50000	  0	 15	 47	 38	  1	
13-Apr-2013	sub2310	2310	  2	  0	 27	  6	  1	  1	  4	  5	  1	  2	  0	0.36444	  0	0.50000	  0	 11	 40	 41	  1	
13-Apr-2013	sub2310	2310	  2	  0	 28	  6	  1	  1	  4	  5	  1	  1	  1	0.33764	  1	0.50000	  0	 11	 30	 31	  1	
13-Apr-2013	sub2310	2310	  2	  0	 29	  6	  1	  4	  2	  2	  0	  1	  1	0.49060	  0	0.50000	  0	 14	 44	 39	  1	
13-Apr-2013	sub2310	2310	  2	  0	 30	  6	  1	  5	  3	  2	  1	  1	  1	0.01173	  1	0.50000	  0	 15	 35	 36	  1	
13-Apr-2013	sub2310	2310	  2	  0	 31	  6	  1	  5	  3	  2	  0	  1	  0	0.44916	  1	0.50000	  0	 15	 37	 48	  1	
13-Apr-2013	sub2310	2310	  2	  0	 32	  6	  1	  2	  1	  2	  1	  2	  1	0.30615	  1	0.50000	  0	 12	 30	 31	  1	
13-Apr-2013	sub2310	2310	  2	  0	 33	  6	  1	  3	  5	  1	  0	  2	  1	0.39618	  0	0.50000	  0	 13	 44	 39	  1	
13-Apr-2013	sub2310	2310	  2	  0	 34	  6	  1	  1	  4	  5	  1	  2	  0	0.38488	  0	0.50000	  0	 11	 40	 41	  1	
13-Apr-2013	sub2310	2310	  2	  0	 35	  6	  1	  2	  1	  2	  1	  1	  0	0.36875	  0	0.40000	  0	 12	 40	 41	  1	
13-Apr-2013	sub2310	2310	  2	  0	 36	  6	  1	  4	  2	  2	  1	  1	  0	0.39259	  0	0.40000	  0	 14	 42	 43	  1	
13-Apr-2013	sub2310	2310	  2	  0	 37	  6	  1	  6	  6	  1	  1	  1	  0	0.31865	  0	0.40000	  0	 16	 45	 46	  1	
13-Apr-2013	sub2310	2310	  2	  0	 38	  6	  1	  2	  1	  2	  1	  2	  1	0.49660	  1	0.40000	  1	 12	 30	 51	  1	
13-Apr-2013	sub2310	2310	  2	  0	 39	  6	  1	  6	  6	  1	  0	  1	  1	0.18235	  0	0.70000	  0	 16	 47	 38	  1	
13-Apr-2013	sub2310	2310	  2	  0	 40	  6	  1	  3	  5	  1	  1	  1	  1	0.32307	  1	0.70000	  0	 13	 32	 33	  1	
13-Apr-2013	sub2310	2310	  2	  0	 41	  6	  1	  5	  3	  2	  0	  1	  0	0.34762	  1	0.60000	  0	 15	 37	 48	  1	
13-Apr-2013	sub2310	2310	  2	  0	 42	  6	  1	  2	  1	  2	  1	  1	  0	0.31618	  0	0.60000	  0	 12	 40	 41	  1	
13-Apr-2013	sub2310	2310	  2	  0	 43	  6	  1	  4	  2	  2	  0	  2	  0	0.17530	  1	0.60000	  0	 14	 34	 49	  1	
13-Apr-2013	sub2310	2310	  2	  0	 44	  6	  1	  4	  2	  2	  1	  1	  0	0.25658	  0	0.60000	  0	 14	 42	 43	  1	
13-Apr-2013	sub2310	2310	  2	  0	 45	  6	  1	  1	  4	  5	  1	  1	  1	0.36121	  1	0.60000	  0	 11	 30	 31	  1	
13-Apr-2013	sub2310	2310	  2	  0	 46	  6	  1	  5	  3	  2	  0	  1	  0	0.40224	  1	0.60000	  0	 15	 37	 48	  1	
13-Apr-2013	sub2310	2310	  2	  0	 47	  6	  1	  4	  2	  2	  1	  2	  1	0.32457	  1	0.60000	  0	 14	 32	 33	  1	
13-Apr-2013	sub2310	2310	  2	  0	 48	  6	  1	  3	  5	  1	  1	  2	  0	0.38720	  0	0.60000	  0	 13	 42	 43	  1	
13-Apr-2013	sub2310	2310	  2	  0	 49	  6	  1	  2	  1	  2	  1	  1	  0	0.33720	  0	0.60000	  0	 12	 40	 41	  1	
13-Apr-2013	sub2310	2310	  2	  0	 50	  6	  1	  4	  2	  2	  1	  1	  0	0.47725	  0	0.60000	  0	 14	 42	 43	  1	
13-Apr-2013	sub2310	2310	  2	  0	 51	  6	  1	  2	  1	  2	  1	  2	  1	0.33866	  1	0.50000	  0	 12	 30	 31	  1	
13-Apr-2013	sub2310	2310	  2	  0	 52	  6	  1	  6	  6	  1	  1	  2	  1	0.36189	  1	0.50000	  0	 16	 35	 36	  1	
13-Apr-2013	sub2310	2310	  2	  0	 53	  6	  1	  3	  5	  1	  1	  2	  0	0.50167	  0	0.50000	  1	 13	 42	 51	  0	
13-Apr-2013	sub2310	2310	  2	  0	 54	  6	  1	  3	  5	  1	  0	  2	  1	0.09268	  0	0.70000	  0	 13	 44	 39	  1	
13-Apr-2013	sub2310	2310	  2	  0	 55	  6	  1	  2	  1	  2	  1	  2	  1	0.27816	  1	0.70000	  0	 12	 30	 31	  1	
13-Apr-2013	sub2310	2310	  2	  0	 56	  6	  1	  5	  3	  2	  1	  2	  0	0.35898	  0	0.70000	  0	 15	 45	 46	  1	
13-Apr-2013	sub2310	2310	  2	  0	 57	  6	  1	  5	  3	  2	  1	  1	  1	0.35357	  1	0.70000	  0	 15	 35	 36	  1	
13-Apr-2013	sub2310	2310	  2	  0	 58	  6	  1	  1	  4	  5	  1	  2	  0	0.33773	  0	0.70000	  0	 11	 40	 41	  1	
13-Apr-2013	sub2310	2310	  2	  0	 59	  6	  1	  4	  2	  2	  1	  1	  0	0.36661	  0	0.70000	  0	 14	 42	 43	  1	
13-Apr-2013	sub2310	2310	  2	  0	 60	  6	  1	  6	  6	  1	  0	  2	  0	0.42072	  1	0.70000	  0	 16	 37	 48	  1	
13-Apr-2013	sub2310	2310	  2	  0	 61	  6	  1	  3	  5	  1	  1	  2	  0	0.34996	  0	0.60000	  0	 13	 42	 43	  1	
13-Apr-2013	sub2310	2310	  2	  0	 62	  6	  1	  2	  1	  2	  1	  1	  0	1.79514	  0	0.60000	  1	 12	 40	 51	  0	
13-Apr-2013	sub2310	2310	  2	  0	 63	  6	  1	  3	  5	  1	  0	  1	  0	0.00021	  1	0.80000	  0	 13	 34	 49	  1	
13-Apr-2013	sub2310	2310	  2	  0	 64	  6	  1	  5	  3	  2	  1	  2	  0	1.48407	  0	0.80000	  1	 15	 45	 51	  0	
13-Apr-2013	sub2310	2310	  2	  0	 65	  6	  1	  6	  6	  1	  0	  2	  0	0.35227	  1	0.90000	  0	 16	 37	 48	  1	
13-Apr-2013	sub2310	2310	  2	  0	 66	  6	  1	  3	  5	  1	  1	  2	  0	0.34150	  0	0.90000	  0	 13	 42	 43	  1	
13-Apr-2013	sub2310	2310	  2	  0	 67	  6	  1	  6	  6	  1	  1	  1	  0	0.33172	  0	0.90000	  0	 16	 45	 46	  1	
13-Apr-2013	sub2310	2310	  2	  0	 68	  6	  1	  1	  4	  5	  1	  2	  0	0.44410	  0	0.90000	  0	 11	 40	 41	  1	
13-Apr-2013	sub2310	2310	  2	  0	 69	  6	  1	  4	  2	  2	  1	  1	  0	0.28315	  0	0.90000	  0	 14	 42	 43	  1	
13-Apr-2013	sub2310	2310	  2	  0	 70	  6	  1	  4	  2	  2	  1	  1	  0	0.00094	  0	0.90000	  0	 14	 42	 43	  1	
13-Apr-2013	sub2310	2310	  2	  0	 71	  6	  1	  3	  5	  1	  1	  1	  1	0.19886	  1	0.90000	  0	 13	 32	 33	  1	
13-Apr-2013	sub2310	2310	  2	  0	 72	  6	  1	  1	  4	  5	  1	  1	  1	0.43363	  1	0.90000	  0	 11	 30	 31	  1	
13-Apr-2013	sub2310	2310	  2	  0	 73	  6	  1	  6	  6	  1	  0	  1	  1	0.34930	  0	0.80000	  0	 16	 47	 38	  1	
13-Apr-2013	sub2310	2310	  2	  0	 74	  6	  1	  4	  2	  2	  1	  1	  0	0.33894	  0	0.80000	  0	 14	 42	 43	  1	
13-Apr-2013	sub2310	2310	  2	  0	 75	  6	  1	  6	  6	  1	  0	  2	  0	0.26257	  1	0.80000	  0	 16	 37	 48	  1	
13-Apr-2013	sub2310	2310	  2	  0	 76	  6	  2	  5	  3	  2	  0	  1	  0	0.00021	  1	0.80000	  0	 25	 67	 88	  1	
13-Apr-2013	sub2310	2310	  2	  0	 77	  6	  2	  2	  1	  2	  1	  2	  1	0.35194	  1	0.80000	  0	 22	 60	 61	  1	
13-Apr-2013	sub2310	2310	  2	  0	 78	  6	  2	  4	  2	  2	  1	  2	  1	0.48016	  1	0.80000	  0	 24	 62	 63	  1	
13-Apr-2013	sub2310	2310	  2	  0	 79	  6	  2	  2	  1	  2	  1	  2	  1	0.39193	  1	0.80000	  0	 22	 60	 61	  1	
13-Apr-2013	sub2310	2310	  2	  0	 80	  6	  2	  6	  6	  1	  0	  2	  0	0.45597	  1	0.80000	  0	 26	 67	 88	  1	
13-Apr-2013	sub2310	2310	  2	  0	 81	  6	  2	  5	  3	  2	  0	  2	  1	0.38460	  0	0.80000	  0	 25	 87	 68	  1	
13-Apr-2013	sub2310	2310	  2	  0	 82	  6	  2	  6	  6	  1	  0	  2	  0	0.38368	  1	0.80000	  0	 26	 67	 88	  1	
13-Apr-2013	sub2310	2310	  2	  0	 83	  6	  2	  1	  4	  5	  1	  1	  1	0.35531	  1	0.80000	  0	 21	 60	 61	  1	
13-Apr-2013	sub2310	2310	  2	  0	 84	  6	  2	  4	  2	  2	  1	  1	  0	0.35727	  0	0.80000	  0	 24	 82	 83	  1	
13-Apr-2013	sub2310	2310	  2	  0	 85	  6	  2	  5	  3	  2	  0	  1	  0	0.23726	  1	0.70000	  0	 25	 67	 88	  1	
13-Apr-2013	sub2310	2310	  2	  0	 86	  6	  2	  3	  5	  1	  1	  2	  0	0.37577	  0	0.70000	  0	 23	 82	 83	  1	
13-Apr-2013	sub2310	2310	  2	  0	 87	  6	  2	  2	  1	  2	  1	  1	  0	0.75182	  0	0.70000	  1	 22	 80	 51	  0	
13-Apr-2013	sub2310	2310	  2	  0	 88	  6	  2	  2	  1	  2	  1	  1	  0	0.96574	  0	0.80000	  1	 22	 80	 51	  0	
13-Apr-2013	sub2310	2310	  2	  0	 89	  6	  2	  5	  3	  2	  0	  1	  0	0.49040	  1	0.90000	  0	 25	 67	 88	  1	
13-Apr-2013	sub2310	2310	  2	  0	 90	  6	  2	  5	  3	  2	  0	  1	  0	0.33617	  1	0.90000	  0	 25	 67	 88	  1	
13-Apr-2013	sub2310	2310	  2	  0	 91	  6	  2	  3	  5	  1	  1	  1	  1	0.42978	  1	0.90000	  0	 23	 62	 63	  1	
13-Apr-2013	sub2310	2310	  2	  0	 92	  6	  2	  5	  3	  2	  0	  1	  0	0.56400	  1	0.90000	  0	 25	 67	 88	  0	
13-Apr-2013	sub2310	2310	  2	  0	 93	  6	  2	  5	  3	  2	  0	  1	  0	0.40395	  1	0.90000	  0	 25	 67	 88	  1	
13-Apr-2013	sub2310	2310	  2	  0	 94	  6	  2	  6	  6	  1	  0	  2	  0	0.67660	  1	0.90000	  0	 26	 67	 88	  0	
13-Apr-2013	sub2310	2310	  2	  0	 95	  6	  2	  3	  5	  1	  1	  2	  0	0.54507	  0	0.90000	  0	 23	 82	 83	  0	
13-Apr-2013	sub2310	2310	  2	  0	 96	  6	  2	  3	  5	  1	  0	  2	  1	0.31034	  0	0.90000	  0	 23	 84	 69	  1	
13-Apr-2013	sub2310	2310	  2	  0	 97	  6	  2	  1	  4	  5	  1	  2	  0	0.43766	  0	0.90000	  0	 21	 80	 81	  1	
13-Apr-2013	sub2310	2310	  2	  0	 98	  6	  2	  1	  4	  5	  1	  1	  1	0.29111	  1	0.90000	  0	 21	 60	 61	  1	
13-Apr-2013	sub2310	2310	  2	  0	 99	  6	  2	  4	  2	  2	  0	  1	  1	0.36734	  0	0.90000	  0	 24	 84	 69	  1	
13-Apr-2013	sub2310	2310	  2	  0	100	  6	  2	  6	  6	  1	  1	  1	  0	0.35634	  0	0.90000	  0	 26	 85	 86	  1	
13-Apr-2013	sub2310	2310	  2	  0	101	  6	  2	  3	  5	  1	  1	  1	  1	0.30007	  1	0.80000	  0	 23	 62	 63	  1	
13-Apr-2013	sub2310	2310	  2	  0	102	  6	  2	  3	  5	  1	  0	  1	  0	0.52892	  1	0.80000	  0	 23	 64	 89	  0	
13-Apr-2013	sub2310	2310	  2	  0	103	  6	  2	  6	  6	  1	  1	  1	  0	0.46474	  0	0.80000	  0	 26	 85	 86	  1	
13-Apr-2013	sub2310	2310	  2	  0	104	  6	  2	  4	  2	  2	  1	  2	  1	0.37437	  1	0.80000	  0	 24	 62	 63	  1	
13-Apr-2013	sub2310	2310	  2	  0	105	  6	  2	  4	  2	  2	  1	  2	  1	0.31053	  1	0.80000	  0	 24	 62	 63	  1	
13-Apr-2013	sub2310	2310	  2	  0	106	  6	  2	  5	  3	  2	  0	  2	  1	0.33630	  0	0.80000	  0	 25	 87	 68	  1	
13-Apr-2013	sub2310	2310	  2	  0	107	  6	  2	  4	  2	  2	  0	  2	  0	0.30560	  1	0.80000	  0	 24	 64	 89	  1	
13-Apr-2013	sub2310	2310	  2	  0	108	  6	  2	  1	  4	  5	  1	  1	  1	0.25569	  1	0.80000	  0	 21	 60	 61	  1	
13-Apr-2013	sub2310	2310	  2	  0	109	  6	  2	  1	  4	  5	  1	  1	  1	0.30643	  1	0.80000	  0	 21	 60	 61	  1	
13-Apr-2013	sub2310	2310	  2	  0	110	  6	  2	  5	  3	  2	  0	  1	  0	0.41664	  1	0.80000	  0	 25	 67	 88	  1	
13-Apr-2013	sub2310	2310	  2	  0	111	  6	  2	  2	  1	  2	  1	  2	  1	0.32198	  1	0.80000	  0	 22	 60	 61	  1	
13-Apr-2013	sub2310	2310	  2	  0	112	  6	  2	  5	  3	  2	  0	  2	  1	0.31395	  0	0.80000	  0	 25	 87	 68	  1	
13-Apr-2013	sub2310	2310	  2	  0	113	  6	  2	  3	  5	  1	  1	  2	  0	0.41310	  0	0.80000	  0	 23	 82	 83	  1	
13-Apr-2013	sub2310	2310	  2	  0	114	  6	  2	  6	  6	  1	  1	  2	  1	0.48383	  1	0.80000	  0	 26	 65	 66	  1	
13-Apr-2013	sub2310	2310	  2	  0	115	  6	  2	  4	  2	  2	  1	  2	  1	0.40707	  1	0.80000	  0	 24	 62	 63	  1	
13-Apr-2013	sub2310	2310	  2	  0	116	  6	  2	  4	  2	  2	  0	  2	  0	0.29581	  1	0.80000	  0	 24	 64	 89	  1	
13-Apr-2013	sub2310	2310	  2	  0	117	  6	  2	  2	  1	  2	  1	  1	  0	0.28466	  0	0.80000	  0	 22	 80	 81	  1	
13-Apr-2013	sub2310	2310	  2	  0	118	  6	  2	  6	  6	  1	  1	  1	  0	0.10936	  0	0.70000	  0	 26	 85	 86	  1	
13-Apr-2013	sub2310	2310	  2	  0	119	  6	  2	  3	  5	  1	  1	  2	  0	0.26892	  0	0.70000	  0	 23	 82	 83	  1	
13-Apr-2013	sub2310	2310	  2	  0	120	  6	  2	  1	  4	  5	  1	  1	  1	0.08740	  1	0.70000	  0	 21	 60	 61	  1	
13-Apr-2013	sub2310	2310	  2	  0	121	  6	  2	  1	  4	  5	  1	  1	  1	0.34549	  1	0.70000	  0	 21	 60	 61	  1	
13-Apr-2013	sub2310	2310	  2	  0	122	  6	  2	  2	  1	  2	  1	  1	  0	0.33678	  0	0.70000	  0	 22	 80	 81	  1	
13-Apr-2013	sub2310	2310	  2	  0	123	  6	  2	  5	  3	  2	  0	  2	  1	0.33302	  0	0.70000	  0	 25	 87	 68	  1	
13-Apr-2013	sub2310	2310	  2	  0	124	  6	  2	  1	  4	  5	  1	  2	  0	0.33165	  0	0.70000	  0	 21	 80	 81	  1	
13-Apr-2013	sub2310	2310	  2	  0	125	  6	  2	  5	  3	  2	  0	  2	  1	0.37396	  0	0.70000	  0	 25	 87	 68	  1	
13-Apr-2013	sub2310	2310	  2	  0	126	  6	  2	  3	  5	  1	  1	  2	  0	0.30290	  0	0.70000	  0	 23	 82	 83	  1	
13-Apr-2013	sub2310	2310	  2	  0	127	  6	  2	  3	  5	  1	  1	  1	  1	0.37239	  1	0.70000	  0	 23	 62	 63	  1	
13-Apr-2013	sub2310	2310	  2	  0	128	  6	  2	  5	  3	  2	  0	  1	  0	0.43828	  1	0.70000	  0	 25	 67	 88	  1	
13-Apr-2013	sub2310	2310	  2	  0	129	  6	  2	  1	  4	  5	  1	  1	  1	0.38351	  1	0.70000	  0	 21	 60	 61	  1	
13-Apr-2013	sub2310	2310	  2	  0	130	  6	  2	  2	  1	  2	  1	  1	  0	0.46873	  0	0.70000	  0	 22	 80	 81	  1	
13-Apr-2013	sub2310	2310	  2	  0	131	  6	  2	  4	  2	  2	  1	  1	  0	0.32707	  0	0.70000	  0	 24	 82	 83	  1	
13-Apr-2013	sub2310	2310	  2	  0	132	  6	  2	  6	  6	  1	  0	  2	  0	0.32557	  1	0.70000	  0	 26	 67	 88	  1	
13-Apr-2013	sub2310	2310	  2	  0	133	  6	  2	  3	  5	  1	  1	  1	  1	0.33941	  1	0.70000	  0	 23	 62	 63	  1	
13-Apr-2013	sub2310	2310	  2	  0	134	  6	  2	  2	  1	  2	  1	  1	  0	0.40524	  0	0.70000	  0	 22	 80	 81	  1	
13-Apr-2013	sub2310	2310	  2	  0	135	  6	  2	  2	  1	  2	  1	  1	  0	0.36697	  0	0.70000	  0	 22	 80	 81	  1	
13-Apr-2013	sub2310	2310	  2	  0	136	  6	  2	  6	  6	  1	  1	  1	  0	0.30933	  0	0.70000	  0	 26	 85	 86	  1	
13-Apr-2013	sub2310	2310	  2	  0	137	  6	  2	  4	  2	  2	  1	  1	  0	0.30556	  0	0.70000	  0	 24	 82	 83	  1	
13-Apr-2013	sub2310	2310	  2	  0	138	  6	  2	  4	  2	  2	  1	  1	  0	0.40172	  0	0.70000	  0	 24	 82	 83	  1	
13-Apr-2013	sub2310	2310	  2	  0	139	  6	  2	  1	  4	  5	  1	  2	  0	0.38237	  0	0.70000	  0	 21	 80	 81	  1	
13-Apr-2013	sub2310	2310	  2	  0	140	  6	  2	  6	  6	  1	  0	  1	  1	1.57470	  0	0.70000	  1	 26	 87	 51	  0	
13-Apr-2013	sub2310	2310	  2	  0	141	  6	  2	  2	  1	  2	  1	  1	  0	0.03052	  0	0.70000	  0	 22	 80	 81	  1	
13-Apr-2013	sub2310	2310	  2	  0	142	  6	  2	  1	  4	  5	  1	  2	  0	0.38028	  0	0.70000	  0	 21	 80	 81	  1	
13-Apr-2013	sub2310	2310	  2	  0	143	  6	  2	  4	  2	  2	  1	  1	  0	0.32302	  0	0.70000	  0	 24	 82	 83	  1	
13-Apr-2013	sub2310	2310	  2	  0	144	  6	  2	  2	  1	  2	  1	  1	  0	0.33712	  0	0.70000	  0	 22	 80	 81	  1	
13-Apr-2013	sub2310	2310	  2	  0	145	  6	  2	  3	  5	  1	  1	  2	  0	0.38195	  0	0.70000	  0	 23	 82	 83	  1	
13-Apr-2013	sub2310	2310	  2	  0	146	  6	  2	  6	  6	  1	  0	  1	  1	0.00093	  0	0.70000	  0	 26	 87	 68	  1	
13-Apr-2013	sub2310	2310	  2	  0	147	  6	  2	  6	  6	  1	  1	  1	  0	0.30959	  0	0.70000	  0	 26	 85	 86	  1	
13-Apr-2013	sub2310	2310	  2	  0	148	  6	  2	  1	  4	  5	  1	  2	  0	0.32728	  0	0.70000	  0	 21	 80	 81	  1	
13-Apr-2013	sub2310	2310	  2	  0	149	  6	  2	  1	  4	  5	  1	  2	  0	0.29116	  0	0.70000	  0	 21	 80	 81	  1	
13-Apr-2013	sub2310	2310	  2	  0	150	  6	  2	  4	  2	  2	  1	  1	  0	0.33019	  0	0.70000	  0	 24	 82	 83	  1	
