Date 	 Name 	 ID 	 Gender 	 Appearance 	 Trial 	 Block 	 Bin 	 Condition 	 Category 	 Number 	 Valid 	 Keypress 	 Correct 	 RT 	 Realcorrect 	 Deadline 	 Timeout 	 Stimtrigger 	 Resptrigger 	 Fedtrigger 	 WithinTime 	 
15-Apr-13	sub2311	2311	1	1	1	1	1	4	1	1	1	2	1	23.14275	1	0.6	1	14	32	51	0	
15-Apr-13	sub2311	2311	1	1	2	1	1	4	1	1	1	2	1	0.71117	1	0.9	0	14	32	33	0	
15-Apr-13	sub2311	2311	1	1	3	1	1	6	3	1	0	2	0	0.51335	1	0.9	0	16	37	48	0	
15-Apr-13	sub2311	2311	1	1	4	1	1	5	5	5	1	1	1	0.55383	1	0.9	0	15	35	36	0	
15-Apr-13	sub2311	2311	1	1	5	1	1	3	4	4	0	2	1	0.58237	0	0.9	0	13	44	39	0	
15-Apr-13	sub2311	2311	1	1	6	1	1	4	1	1	1	2	1	0.39295	1	0.9	0	14	32	33	1	
15-Apr-13	sub2311	2311	1	1	7	1	1	2	6	5	1	2	1	0.73397	1	0.9	0	12	30	31	0	
15-Apr-13	sub2311	2311	1	1	8	1	1	5	5	5	0	1	0	0.5361	1	0.9	0	15	37	48	0	
15-Apr-13	sub2311	2311	1	1	9	1	1	3	4	4	1	2	0	0.46447	0	0.9	0	13	42	43	1	
15-Apr-13	sub2311	2311	1	1	10	1	1	2	6	5	1	1	0	0.90612	0	0.9	1	12	40	51	0	
15-Apr-13	sub2311	2311	1	1	11	1	1	2	6	5	1	1	0	0.46229	0	0.9	0	12	40	41	1	
15-Apr-13	sub2311	2311	1	1	12	1	1	6	3	1	1	2	1	0.56458	1	0.9	0	16	35	36	0	
15-Apr-13	sub2311	2311	1	1	13	1	1	2	6	5	1	2	1	0.71668	1	0.9	0	12	30	31	0	
15-Apr-13	sub2311	2311	1	1	14	1	1	2	6	5	1	2	1	0.47545	1	0.9	0	12	30	31	1	
15-Apr-13	sub2311	2311	1	1	15	1	1	6	3	1	1	2	1	0.68247	1	0.9	0	16	35	36	0	
15-Apr-13	sub2311	2311	1	1	16	1	1	3	4	4	1	1	1	0.46448	1	0.9	0	13	32	33	1	
15-Apr-13	sub2311	2311	1	1	17	1	1	4	1	1	0	2	0	0.50807	1	0.9	0	14	34	49	0	
15-Apr-13	sub2311	2311	1	1	18	1	1	2	6	5	1	2	1	0.81251	1	0.9	0	12	30	31	0	
15-Apr-13	sub2311	2311	1	1	19	1	1	6	3	1	1	2	1	0.40643	1	0.9	0	16	35	36	1	
15-Apr-13	sub2311	2311	1	1	20	1	1	5	5	5	1	1	1	0.54947	1	0.9	0	15	35	36	0	
15-Apr-13	sub2311	2311	1	1	21	1	1	1	2	1	1	2	0	0.53281	0	0.9	0	11	40	41	0	
15-Apr-13	sub2311	2311	1	1	22	1	1	1	2	1	1	1	1	0.56044	1	0.9	0	11	30	31	0	
15-Apr-13	sub2311	2311	1	1	23	1	1	5	5	5	0	1	0	0.58356	1	0.9	0	15	37	48	0	
15-Apr-13	sub2311	2311	1	1	24	1	1	4	1	1	1	2	1	0.43955	1	0.9	0	14	32	33	1	
15-Apr-13	sub2311	2311	1	1	25	1	1	2	6	5	1	1	0	0.64445	0	0.9	0	12	40	41	0	
15-Apr-13	sub2311	2311	1	1	26	1	1	5	5	5	0	1	0	0.70319	1	0.9	0	15	37	48	0	
15-Apr-13	sub2311	2311	1	1	27	1	1	4	1	1	1	2	1	0.67817	1	0.9	0	14	32	33	0	
15-Apr-13	sub2311	2311	1	1	28	1	1	6	3	1	0	2	0	0.538	1	0.9	0	16	37	48	0	
15-Apr-13	sub2311	2311	1	1	29	1	1	3	4	4	0	1	0	0.58963	1	0.9	0	13	34	49	0	
15-Apr-13	sub2311	2311	1	1	30	1	1	1	2	1	1	1	1	0.75124	1	0.8	0	11	30	31	0	
15-Apr-13	sub2311	2311	1	1	31	1	1	5	5	5	1	2	0	0.72091	0	0.8	0	15	45	46	0	
15-Apr-13	sub2311	2311	1	1	32	1	1	2	6	5	1	2	1	0.764	1	0.8	0	12	30	31	0	
15-Apr-13	sub2311	2311	1	1	33	1	1	5	5	5	0	1	0	0.7978	1	0.8	0	15	37	48	0	
15-Apr-13	sub2311	2311	1	1	34	1	1	1	2	1	1	2	0	0.61214	0	0.8	0	11	40	41	0	
15-Apr-13	sub2311	2311	1	1	35	1	1	4	1	1	1	2	1	0.5136	1	0.7	0	14	32	33	0	
15-Apr-13	sub2311	2311	1	1	36	1	1	6	3	1	0	2	0	0.57488	1	0.7	0	16	37	48	0	
15-Apr-13	sub2311	2311	1	1	37	1	1	6	3	1	1	1	0	0.65755	0	0.7	0	16	45	46	0	
15-Apr-13	sub2311	2311	1	1	38	1	1	5	5	5	1	2	0	0.71537	0	0.7	1	15	45	51	0	
15-Apr-13	sub2311	2311	1	1	39	1	1	3	4	4	1	1	1	0.66484	1	0.9	0	13	32	33	0	
15-Apr-13	sub2311	2311	1	1	40	1	1	2	6	5	1	1	0	0.68488	0	0.9	0	12	40	41	0	
15-Apr-13	sub2311	2311	1	1	41	1	1	3	4	4	0	1	0	0.6455	1	0.9	0	13	34	49	0	
15-Apr-13	sub2311	2311	1	1	42	1	1	6	3	1	0	2	0	0.6732	1	0.9	0	16	37	48	0	
15-Apr-13	sub2311	2311	1	1	43	1	1	4	1	1	1	2	1	0.588	1	0.9	0	14	32	33	0	
15-Apr-13	sub2311	2311	1	1	44	1	1	3	4	4	1	1	1	0.67292	1	0.8	0	13	32	33	0	
15-Apr-13	sub2311	2311	1	1	45	1	1	2	6	5	1	1	0	0.53007	0	0.8	0	12	40	41	0	
15-Apr-13	sub2311	2311	1	1	46	1	1	3	4	4	1	1	1	0.57155	1	0.8	0	13	32	33	0	
15-Apr-13	sub2311	2311	1	1	47	1	1	1	2	1	1	1	1	0.70738	1	0.8	0	11	30	31	0	
15-Apr-13	sub2311	2311	1	1	48	1	1	4	1	1	1	2	1	0.50556	1	0.8	0	14	32	33	0	
15-Apr-13	sub2311	2311	1	1	49	1	1	1	2	1	1	1	1	0.76029	1	0.8	0	11	30	31	0	
15-Apr-13	sub2311	2311	1	1	50	1	1	2	6	5	1	1	0	0.80122	0	0.8	1	12	40	51	0	
15-Apr-13	sub2311	2311	1	1	51	1	1	5	5	5	1	1	1	0.72264	1	0.9	0	15	35	36	0	
15-Apr-13	sub2311	2311	1	1	52	1	1	4	1	1	1	2	1	0.53829	1	0.9	0	14	32	33	0	
15-Apr-13	sub2311	2311	1	1	53	1	1	1	2	1	1	1	1	0.65653	1	0.9	0	11	30	31	0	
15-Apr-13	sub2311	2311	1	1	54	1	1	3	4	4	1	1	1	0.56705	1	0.9	0	13	32	33	0	
15-Apr-13	sub2311	2311	1	1	55	1	1	1	2	1	1	1	1	0.54422	1	0.9	0	11	30	31	0	
15-Apr-13	sub2311	2311	1	1	56	1	1	1	2	1	1	1	1	0.46721	1	0.9	0	11	30	31	1	
15-Apr-13	sub2311	2311	1	1	57	1	1	6	3	1	0	1	1	0.67682	0	0.9	0	16	47	38	0	
15-Apr-13	sub2311	2311	1	1	58	1	1	6	3	1	1	1	0	0.44528	0	0.9	0	16	45	46	1	
15-Apr-13	sub2311	2311	1	1	59	1	1	3	4	4	1	1	1	0.59748	1	0.8	0	13	32	33	0	
15-Apr-13	sub2311	2311	1	1	60	1	1	5	5	5	0	1	0	0.58548	1	0.8	0	15	37	48	0	
15-Apr-13	sub2311	2311	1	1	61	1	1	1	2	1	1	1	1	0.63737	1	0.8	0	11	30	31	0	
15-Apr-13	sub2311	2311	1	1	62	1	1	4	1	1	1	2	1	0.50387	1	0.8	0	14	32	33	0	
15-Apr-13	sub2311	2311	1	1	63	1	1	3	4	4	1	1	1	0.5206	1	0.8	0	13	32	33	0	
15-Apr-13	sub2311	2311	1	1	64	1	1	6	3	1	1	2	1	0.71884	1	0.8	0	16	35	36	0	
15-Apr-13	sub2311	2311	1	1	65	1	1	1	2	1	1	1	1	0.6785	1	0.8	0	11	30	31	0	
15-Apr-13	sub2311	2311	1	1	66	1	1	3	4	4	1	1	1	0.53185	1	0.8	0	13	32	33	0	
15-Apr-13	sub2311	2311	1	1	67	1	1	5	5	5	1	1	1	0.54517	1	0.8	0	15	35	36	0	
15-Apr-13	sub2311	2311	1	1	68	1	1	4	1	1	0	2	0	0.48208	1	0.7	0	14	34	49	1	
15-Apr-13	sub2311	2311	1	1	69	1	1	5	5	5	0	1	0	0.57545	1	0.7	0	15	37	48	0	
15-Apr-13	sub2311	2311	1	1	70	1	1	3	4	4	1	1	1	0.58015	1	0.7	0	13	32	33	0	
15-Apr-13	sub2311	2311	1	1	71	1	1	6	3	1	0	2	0	0.60613	1	0.7	0	16	37	48	0	
15-Apr-13	sub2311	2311	1	1	72	1	1	1	2	1	1	1	1	0.66791	1	0.7	0	11	30	31	0	
15-Apr-13	sub2311	2311	1	1	73	1	1	2	6	5	1	1	0	0.53413	0	0.7	0	12	40	41	0	
15-Apr-13	sub2311	2311	1	1	74	1	1	6	3	1	1	1	0	1.06067	0	0.7	1	16	45	51	0	
15-Apr-13	sub2311	2311	1	1	75	1	1	2	6	5	1	1	0	0.57871	0	0.8	0	12	40	41	0	
15-Apr-13	sub2311	2311	1	1	1	2	1	2	2	5	1	2	1	0.48956	1	0.6	0	12	30	31	1	
15-Apr-13	sub2311	2311	1	1	2	2	1	3	4	6	1	2	0	0.89235	0	0.3	1	13	42	51	0	
15-Apr-13	sub2311	2311	1	1	3	2	1	4	1	5	1	1	0	0.57528	0	0.9	0	14	42	43	0	
15-Apr-13	sub2311	2311	1	1	4	2	1	6	6	1	1	2	1	0.43945	1	0.9	0	16	35	36	1	
15-Apr-13	sub2311	2311	1	1	5	2	1	6	6	1	0	2	0	0.44174	1	0.9	0	16	37	48	1	
15-Apr-13	sub2311	2311	1	1	6	2	1	5	3	1	1	1	1	0.32137	1	0.9	0	15	35	36	1	
15-Apr-13	sub2311	2311	1	1	7	2	1	6	6	1	0	2	0	0.52623	1	0.9	0	16	37	48	0	
15-Apr-13	sub2311	2311	1	1	8	2	1	1	5	6	1	2	0	0.59268	0	0.9	0	11	40	41	0	
15-Apr-13	sub2311	2311	1	1	9	2	1	6	6	1	0	2	0	0.43381	1	0.9	0	16	37	48	1	
15-Apr-13	sub2311	2311	1	1	10	2	1	5	3	1	1	1	1	0.45208	1	0.9	0	15	35	36	1	
15-Apr-13	sub2311	2311	1	1	11	2	1	4	1	5	0	2	0	0.64443	1	0.9	0	14	34	49	0	
15-Apr-13	sub2311	2311	1	1	12	2	1	3	4	6	1	1	1	0.87	1	0.9	0	13	32	33	0	
15-Apr-13	sub2311	2311	1	1	13	2	1	6	6	1	1	2	1	0.58234	1	0.9	0	16	35	36	0	
15-Apr-13	sub2311	2311	1	1	14	2	1	2	2	5	1	2	1	0.56658	1	0.9	0	12	30	31	0	
15-Apr-13	sub2311	2311	1	1	15	2	1	6	6	1	0	2	0	0.49651	1	0.9	0	16	37	48	1	
15-Apr-13	sub2311	2311	1	1	16	2	1	2	2	5	1	2	1	0.58847	1	0.8	0	12	30	31	0	
15-Apr-13	sub2311	2311	1	1	17	2	1	4	1	5	1	2	1	0.53825	1	0.8	0	14	32	33	0	
15-Apr-13	sub2311	2311	1	1	18	2	1	6	6	1	0	2	0	0.63011	1	0.7	0	16	37	48	0	
15-Apr-13	sub2311	2311	1	1	19	2	1	2	2	5	1	2	1	0.52512	1	0.7	0	12	30	31	0	
15-Apr-13	sub2311	2311	1	1	20	2	1	3	4	6	0	1	0	0.69452	1	0.7	0	13	34	49	0	
15-Apr-13	sub2311	2311	1	1	21	2	1	4	1	5	1	2	1	0.51027	1	0.6	0	14	32	33	0	
15-Apr-13	sub2311	2311	1	1	22	2	1	1	5	6	1	1	1	0.78089	1	0.6	1	11	30	51	0	
15-Apr-13	sub2311	2311	1	1	23	2	1	2	2	5	1	2	1	0.50914	1	0.9	0	12	30	31	0	
15-Apr-13	sub2311	2311	1	1	24	2	1	2	2	5	1	1	0	0.49062	0	0.9	0	12	40	41	1	
15-Apr-13	sub2311	2311	1	1	25	2	1	6	6	1	0	1	1	0.67073	0	0.9	0	16	47	38	0	
15-Apr-13	sub2311	2311	1	1	26	2	1	3	4	6	1	2	0	0.73291	0	0.9	0	13	42	43	0	
15-Apr-13	sub2311	2311	1	1	27	2	1	5	3	1	0	1	0	0.83541	1	0.9	0	15	37	48	0	
15-Apr-13	sub2311	2311	1	1	28	2	1	1	5	6	1	2	0	0.60397	0	0.9	0	11	40	41	0	
15-Apr-13	sub2311	2311	1	1	29	2	1	3	4	6	1	1	1	0.59909	1	0.9	0	13	32	33	0	
15-Apr-13	sub2311	2311	1	1	30	2	1	5	3	1	0	1	0	0.60063	1	0.8	0	15	37	48	0	
15-Apr-13	sub2311	2311	1	1	31	2	1	3	4	6	1	1	1	0.56127	1	0.8	0	13	32	33	0	
15-Apr-13	sub2311	2311	1	1	32	2	1	6	6	1	1	2	1	0.57324	1	0.8	0	16	35	36	0	
15-Apr-13	sub2311	2311	1	1	33	2	1	1	5	6	1	2	0	0.69571	0	0.8	0	11	40	41	0	
15-Apr-13	sub2311	2311	1	1	34	2	1	1	5	6	1	1	1	0.44543	1	0.8	0	11	30	31	1	
15-Apr-13	sub2311	2311	1	1	35	2	1	2	2	5	1	2	1	0.55351	1	0.7	0	12	30	31	0	
15-Apr-13	sub2311	2311	1	1	36	2	1	2	2	5	1	2	1	0.48999	1	0.7	0	12	30	31	1	
15-Apr-13	sub2311	2311	1	1	37	2	1	4	1	5	1	2	1	0.6022	1	0.7	0	14	32	33	0	
15-Apr-13	sub2311	2311	1	1	38	2	1	2	2	5	1	2	1	0.50431	1	0.7	0	12	30	31	0	
15-Apr-13	sub2311	2311	1	1	39	2	1	2	2	5	1	2	1	0.40882	1	0.7	0	12	30	31	1	
15-Apr-13	sub2311	2311	1	1	40	2	1	3	4	6	1	1	1	0.65352	1	0.7	0	13	32	33	0	
15-Apr-13	sub2311	2311	1	1	41	2	1	3	4	6	1	1	1	0.42905	1	0.6	0	13	32	33	1	
15-Apr-13	sub2311	2311	1	1	42	2	1	4	1	5	0	1	1	0.82977	0	0.6	1	14	44	51	0	
15-Apr-13	sub2311	2311	1	1	43	2	1	6	6	1	1	1	0	0.62264	0	0.9	0	16	45	46	0	
15-Apr-13	sub2311	2311	1	1	44	2	1	5	3	1	0	2	1	0.86033	0	0.8	1	15	47	51	0	
15-Apr-13	sub2311	2311	1	1	45	2	1	3	4	6	0	1	0	0.56395	1	0.9	0	13	34	49	0	
15-Apr-13	sub2311	2311	1	1	46	2	1	1	5	6	1	1	1	0.90795	1	0.9	1	11	30	51	0	
15-Apr-13	sub2311	2311	1	1	47	2	1	5	3	1	1	2	0	0.65419	0	0.9	0	15	45	46	0	
15-Apr-13	sub2311	2311	1	1	48	2	1	5	3	1	1	1	1	0.5685	1	0.9	0	15	35	36	0	
15-Apr-13	sub2311	2311	1	1	49	2	1	3	4	6	1	1	1	0.62115	1	0.9	0	13	32	33	0	
15-Apr-13	sub2311	2311	1	1	50	2	1	1	5	6	1	1	1	0.5177	1	0.9	0	11	30	31	0	
15-Apr-13	sub2311	2311	1	1	51	2	1	6	6	1	1	1	0	0.58209	0	0.9	0	16	45	46	0	
15-Apr-13	sub2311	2311	1	1	52	2	1	2	2	5	1	2	1	0.61725	1	0.9	0	12	30	31	0	
15-Apr-13	sub2311	2311	1	1	53	2	1	5	3	1	1	2	0	0.61835	0	0.9	0	15	45	46	0	
15-Apr-13	sub2311	2311	1	1	54	2	1	4	1	5	1	2	1	0.68685	1	0.9	0	14	32	33	0	
15-Apr-13	sub2311	2311	1	1	55	2	1	1	5	6	1	1	1	0.56067	1	0.9	0	11	30	31	0	
15-Apr-13	sub2311	2311	1	1	56	2	1	4	1	5	1	1	0	0.69461	0	0.9	0	14	42	43	0	
15-Apr-13	sub2311	2311	1	1	57	2	1	3	4	6	1	1	1	0.58513	1	0.9	0	13	32	33	0	
15-Apr-13	sub2311	2311	1	1	58	2	1	4	1	5	1	1	0	0.48741	0	0.9	0	14	42	43	1	
15-Apr-13	sub2311	2311	1	1	59	2	1	1	5	6	1	1	1	0.55892	1	0.9	0	11	30	31	0	
15-Apr-13	sub2311	2311	1	1	60	2	1	5	3	1	0	1	0	0.6252	1	0.9	0	15	37	48	0	
15-Apr-13	sub2311	2311	1	1	61	2	1	5	3	1	0	2	1	0.46272	0	0.9	0	15	47	38	1	
15-Apr-13	sub2311	2311	1	1	62	2	1	2	2	5	1	2	1	0.50183	1	0.9	0	12	30	31	0	
15-Apr-13	sub2311	2311	1	1	63	2	1	1	5	6	1	1	1	0.63822	1	0.9	0	11	30	31	0	
15-Apr-13	sub2311	2311	1	1	64	2	1	3	4	6	0	1	0	0.60987	1	0.9	0	13	34	49	0	
15-Apr-13	sub2311	2311	1	1	65	2	1	1	5	6	1	1	1	0.47224	1	0.9	0	11	30	31	1	
15-Apr-13	sub2311	2311	1	1	66	2	1	1	5	6	1	1	1	0.52113	1	0.9	0	11	30	31	0	
15-Apr-13	sub2311	2311	1	1	67	2	1	4	1	5	1	1	0	0.57699	0	0.9	0	14	42	43	0	
15-Apr-13	sub2311	2311	1	1	68	2	1	6	6	1	1	1	0	0.6876	0	0.9	0	16	45	46	0	
15-Apr-13	sub2311	2311	1	1	69	2	1	2	2	5	1	2	1	0.55043	1	0.9	0	12	30	31	0	
15-Apr-13	sub2311	2311	1	1	70	2	1	4	1	5	1	2	1	0.75621	1	0.9	0	14	32	33	0	
15-Apr-13	sub2311	2311	1	1	71	2	1	3	4	6	1	1	1	0.6679	1	0.9	0	13	32	33	0	
15-Apr-13	sub2311	2311	1	1	72	2	1	6	6	1	1	1	0	0.53213	0	0.9	0	16	45	46	0	
15-Apr-13	sub2311	2311	1	1	73	2	1	4	1	5	1	1	0	0.52627	0	0.8	0	14	42	43	0	
15-Apr-13	sub2311	2311	1	1	74	2	1	5	3	1	1	2	0	0.64482	0	0.8	0	15	45	46	0	
15-Apr-13	sub2311	2311	1	1	75	2	1	5	3	1	0	2	1	0.67876	0	0.8	0	15	47	38	0	
15-Apr-13	sub2311	2311	1	1	76	2	2	5	3	1	0	2	1	0.483	0	0.8	0	25	87	68	1	
15-Apr-13	sub2311	2311	1	1	77	2	2	2	2	5	1	2	1	0.54264	1	0.8	0	22	60	61	0	
15-Apr-13	sub2311	2311	1	1	78	2	2	1	5	6	1	1	1	0.69281	1	0.8	0	21	60	61	0	
15-Apr-13	sub2311	2311	1	1	79	2	2	1	5	6	1	1	1	0.45409	1	0.8	0	21	60	61	1	
15-Apr-13	sub2311	2311	1	1	80	2	2	3	4	6	1	1	1	0.60298	1	0.8	0	23	62	63	0	
15-Apr-13	sub2311	2311	1	1	81	2	2	2	2	5	1	2	1	0.5435	1	0.8	0	22	60	61	0	
15-Apr-13	sub2311	2311	1	1	82	2	2	3	4	6	0	1	0	0.56064	1	0.8	0	23	64	89	0	
15-Apr-13	sub2311	2311	1	1	83	2	2	4	1	5	1	1	0	0.62445	0	0.8	0	24	82	83	0	
15-Apr-13	sub2311	2311	1	1	84	2	2	3	4	6	1	2	0	0.75615	0	0.8	0	23	82	83	0	
15-Apr-13	sub2311	2311	1	1	85	2	2	6	6	1	0	1	1	0.69835	0	0.7	0	26	87	68	0	
15-Apr-13	sub2311	2311	1	1	86	2	2	3	4	6	1	1	1	0.61254	1	0.7	0	23	62	63	0	
15-Apr-13	sub2311	2311	1	1	87	2	2	3	4	6	1	1	1	0.7021	1	0.7	1	23	62	51	0	
15-Apr-13	sub2311	2311	1	1	88	2	2	1	5	6	1	1	1	0.58319	1	0.8	0	21	60	61	0	
15-Apr-13	sub2311	2311	1	1	89	2	2	4	1	5	1	1	0	0.63068	0	0.8	0	24	82	83	0	
15-Apr-13	sub2311	2311	1	1	90	2	2	5	3	1	0	1	0	0.72663	1	0.8	0	25	67	88	0	
15-Apr-13	sub2311	2311	1	1	91	2	2	1	5	6	1	1	1	0.50869	1	0.8	0	21	60	61	0	
15-Apr-13	sub2311	2311	1	1	92	2	2	4	1	5	1	2	1	0.69692	1	0.8	0	24	62	63	0	
15-Apr-13	sub2311	2311	1	1	93	2	2	3	4	6	1	1	1	0.67523	1	0.8	0	23	62	63	0	
15-Apr-13	sub2311	2311	1	1	94	2	2	5	3	1	0	2	1	0.77788	0	0.8	0	25	87	68	0	
15-Apr-13	sub2311	2311	1	1	95	2	2	5	3	1	0	2	1	0.43472	0	0.8	0	25	87	68	1	
15-Apr-13	sub2311	2311	1	1	96	2	2	1	5	6	1	1	1	0.52837	1	0.8	0	21	60	61	0	
15-Apr-13	sub2311	2311	1	1	97	2	2	3	4	6	1	1	1	0.72147	1	0.8	0	23	62	63	0	
15-Apr-13	sub2311	2311	1	1	98	2	2	3	4	6	1	1	1	0.56827	1	0.8	0	23	62	63	0	
15-Apr-13	sub2311	2311	1	1	99	2	2	5	3	1	0	2	1	0.67951	0	0.8	0	25	87	68	0	
15-Apr-13	sub2311	2311	1	1	100	2	2	2	2	5	1	2	1	0.48641	1	0.8	0	22	60	61	1	
15-Apr-13	sub2311	2311	1	1	101	2	2	1	5	6	1	2	0	0.44476	0	0.7	0	21	80	81	1	
15-Apr-13	sub2311	2311	1	1	102	2	2	3	4	6	1	1	1	0.60672	1	0.7	0	23	62	63	0	
15-Apr-13	sub2311	2311	1	1	103	2	2	1	5	6	1	1	1	0.4097	1	0.7	0	21	60	61	1	
15-Apr-13	sub2311	2311	1	1	104	2	2	6	6	1	1	1	0	0.61902	0	0.7	0	26	85	86	0	
15-Apr-13	sub2311	2311	1	1	105	2	2	4	1	5	1	2	1	0.72198	1	0.7	1	24	62	51	0	
15-Apr-13	sub2311	2311	1	1	106	2	2	5	3	1	0	2	1	0.62483	0	0.8	0	25	87	68	0	
15-Apr-13	sub2311	2311	1	1	107	2	2	3	4	6	1	1	1	0.55955	1	0.8	0	23	62	63	0	
15-Apr-13	sub2311	2311	1	1	108	2	2	1	5	6	1	1	1	0.52409	1	0.8	0	21	60	61	0	
15-Apr-13	sub2311	2311	1	1	109	2	2	1	5	6	1	1	1	0.43033	1	0.8	0	21	60	61	1	
15-Apr-13	sub2311	2311	1	1	110	2	2	2	2	5	1	2	1	0.52241	1	0.8	0	22	60	61	0	
15-Apr-13	sub2311	2311	1	1	111	2	2	2	2	5	1	2	1	0.50735	1	0.8	0	22	60	61	0	
15-Apr-13	sub2311	2311	1	1	112	2	2	4	1	5	1	2	1	0.76332	1	0.8	0	24	62	63	0	
15-Apr-13	sub2311	2311	1	1	113	2	2	1	5	6	1	1	1	0.57478	1	0.8	0	21	60	61	0	
15-Apr-13	sub2311	2311	1	1	114	2	2	6	6	1	0	2	0	0.59577	1	0.8	0	26	67	88	0	
15-Apr-13	sub2311	2311	1	1	115	2	2	5	3	1	0	2	1	0.58562	0	0.8	0	25	87	68	0	
15-Apr-13	sub2311	2311	1	1	116	2	2	2	2	5	1	2	1	0.5795	1	0.8	0	22	60	61	0	
15-Apr-13	sub2311	2311	1	1	117	2	2	3	4	6	1	1	1	0.59507	1	0.8	0	23	62	63	0	
15-Apr-13	sub2311	2311	1	1	118	2	2	6	6	1	1	1	0	0.65519	0	0.7	0	26	85	86	0	
15-Apr-13	sub2311	2311	1	1	119	2	2	5	3	1	0	2	1	0.61955	0	0.7	0	25	87	68	0	
15-Apr-13	sub2311	2311	1	1	120	2	2	1	5	6	1	1	1	0.53575	1	0.7	0	21	60	61	0	
15-Apr-13	sub2311	2311	1	1	121	2	2	6	6	1	0	2	0	0.6299	1	0.7	0	26	67	88	0	
15-Apr-13	sub2311	2311	1	1	122	2	2	4	1	5	0	2	0	0.60758	1	0.7	0	24	64	89	0	
15-Apr-13	sub2311	2311	1	1	123	2	2	6	6	1	0	1	1	0.60463	0	0.7	0	26	87	68	0	
15-Apr-13	sub2311	2311	1	1	124	2	2	1	5	6	1	1	1	0.57547	1	0.7	0	21	60	61	0	
15-Apr-13	sub2311	2311	1	1	125	2	2	6	6	1	1	1	0	0.50773	0	0.7	0	26	85	86	0	
15-Apr-13	sub2311	2311	1	1	126	2	2	4	1	5	1	2	1	0.55273	1	0.7	0	24	62	63	0	
15-Apr-13	sub2311	2311	1	1	127	2	2	2	2	5	1	2	1	0.59769	1	0.7	0	22	60	61	0	
15-Apr-13	sub2311	2311	1	1	128	2	2	4	1	5	1	2	1	0.53193	1	0.7	0	24	62	63	0	
15-Apr-13	sub2311	2311	1	1	129	2	2	5	3	1	0	1	0	0.71156	1	0.7	1	25	67	51	0	
15-Apr-13	sub2311	2311	1	1	130	2	2	4	1	5	0	2	0	0.60722	1	0.8	0	24	64	89	0	
15-Apr-13	sub2311	2311	1	1	131	2	2	2	2	5	1	2	1	0.52154	1	0.8	0	22	60	61	0	
15-Apr-13	sub2311	2311	1	1	132	2	2	6	6	1	1	2	1	0.63257	1	0.8	0	26	65	66	0	
15-Apr-13	sub2311	2311	1	1	133	2	2	5	3	1	0	2	1	0.55733	0	0.8	0	25	87	68	0	
15-Apr-13	sub2311	2311	1	1	134	2	2	6	6	1	1	2	1	0.44188	1	0.8	0	26	65	66	1	
15-Apr-13	sub2311	2311	1	1	135	2	2	4	1	5	1	2	1	0.58461	1	0.7	0	24	62	63	0	
15-Apr-13	sub2311	2311	1	1	136	2	2	5	3	1	0	2	1	0.55705	0	0.7	0	25	87	68	0	
15-Apr-13	sub2311	2311	1	1	137	2	2	4	1	5	1	2	1	0.45131	1	0.7	0	24	62	63	1	
15-Apr-13	sub2311	2311	1	1	138	2	2	2	2	5	1	2	1	0.50554	1	0.7	0	22	60	61	0	
15-Apr-13	sub2311	2311	1	1	139	2	2	5	3	1	0	2	1	0.42892	0	0.7	0	25	87	68	1	
15-Apr-13	sub2311	2311	1	1	140	2	2	4	1	5	0	2	0	0.43879	1	0.7	0	24	64	89	1	
15-Apr-13	sub2311	2311	1	1	141	2	2	2	2	5	1	2	1	0.56028	1	0.7	0	22	60	61	0	
15-Apr-13	sub2311	2311	1	1	142	2	2	2	2	5	1	2	1	0.67897	1	0.7	0	22	60	61	0	
15-Apr-13	sub2311	2311	1	1	143	2	2	4	1	5	1	2	1	0.6607	1	0.7	0	24	62	63	0	
15-Apr-13	sub2311	2311	1	1	144	2	2	5	3	1	0	2	1	0.52997	0	0.7	0	25	87	68	0	
15-Apr-13	sub2311	2311	1	1	145	2	2	6	6	1	0	2	0	0.64298	1	0.7	0	26	67	88	0	
15-Apr-13	sub2311	2311	1	1	146	2	2	1	5	6	1	1	1	0.64689	1	0.7	0	21	60	61	0	
15-Apr-13	sub2311	2311	1	1	147	2	2	6	6	1	1	1	0	0.44465	0	0.7	0	26	85	86	1	
15-Apr-13	sub2311	2311	1	1	148	2	2	3	4	6	0	1	0	0.62556	1	0.7	0	23	64	89	0	
15-Apr-13	sub2311	2311	1	1	149	2	2	2	2	5	1	2	1	0.52515	1	0.7	0	22	60	61	0	
15-Apr-13	sub2311	2311	1	1	150	2	2	6	6	1	0	2	0	0.65322	1	0.7	0	26	67	88	0	
15-Apr-13	sub2311	2311	1	1	1	3	1	6	1	6	0	2	0	0.54648	1	0.6	0	16	37	48	0	
15-Apr-13	sub2311	2311	1	1	2	3	1	6	1	6	1	1	0	0.58986	0	0.3	1	16	45	51	0	
15-Apr-13	sub2311	2311	1	1	3	3	1	2	5	2	1	2	1	0.53667	1	0.9	0	12	30	31	0	
15-Apr-13	sub2311	2311	1	1	4	3	1	6	1	6	1	1	0	0.64999	0	0.9	0	16	45	46	0	
15-Apr-13	sub2311	2311	1	1	5	3	1	5	2	6	1	2	0	0.5776	0	0.9	0	15	45	46	0	
15-Apr-13	sub2311	2311	1	1	6	3	1	1	4	2	1	1	1	0.73221	1	0.9	0	11	30	31	0	
15-Apr-13	sub2311	2311	1	1	7	3	1	6	1	6	0	1	1	0.65404	0	0.9	0	16	47	38	0	
15-Apr-13	sub2311	2311	1	1	8	3	1	1	4	2	1	1	1	0.54331	1	0.9	0	11	30	31	0	
15-Apr-13	sub2311	2311	1	1	9	3	1	5	2	6	0	1	0	0.62188	1	0.9	0	15	37	48	0	
15-Apr-13	sub2311	2311	1	1	10	3	1	4	3	6	1	2	1	0.45742	1	0.9	0	14	32	33	1	
15-Apr-13	sub2311	2311	1	1	11	3	1	2	5	2	1	2	1	0.46566	1	0.9	0	12	30	31	1	
15-Apr-13	sub2311	2311	1	1	12	3	1	2	5	2	1	2	1	0.40478	1	0.9	0	12	30	31	1	
15-Apr-13	sub2311	2311	1	1	13	3	1	2	5	2	1	2	1	0.41705	1	0.9	0	12	30	31	1	
15-Apr-13	sub2311	2311	1	1	14	3	1	6	1	6	1	1	0	0.75321	0	0.9	0	16	45	46	0	
15-Apr-13	sub2311	2311	1	1	15	3	1	3	6	2	0	2	1	0.59437	0	0.9	0	13	44	39	0	
15-Apr-13	sub2311	2311	1	1	16	3	1	5	2	6	1	2	0	0.68244	0	0.8	0	15	45	46	0	
15-Apr-13	sub2311	2311	1	1	17	3	1	4	3	6	0	1	1	0.62965	0	0.8	0	14	44	39	0	
15-Apr-13	sub2311	2311	1	1	18	3	1	4	3	6	1	1	0	0.46817	0	0.7	0	14	42	43	1	
15-Apr-13	sub2311	2311	1	1	19	3	1	3	6	2	1	1	1	0.52349	1	0.7	0	13	32	33	0	
15-Apr-13	sub2311	2311	1	1	20	3	1	3	6	2	0	1	0	0.48712	1	0.7	0	13	34	49	1	
15-Apr-13	sub2311	2311	1	1	21	3	1	4	3	6	1	2	1	0.42224	1	0.6	0	14	32	33	1	
15-Apr-13	sub2311	2311	1	1	22	3	1	3	6	2	1	2	0	0.74947	0	0.6	1	13	42	51	0	
15-Apr-13	sub2311	2311	1	1	23	3	1	6	1	6	0	2	0	0.58136	1	0.9	0	16	37	48	0	
15-Apr-13	sub2311	2311	1	1	24	3	1	3	6	2	1	2	0	0.53114	0	0.9	0	13	42	43	0	
15-Apr-13	sub2311	2311	1	1	25	3	1	3	6	2	1	1	1	0.41685	1	0.9	0	13	32	33	1	
15-Apr-13	sub2311	2311	1	1	26	3	1	5	2	6	0	1	0	0.60591	1	0.9	0	15	37	48	0	
15-Apr-13	sub2311	2311	1	1	27	3	1	1	4	2	1	1	1	0.5614	1	0.9	0	11	30	31	0	
15-Apr-13	sub2311	2311	1	1	28	3	1	2	5	2	1	2	1	0.6554	1	0.9	0	12	30	31	0	
15-Apr-13	sub2311	2311	1	1	29	3	1	5	2	6	0	1	0	0.57056	1	0.9	0	15	37	48	0	
15-Apr-13	sub2311	2311	1	1	30	3	1	2	5	2	1	2	1	0.54746	1	0.8	0	12	30	31	0	
15-Apr-13	sub2311	2311	1	1	31	3	1	1	4	2	1	1	1	0.60447	1	0.8	0	11	30	31	0	
15-Apr-13	sub2311	2311	1	1	32	3	1	1	4	2	1	1	1	0.61437	1	0.8	0	11	30	31	0	
15-Apr-13	sub2311	2311	1	1	33	3	1	2	5	2	1	1	0	0.47707	0	0.8	0	12	40	41	1	
15-Apr-13	sub2311	2311	1	1	34	3	1	4	3	6	1	1	0	0.73713	0	0.8	0	14	42	43	0	
15-Apr-13	sub2311	2311	1	1	35	3	1	3	6	2	0	1	0	0.6059	1	0.7	0	13	34	49	0	
15-Apr-13	sub2311	2311	1	1	36	3	1	5	2	6	1	1	1	0.77129	1	0.7	1	15	35	51	0	
15-Apr-13	sub2311	2311	1	1	37	3	1	5	2	6	0	2	1	0.45393	0	0.9	0	15	47	38	1	
15-Apr-13	sub2311	2311	1	1	38	3	1	3	6	2	1	2	0	0.49506	0	0.9	0	13	42	43	1	
15-Apr-13	sub2311	2311	1	1	39	3	1	1	4	2	1	1	1	0.69361	1	0.9	0	11	30	31	0	
15-Apr-13	sub2311	2311	1	1	40	3	1	3	6	2	1	1	1	0.60763	1	0.9	0	13	32	33	0	
15-Apr-13	sub2311	2311	1	1	41	3	1	3	6	2	1	1	1	0.43163	1	0.9	0	13	32	33	1	
15-Apr-13	sub2311	2311	1	1	42	3	1	4	3	6	1	2	1	0.7292	1	0.9	0	14	32	33	0	
15-Apr-13	sub2311	2311	1	1	43	3	1	4	3	6	1	2	1	0.4687	1	0.9	0	14	32	33	1	
15-Apr-13	sub2311	2311	1	1	44	3	1	6	1	6	1	2	1	0.79897	1	0.8	0	16	35	36	0	
15-Apr-13	sub2311	2311	1	1	45	3	1	6	1	6	0	2	0	0.43515	1	0.8	0	16	37	48	1	
15-Apr-13	sub2311	2311	1	1	46	3	1	6	1	6	0	2	0	0.55566	1	0.8	0	16	37	48	0	
15-Apr-13	sub2311	2311	1	1	47	3	1	1	4	2	1	1	1	0.54961	1	0.8	0	11	30	31	0	
15-Apr-13	sub2311	2311	1	1	48	3	1	1	4	2	1	1	1	0.48276	1	0.8	0	11	30	31	1	
15-Apr-13	sub2311	2311	1	1	49	3	1	6	1	6	1	2	1	0.75674	1	0.8	0	16	35	36	0	
15-Apr-13	sub2311	2311	1	1	50	3	1	4	3	6	1	1	0	0.70926	0	0.8	0	14	42	43	0	
15-Apr-13	sub2311	2311	1	1	51	3	1	3	6	2	1	1	1	0.61756	1	0.7	0	13	32	33	0	
15-Apr-13	sub2311	2311	1	1	52	3	1	1	4	2	1	1	1	0.57924	1	0.7	0	11	30	31	0	
15-Apr-13	sub2311	2311	1	1	53	3	1	1	4	2	1	1	1	0.51215	1	0.7	0	11	30	31	0	
15-Apr-13	sub2311	2311	1	1	54	3	1	6	1	6	1	2	1	0.61432	1	0.7	0	16	35	36	0	
15-Apr-13	sub2311	2311	1	1	55	3	1	5	2	6	1	2	0	0.65117	0	0.7	0	15	45	46	0	
15-Apr-13	sub2311	2311	1	1	56	3	1	1	4	2	1	2	0	0.48513	0	0.7	0	11	40	41	1	
15-Apr-13	sub2311	2311	1	1	57	3	1	4	3	6	1	2	1	0.6606	1	0.7	0	14	32	33	0	
15-Apr-13	sub2311	2311	1	1	58	3	1	6	1	6	1	2	1	0.66441	1	0.7	0	16	35	36	0	
15-Apr-13	sub2311	2311	1	1	59	3	1	4	3	6	0	2	0	0.49035	1	0.7	0	14	34	49	1	
15-Apr-13	sub2311	2311	1	1	60	3	1	6	1	6	0	2	0	0.5448	1	0.7	0	16	37	48	0	
15-Apr-13	sub2311	2311	1	1	61	3	1	4	3	6	1	2	1	0.48397	1	0.6	0	14	32	33	1	
15-Apr-13	sub2311	2311	1	1	62	3	1	2	5	2	1	2	1	0.59422	1	0.6	0	12	30	31	0	
15-Apr-13	sub2311	2311	1	1	63	3	1	2	5	2	1	2	1	0.44944	1	0.6	0	12	30	31	1	
15-Apr-13	sub2311	2311	1	1	64	3	1	5	2	6	0	2	1	0.47147	0	0.6	0	15	47	38	1	
15-Apr-13	sub2311	2311	1	1	65	3	1	2	5	2	1	2	1	0.49578	1	0.6	0	12	30	31	1	
15-Apr-13	sub2311	2311	1	1	66	3	1	1	4	2	1	2	0	0.44536	0	0.6	0	11	40	41	1	
15-Apr-13	sub2311	2311	1	1	67	3	1	2	5	2	1	2	1	0.46385	1	0.6	0	12	30	31	1	
15-Apr-13	sub2311	2311	1	1	68	3	1	4	3	6	1	2	1	0.59147	1	0.6	0	14	32	33	0	
15-Apr-13	sub2311	2311	1	1	69	3	1	3	6	2	1	2	0	0.64268	0	0.6	1	13	42	51	0	
15-Apr-13	sub2311	2311	1	1	70	3	1	2	5	2	1	2	1	0.44937	1	0.7	0	12	30	31	1	
15-Apr-13	sub2311	2311	1	1	71	3	1	5	2	6	1	2	0	0.46163	0	0.7	0	15	45	46	1	
15-Apr-13	sub2311	2311	1	1	72	3	1	5	2	6	0	2	1	0.54992	0	0.7	0	15	47	38	0	
15-Apr-13	sub2311	2311	1	1	73	3	1	2	5	2	1	2	1	0.53805	1	0.7	0	12	30	31	0	
15-Apr-13	sub2311	2311	1	1	74	3	1	5	2	6	1	2	0	0.41913	0	0.7	0	15	45	46	1	
15-Apr-13	sub2311	2311	1	1	75	3	1	3	6	2	1	2	0	0.6444	0	0.7	0	13	42	43	0	
15-Apr-13	sub2311	2311	1	1	76	3	2	5	2	6	0	2	1	0.59577	0	0.7	0	25	87	68	0	
15-Apr-13	sub2311	2311	1	1	77	3	2	5	2	6	0	2	1	0.49209	0	0.7	0	25	87	68	1	
15-Apr-13	sub2311	2311	1	1	78	3	2	6	1	6	1	2	1	0.60659	1	0.7	0	26	65	66	0	
15-Apr-13	sub2311	2311	1	1	79	3	2	5	2	6	0	2	1	0.43763	0	0.7	0	25	87	68	1	
15-Apr-13	sub2311	2311	1	1	80	3	2	6	1	6	1	2	1	0.50124	1	0.7	0	26	65	66	0	
15-Apr-13	sub2311	2311	1	1	81	3	2	4	3	6	1	2	1	0.52101	1	0.6	0	24	62	63	0	
15-Apr-13	sub2311	2311	1	1	82	3	2	3	6	2	0	2	1	0.59301	0	0.6	0	23	84	69	0	
15-Apr-13	sub2311	2311	1	1	83	3	2	5	2	6	0	2	1	0.47698	0	0.6	0	25	87	68	1	
15-Apr-13	sub2311	2311	1	1	84	3	2	2	5	2	1	2	1	0.52764	1	0.6	0	22	60	61	0	
15-Apr-13	sub2311	2311	1	1	85	3	2	6	1	6	0	2	0	0.53359	1	0.6	0	26	67	88	0	
15-Apr-13	sub2311	2311	1	1	86	3	2	2	5	2	1	2	1	0.45994	1	0.6	0	22	60	61	1	
15-Apr-13	sub2311	2311	1	1	87	3	2	4	3	6	1	2	1	0.49038	1	0.6	0	24	62	63	1	
15-Apr-13	sub2311	2311	1	1	88	3	2	2	5	2	1	2	1	0.45634	1	0.6	0	22	60	61	1	
15-Apr-13	sub2311	2311	1	1	89	3	2	6	1	6	0	2	0	0.44088	1	0.6	0	26	67	88	1	
15-Apr-13	sub2311	2311	1	1	90	3	2	3	6	2	1	2	0	0.49278	0	0.6	0	23	82	83	1	
15-Apr-13	sub2311	2311	1	1	91	3	2	4	3	6	1	2	1	0.49466	1	0.6	0	24	62	63	1	
15-Apr-13	sub2311	2311	1	1	92	3	2	5	2	6	0	2	1	0.54351	0	0.6	0	25	87	68	0	
15-Apr-13	sub2311	2311	1	1	93	3	2	5	2	6	0	2	1	0.48795	0	0.6	0	25	87	68	1	
15-Apr-13	sub2311	2311	1	1	94	3	2	3	6	2	1	1	1	0.49219	1	0.6	0	23	62	63	1	
15-Apr-13	sub2311	2311	1	1	95	3	2	3	6	2	1	1	1	0.50161	1	0.6	0	23	62	63	0	
15-Apr-13	sub2311	2311	1	1	96	3	2	5	2	6	0	2	1	0.46577	0	0.6	0	25	87	68	1	
15-Apr-13	sub2311	2311	1	1	97	3	2	2	5	2	1	2	1	0.55793	1	0.6	0	22	60	61	0	
15-Apr-13	sub2311	2311	1	1	98	3	2	3	6	2	1	1	1	0.37632	1	0.6	0	23	62	63	1	
15-Apr-13	sub2311	2311	1	1	99	3	2	2	5	2	1	2	1	0.45484	1	0.6	0	22	60	61	1	
15-Apr-13	sub2311	2311	1	1	100	3	2	2	5	2	1	2	1	0.45896	1	0.6	0	22	60	61	1	
15-Apr-13	sub2311	2311	1	1	101	3	2	2	5	2	1	2	1	0.38543	1	0.5	0	22	60	61	1	
15-Apr-13	sub2311	2311	1	1	102	3	2	6	1	6	0	2	0	0.68151	1	0.5	1	26	67	51	0	
15-Apr-13	sub2311	2311	1	1	103	3	2	6	1	6	1	2	1	0.43363	1	0.6	0	26	65	66	1	
15-Apr-13	sub2311	2311	1	1	104	3	2	2	5	2	1	1	0	0.53861	0	0.6	0	22	80	81	0	
15-Apr-13	sub2311	2311	1	1	105	3	2	6	1	6	0	2	0	0.40557	1	0.6	0	26	67	88	1	
15-Apr-13	sub2311	2311	1	1	106	3	2	6	1	6	1	2	1	0.40965	1	0.6	0	26	65	66	1	
15-Apr-13	sub2311	2311	1	1	107	3	2	2	5	2	1	2	1	0.45987	1	0.6	0	22	60	61	1	
15-Apr-13	sub2311	2311	1	1	108	3	2	4	3	6	1	2	1	0.5916	1	0.6	0	24	62	63	0	
15-Apr-13	sub2311	2311	1	1	109	3	2	5	2	6	0	2	1	0.4474	0	0.6	0	25	87	68	1	
15-Apr-13	sub2311	2311	1	1	110	3	2	4	3	6	1	2	1	0.5112	1	0.6	0	24	62	63	0	
15-Apr-13	sub2311	2311	1	1	111	3	2	5	2	6	0	2	1	0.47385	0	0.6	0	25	87	68	1	
15-Apr-13	sub2311	2311	1	1	112	3	2	1	4	2	1	1	1	0.70219	1	0.6	1	21	60	51	0	
15-Apr-13	sub2311	2311	1	1	113	3	2	1	4	2	1	1	1	0.4594	1	0.7	0	21	60	61	1	
15-Apr-13	sub2311	2311	1	1	114	3	2	5	2	6	0	2	1	0.57492	0	0.7	0	25	87	68	0	
15-Apr-13	sub2311	2311	1	1	115	3	2	1	4	2	1	1	1	0.46605	1	0.7	0	21	60	61	1	
15-Apr-13	sub2311	2311	1	1	116	3	2	3	6	2	0	1	0	0.69882	1	0.7	0	23	64	89	0	
15-Apr-13	sub2311	2311	1	1	117	3	2	1	4	2	1	1	1	0.57147	1	0.7	0	21	60	61	0	
15-Apr-13	sub2311	2311	1	1	118	3	2	4	3	6	1	2	1	0.59962	1	0.7	0	24	62	63	0	
15-Apr-13	sub2311	2311	1	1	119	3	2	6	1	6	1	2	1	0.57218	1	0.7	0	26	65	66	0	
15-Apr-13	sub2311	2311	1	1	120	3	2	1	4	2	1	1	1	0.70759	1	0.7	1	21	60	51	0	
15-Apr-13	sub2311	2311	1	1	121	3	2	2	5	2	1	2	1	0.52618	1	0.7	0	22	60	61	0	
15-Apr-13	sub2311	2311	1	1	122	3	2	3	6	2	1	1	1	0.67721	1	0.7	0	23	62	63	0	
15-Apr-13	sub2311	2311	1	1	123	3	2	5	2	6	0	2	1	0.5762	0	0.7	0	25	87	68	0	
15-Apr-13	sub2311	2311	1	1	124	3	2	1	4	2	1	1	1	0.52783	1	0.7	0	21	60	61	0	
15-Apr-13	sub2311	2311	1	1	125	3	2	6	1	6	0	2	0	0.5323	1	0.7	0	26	67	88	0	
15-Apr-13	sub2311	2311	1	1	126	3	2	5	2	6	0	2	1	2.05121	0	0.7	1	25	87	51	0	
15-Apr-13	sub2311	2311	1	1	127	3	2	1	4	2	1	1	1	0.57037	1	0.8	0	21	60	61	0	
15-Apr-13	sub2311	2311	1	1	128	3	2	5	2	6	0	2	1	0.46562	0	0.8	0	25	87	68	1	
15-Apr-13	sub2311	2311	1	1	129	3	2	3	6	2	1	1	1	0.62226	1	0.8	0	23	62	63	0	
15-Apr-13	sub2311	2311	1	1	130	3	2	1	4	2	1	1	1	0.68435	1	0.8	0	21	60	61	0	
15-Apr-13	sub2311	2311	1	1	131	3	2	3	6	2	1	1	1	0.48978	1	0.8	0	23	62	63	1	
15-Apr-13	sub2311	2311	1	1	132	3	2	4	3	6	1	2	1	0.53659	1	0.8	0	24	62	63	0	
15-Apr-13	sub2311	2311	1	1	133	3	2	6	1	6	1	2	1	0.52731	1	0.8	0	26	65	66	0	
15-Apr-13	sub2311	2311	1	1	134	3	2	1	4	2	1	1	1	0.55866	1	0.8	0	21	60	61	0	
15-Apr-13	sub2311	2311	1	1	135	3	2	1	4	2	1	1	1	0.67656	1	0.7	0	21	60	61	0	
15-Apr-13	sub2311	2311	1	1	136	3	2	6	1	6	0	2	0	0.50452	1	0.7	0	26	67	88	0	
15-Apr-13	sub2311	2311	1	1	137	3	2	2	5	2	1	2	1	0.54159	1	0.7	0	22	60	61	0	
15-Apr-13	sub2311	2311	1	1	138	3	2	4	3	6	0	2	0	0.47951	1	0.7	0	24	64	89	1	
15-Apr-13	sub2311	2311	1	1	139	3	2	4	3	6	1	2	1	0.4349	1	0.7	0	24	62	63	1	
15-Apr-13	sub2311	2311	1	1	140	3	2	1	4	2	1	2	0	0.46434	0	0.7	0	21	80	81	1	
15-Apr-13	sub2311	2311	1	1	141	3	2	3	6	2	1	1	1	0.56016	1	0.7	0	23	62	63	0	
15-Apr-13	sub2311	2311	1	1	142	3	2	4	3	6	0	1	1	0.4628	0	0.7	0	24	84	69	1	
15-Apr-13	sub2311	2311	1	1	143	3	2	1	4	2	1	1	1	0.5658	1	0.7	0	21	60	61	0	
15-Apr-13	sub2311	2311	1	1	144	3	2	4	3	6	0	2	0	0.37474	1	0.7	0	24	64	89	1	
15-Apr-13	sub2311	2311	1	1	145	3	2	3	6	2	1	1	1	0.52663	1	0.7	0	23	62	63	0	
15-Apr-13	sub2311	2311	1	1	146	3	2	4	3	6	1	1	0	0.5058	0	0.7	0	24	82	83	0	
15-Apr-13	sub2311	2311	1	1	147	3	2	4	3	6	1	2	1	0.53666	1	0.7	0	24	62	63	0	
15-Apr-13	sub2311	2311	1	1	148	3	2	2	5	2	1	2	1	0.56256	1	0.7	0	22	60	61	0	
15-Apr-13	sub2311	2311	1	1	149	3	2	1	4	2	1	1	1	0.59907	1	0.7	0	21	60	61	0	
15-Apr-13	sub2311	2311	1	1	150	3	2	3	6	2	1	1	1	0.6366	1	0.7	0	23	62	63	0	
15-Apr-13	sub2311	2311	1	1	1	4	1	1	2	4	1	2	0	0.43767	0	0.6	0	11	40	41	1	
15-Apr-13	sub2311	2311	1	1	2	4	1	4	1	4	1	2	1	0.6251	1	0.3	1	14	32	51	0	
15-Apr-13	sub2311	2311	1	1	3	4	1	5	6	5	0	2	1	0.68828	0	0.9	0	15	47	38	0	
15-Apr-13	sub2311	2311	1	1	4	4	1	3	3	4	0	2	1	0.55776	0	0.9	0	13	44	39	0	
15-Apr-13	sub2311	2311	1	1	5	4	1	3	3	4	1	2	0	0.40999	0	0.9	0	13	42	43	1	
15-Apr-13	sub2311	2311	1	1	6	4	1	2	5	4	1	2	1	0.42961	1	0.9	0	12	30	31	1	
15-Apr-13	sub2311	2311	1	1	7	4	1	3	3	4	0	2	1	0.45478	0	0.9	0	13	44	39	1	
15-Apr-13	sub2311	2311	1	1	8	4	1	6	4	4	0	2	0	0.46091	1	0.9	0	16	37	48	1	
15-Apr-13	sub2311	2311	1	1	9	4	1	5	6	5	0	2	1	0.48621	0	0.9	0	15	47	38	1	
15-Apr-13	sub2311	2311	1	1	10	4	1	3	3	4	1	2	0	0.5292	0	0.9	0	13	42	43	0	
15-Apr-13	sub2311	2311	1	1	11	4	1	5	6	5	1	2	0	0.49474	0	0.9	0	15	45	46	1	
15-Apr-13	sub2311	2311	1	1	12	4	1	2	5	4	1	2	1	0.51166	1	0.9	0	12	30	31	0	
15-Apr-13	sub2311	2311	1	1	13	4	1	4	1	4	1	2	1	0.62988	1	0.9	0	14	32	33	0	
15-Apr-13	sub2311	2311	1	1	14	4	1	2	5	4	1	2	1	0.51707	1	0.9	0	12	30	31	0	
15-Apr-13	sub2311	2311	1	1	15	4	1	1	2	4	1	2	0	0.59124	0	0.9	0	11	40	41	0	
15-Apr-13	sub2311	2311	1	1	16	4	1	6	4	4	0	1	1	0.65823	0	0.8	0	16	47	38	0	
15-Apr-13	sub2311	2311	1	1	17	4	1	1	2	4	1	1	1	0.61388	1	0.8	0	11	30	31	0	
15-Apr-13	sub2311	2311	1	1	18	4	1	1	2	4	1	1	1	0.55251	1	0.7	0	11	30	31	0	
15-Apr-13	sub2311	2311	1	1	19	4	1	6	4	4	1	1	0	0.65573	0	0.7	0	16	45	46	0	
15-Apr-13	sub2311	2311	1	1	20	4	1	4	1	4	1	2	1	0.46641	1	0.7	0	14	32	33	1	
15-Apr-13	sub2311	2311	1	1	21	4	1	4	1	4	1	2	1	0.47762	1	0.6	0	14	32	33	1	
15-Apr-13	sub2311	2311	1	1	22	4	1	6	4	4	1	1	0	0.61206	0	0.6	1	16	45	51	0	
15-Apr-13	sub2311	2311	1	1	23	4	1	3	3	4	1	2	0	0.64614	0	0.9	0	13	42	43	0	
15-Apr-13	sub2311	2311	1	1	24	4	1	1	2	4	1	1	1	0.5805	1	0.9	0	11	30	31	0	
15-Apr-13	sub2311	2311	1	1	25	4	1	1	2	4	1	1	1	0.53506	1	0.9	0	11	30	31	0	
15-Apr-13	sub2311	2311	1	1	26	4	1	2	5	4	1	2	1	0.58067	1	0.9	0	12	30	31	0	
15-Apr-13	sub2311	2311	1	1	27	4	1	3	3	4	1	2	0	0.66513	0	0.9	0	13	42	43	0	
15-Apr-13	sub2311	2311	1	1	28	4	1	3	3	4	1	1	1	0.52655	1	0.9	0	13	32	33	0	
15-Apr-13	sub2311	2311	1	1	29	4	1	2	5	4	1	2	1	0.64843	1	0.9	0	12	30	31	0	
15-Apr-13	sub2311	2311	1	1	30	4	1	1	2	4	1	1	1	0.62706	1	0.8	0	11	30	31	0	
15-Apr-13	sub2311	2311	1	1	31	4	1	5	6	5	1	2	0	0.80258	0	0.8	1	15	45	51	0	
15-Apr-13	sub2311	2311	1	1	32	4	1	1	2	4	1	1	1	0.88126	1	0.9	0	11	30	31	0	
15-Apr-13	sub2311	2311	1	1	33	4	1	4	1	4	1	2	1	0.48817	1	0.9	0	14	32	33	1	
15-Apr-13	sub2311	2311	1	1	34	4	1	4	1	4	0	2	0	0.54225	1	0.9	0	14	34	49	0	
15-Apr-13	sub2311	2311	1	1	35	4	1	3	3	4	1	1	1	0.83646	1	0.9	0	13	32	33	0	
15-Apr-13	sub2311	2311	1	1	36	4	1	6	4	4	1	1	0	0.64499	0	0.9	0	16	45	46	0	
15-Apr-13	sub2311	2311	1	1	37	4	1	6	4	4	0	1	1	0.50003	0	0.9	0	16	47	38	1	
15-Apr-13	sub2311	2311	1	1	38	4	1	5	6	5	1	2	0	0.82483	0	0.9	0	15	45	46	0	
15-Apr-13	sub2311	2311	1	1	39	4	1	2	5	4	1	2	1	0.62944	1	0.9	0	12	30	31	0	
15-Apr-13	sub2311	2311	1	1	40	4	1	3	3	4	1	2	0	0.61167	0	0.9	0	13	42	43	0	
15-Apr-13	sub2311	2311	1	1	41	4	1	4	1	4	1	2	1	0.55776	1	0.9	0	14	32	33	0	
15-Apr-13	sub2311	2311	1	1	42	4	1	3	3	4	1	2	0	0.5629	0	0.9	0	13	42	43	0	
15-Apr-13	sub2311	2311	1	1	43	4	1	5	6	5	1	2	0	1.01649	0	0.9	1	15	45	51	0	
15-Apr-13	sub2311	2311	1	1	44	4	1	2	5	4	1	2	1	0.57243	1	0.9	0	12	30	31	0	
15-Apr-13	sub2311	2311	1	1	45	4	1	4	1	4	0	2	0	0.53256	1	0.9	0	14	34	49	0	
15-Apr-13	sub2311	2311	1	1	46	4	1	2	5	4	1	2	1	0.53513	1	0.9	0	12	30	31	0	
15-Apr-13	sub2311	2311	1	1	47	4	1	6	4	4	1	1	0	0.61186	0	0.9	0	16	45	46	0	
15-Apr-13	sub2311	2311	1	1	48	4	1	4	1	4	1	2	1	0.61119	1	0.9	0	14	32	33	0	
15-Apr-13	sub2311	2311	1	1	49	4	1	5	6	5	0	2	1	0.73856	0	0.9	0	15	47	38	0	
15-Apr-13	sub2311	2311	1	1	50	4	1	1	2	4	1	1	1	0.84097	1	0.9	0	11	30	31	0	
15-Apr-13	sub2311	2311	1	1	51	4	1	1	2	4	1	1	1	0.66624	1	0.9	0	11	30	31	0	
15-Apr-13	sub2311	2311	1	1	52	4	1	1	2	4	1	1	1	0.72679	1	0.9	0	11	30	31	0	
15-Apr-13	sub2311	2311	1	1	53	4	1	3	3	4	1	1	1	0.73484	1	0.9	0	13	32	33	0	
15-Apr-13	sub2311	2311	1	1	54	4	1	2	5	4	1	2	1	0.59706	1	0.9	0	12	30	31	0	
15-Apr-13	sub2311	2311	1	1	55	4	1	5	6	5	1	2	0	0.44694	0	0.9	0	15	45	46	1	
15-Apr-13	sub2311	2311	1	1	56	4	1	1	2	4	1	1	1	0.6194	1	0.9	0	11	30	31	0	
15-Apr-13	sub2311	2311	1	1	57	4	1	2	5	4	1	2	1	0.58875	1	0.9	0	12	30	31	0	
15-Apr-13	sub2311	2311	1	1	58	4	1	5	6	5	0	2	1	0.67127	0	0.9	0	15	47	38	0	
15-Apr-13	sub2311	2311	1	1	59	4	1	3	3	4	0	1	0	0.72513	1	0.8	0	13	34	49	0	
15-Apr-13	sub2311	2311	1	1	60	4	1	4	1	4	1	2	1	0.79022	1	0.8	0	14	32	33	0	
15-Apr-13	sub2311	2311	1	1	61	4	1	2	5	4	1	2	1	0.62586	1	0.8	0	12	30	31	0	
15-Apr-13	sub2311	2311	1	1	62	4	1	4	1	4	1	2	1	1.71134	1	0.8	1	14	32	51	0	
15-Apr-13	sub2311	2311	1	1	63	4	1	4	1	4	1	2	1	0.41857	1	0.9	0	14	32	33	1	
15-Apr-13	sub2311	2311	1	1	64	4	1	6	4	4	1	1	0	0.63114	0	0.9	0	16	45	46	0	
15-Apr-13	sub2311	2311	1	1	65	4	1	6	4	4	0	1	1	0.44233	0	0.9	0	16	47	38	1	
15-Apr-13	sub2311	2311	1	1	66	4	1	2	5	4	1	2	1	0.54757	1	0.9	0	12	30	31	0	
15-Apr-13	sub2311	2311	1	1	67	4	1	6	4	4	0	1	1	0.55432	0	0.9	0	16	47	38	0	
15-Apr-13	sub2311	2311	1	1	68	4	1	6	4	4	0	1	1	0.62923	0	0.9	0	16	47	38	0	
15-Apr-13	sub2311	2311	1	1	69	4	1	5	6	5	1	2	0	0.66434	0	0.9	0	15	45	46	0	
15-Apr-13	sub2311	2311	1	1	70	4	1	3	3	4	1	1	1	0.7921	1	0.9	0	13	32	33	0	
15-Apr-13	sub2311	2311	1	1	71	4	1	6	4	4	0	1	1	0.52206	0	0.9	0	16	47	38	0	
15-Apr-13	sub2311	2311	1	1	72	4	1	2	5	4	1	2	1	0.64926	1	0.9	0	12	30	31	0	
15-Apr-13	sub2311	2311	1	1	73	4	1	5	6	5	0	2	1	0.5883	0	0.8	0	15	47	38	0	
15-Apr-13	sub2311	2311	1	1	74	4	1	6	4	4	1	1	0	0.64374	0	0.8	0	16	45	46	0	
15-Apr-13	sub2311	2311	1	1	75	4	1	5	6	5	0	1	0	0.89196	1	0.8	1	15	37	51	0	
15-Apr-13	sub2311	2311	1	1	76	4	2	6	4	4	0	1	1	0.62101	0	0.9	0	26	87	68	0	
15-Apr-13	sub2311	2311	1	1	77	4	2	1	2	4	1	1	1	0.60102	1	0.9	0	21	60	61	0	
15-Apr-13	sub2311	2311	1	1	78	4	2	5	6	5	0	2	1	0.72588	0	0.9	0	25	87	68	0	
15-Apr-13	sub2311	2311	1	1	79	4	2	1	2	4	1	1	1	0.60218	1	0.9	0	21	60	61	0	
15-Apr-13	sub2311	2311	1	1	80	4	2	2	5	4	1	2	1	0.75578	1	0.9	0	22	60	61	0	
15-Apr-13	sub2311	2311	1	1	81	4	2	2	5	4	1	2	1	0.56163	1	0.9	0	22	60	61	0	
15-Apr-13	sub2311	2311	1	1	82	4	2	5	6	5	0	2	1	0.67679	0	0.9	0	25	87	68	0	
15-Apr-13	sub2311	2311	1	1	83	4	2	1	2	4	1	1	1	0.63414	1	0.9	0	21	60	61	0	
15-Apr-13	sub2311	2311	1	1	84	4	2	2	5	4	1	2	1	0.59413	1	0.9	0	22	60	61	0	
15-Apr-13	sub2311	2311	1	1	85	4	2	3	3	4	1	1	1	0.79001	1	0.9	0	23	62	63	0	
15-Apr-13	sub2311	2311	1	1	86	4	2	4	1	4	1	2	1	0.54703	1	0.9	0	24	62	63	0	
15-Apr-13	sub2311	2311	1	1	87	4	2	1	2	4	1	1	1	0.84896	1	0.8	1	21	60	51	0	
15-Apr-13	sub2311	2311	1	1	88	4	2	6	4	4	0	1	1	0.55326	0	0.9	0	26	87	68	0	
15-Apr-13	sub2311	2311	1	1	89	4	2	4	1	4	1	2	1	0.80011	1	0.9	0	24	62	63	0	
15-Apr-13	sub2311	2311	1	1	90	4	2	1	2	4	1	1	1	0.57105	1	0.9	0	21	60	61	0	
15-Apr-13	sub2311	2311	1	1	91	4	2	3	3	4	1	1	1	0.66381	1	0.9	0	23	62	63	0	
15-Apr-13	sub2311	2311	1	1	92	4	2	1	2	4	1	1	1	1.23699	1	0.9	1	21	60	51	0	
15-Apr-13	sub2311	2311	1	1	93	4	2	2	5	4	1	2	1	0.49319	1	0.9	0	22	60	61	1	
15-Apr-13	sub2311	2311	1	1	94	4	2	6	4	4	0	1	1	0.63746	0	0.9	0	26	87	68	0	
15-Apr-13	sub2311	2311	1	1	95	4	2	4	1	4	1	2	1	0.54314	1	0.9	0	24	62	63	0	
15-Apr-13	sub2311	2311	1	1	96	4	2	6	4	4	1	1	0	0.72904	0	0.9	0	26	85	86	0	
15-Apr-13	sub2311	2311	1	1	97	4	2	3	3	4	1	1	1	0.95421	1	0.9	1	23	62	51	0	
15-Apr-13	sub2311	2311	1	1	98	4	2	3	3	4	0	1	0	0.52063	1	0.9	0	23	64	89	0	
15-Apr-13	sub2311	2311	1	1	99	4	2	2	5	4	1	2	1	0.5504	1	0.9	0	22	60	61	0	
15-Apr-13	sub2311	2311	1	1	100	4	2	1	2	4	1	1	1	0.65373	1	0.9	0	21	60	61	0	
15-Apr-13	sub2311	2311	1	1	101	4	2	4	1	4	1	2	1	0.64296	1	0.9	0	24	62	63	0	
15-Apr-13	sub2311	2311	1	1	102	4	2	2	5	4	1	2	1	0.98234	1	0.9	1	22	60	51	0	
15-Apr-13	sub2311	2311	1	1	103	4	2	4	1	4	0	2	0	0.4601	1	0.9	0	24	64	89	1	
15-Apr-13	sub2311	2311	1	1	104	4	2	3	3	4	1	2	0	0.40467	0	0.9	0	23	82	83	1	
15-Apr-13	sub2311	2311	1	1	105	4	2	6	4	4	1	1	0	0.56924	0	0.9	0	26	85	86	0	
15-Apr-13	sub2311	2311	1	1	106	4	2	5	6	5	0	1	0	0.5013	1	0.9	0	25	67	88	0	
15-Apr-13	sub2311	2311	1	1	107	4	2	2	5	4	1	2	1	0.53515	1	0.9	0	22	60	61	0	
15-Apr-13	sub2311	2311	1	1	108	4	2	6	4	4	0	1	1	0.70115	0	0.9	0	26	87	68	0	
15-Apr-13	sub2311	2311	1	1	109	4	2	4	1	4	1	2	1	0.5347	1	0.9	0	24	62	63	0	
15-Apr-13	sub2311	2311	1	1	110	4	2	6	4	4	1	1	0	0.67917	0	0.9	0	26	85	86	0	
15-Apr-13	sub2311	2311	1	1	111	4	2	2	5	4	1	2	1	0.52686	1	0.9	0	22	60	61	0	
15-Apr-13	sub2311	2311	1	1	112	4	2	6	4	4	0	1	1	0.62919	0	0.9	0	26	87	68	0	
15-Apr-13	sub2311	2311	1	1	113	4	2	5	6	5	0	2	1	0.71557	0	0.9	0	25	87	68	0	
15-Apr-13	sub2311	2311	1	1	114	4	2	3	3	4	1	2	0	0.70241	0	0.9	0	23	82	83	0	
15-Apr-13	sub2311	2311	1	1	115	4	2	6	4	4	0	2	0	0.50992	1	0.9	0	26	67	88	0	
15-Apr-13	sub2311	2311	1	1	116	4	2	4	1	4	1	2	1	0.54493	1	0.9	0	24	62	63	0	
15-Apr-13	sub2311	2311	1	1	117	4	2	4	1	4	1	2	1	0.58936	1	0.9	0	24	62	63	0	
15-Apr-13	sub2311	2311	1	1	118	4	2	1	2	4	1	1	1	0.5377	1	0.9	0	21	60	61	0	
15-Apr-13	sub2311	2311	1	1	119	4	2	4	1	4	1	2	1	0.62687	1	0.9	0	24	62	63	0	
15-Apr-13	sub2311	2311	1	1	120	4	2	5	6	5	0	1	0	0.80048	1	0.9	0	25	67	88	0	
15-Apr-13	sub2311	2311	1	1	121	4	2	3	3	4	1	2	0	0.37637	0	0.9	0	23	82	83	1	
15-Apr-13	sub2311	2311	1	1	122	4	2	5	6	5	0	2	1	0.67848	0	0.9	0	25	87	68	0	
15-Apr-13	sub2311	2311	1	1	123	4	2	3	3	4	1	1	1	0.62713	1	0.9	0	23	62	63	0	
15-Apr-13	sub2311	2311	1	1	124	4	2	1	2	4	1	1	1	0.55178	1	0.9	0	21	60	61	0	
15-Apr-13	sub2311	2311	1	1	125	4	2	5	6	5	0	1	0	0.57263	1	0.9	0	25	67	88	0	
15-Apr-13	sub2311	2311	1	1	126	4	2	4	1	4	0	2	0	0.73317	1	0.9	0	24	64	89	0	
15-Apr-13	sub2311	2311	1	1	127	4	2	4	1	4	1	2	1	0.40332	1	0.9	0	24	62	63	1	
15-Apr-13	sub2311	2311	1	1	128	4	2	6	4	4	1	1	0	0.52088	0	0.9	0	26	85	86	0	
15-Apr-13	sub2311	2311	1	1	129	4	2	4	1	4	0	2	0	1.86431	1	0.9	1	24	64	51	0	
15-Apr-13	sub2311	2311	1	1	130	4	2	2	5	4	1	2	1	0.51799	1	0.9	0	22	60	61	0	
15-Apr-13	sub2311	2311	1	1	131	4	2	6	4	4	1	1	0	0.6397	0	0.9	0	26	85	86	0	
15-Apr-13	sub2311	2311	1	1	132	4	2	5	6	5	0	1	0	0.51268	1	0.9	0	25	67	88	0	
15-Apr-13	sub2311	2311	1	1	133	4	2	3	3	4	1	2	0	0.71542	0	0.9	0	23	82	83	0	
15-Apr-13	sub2311	2311	1	1	134	4	2	1	2	4	1	1	1	0.55402	1	0.9	0	21	60	61	0	
15-Apr-13	sub2311	2311	1	1	135	4	2	5	6	5	0	2	1	0.74711	0	0.9	0	25	87	68	0	
15-Apr-13	sub2311	2311	1	1	136	4	2	1	2	4	1	1	1	0.5566	1	0.9	0	21	60	61	0	
15-Apr-13	sub2311	2311	1	1	137	4	2	1	2	4	1	2	0	0.49616	0	0.9	0	21	80	81	1	
15-Apr-13	sub2311	2311	1	1	138	4	2	5	6	5	0	2	1	0.73494	0	0.9	0	25	87	68	0	
15-Apr-13	sub2311	2311	1	1	139	4	2	3	3	4	0	1	0	0.74248	1	0.9	0	23	64	89	0	
15-Apr-13	sub2311	2311	1	1	140	4	2	3	3	4	1	2	0	0.45716	0	0.9	0	23	82	83	1	
15-Apr-13	sub2311	2311	1	1	141	4	2	5	6	5	0	2	1	0.58282	0	0.9	0	25	87	68	0	
15-Apr-13	sub2311	2311	1	1	142	4	2	1	2	4	1	1	1	0.59876	1	0.9	0	21	60	61	0	
15-Apr-13	sub2311	2311	1	1	143	4	2	2	5	4	1	2	1	0.62856	1	0.9	0	22	60	61	0	
15-Apr-13	sub2311	2311	1	1	144	4	2	2	5	4	1	2	1	0.6231	1	0.9	0	22	60	61	0	
15-Apr-13	sub2311	2311	1	1	145	4	2	4	1	4	1	2	1	0.72898	1	0.9	0	24	62	63	0	
15-Apr-13	sub2311	2311	1	1	146	4	2	2	5	4	1	2	1	0.59542	1	0.9	0	22	60	61	0	
15-Apr-13	sub2311	2311	1	1	147	4	2	5	6	5	0	2	1	0.69752	0	0.9	0	25	87	68	0	
15-Apr-13	sub2311	2311	1	1	148	4	2	6	4	4	1	1	0	0.64567	0	0.9	0	26	85	86	0	
15-Apr-13	sub2311	2311	1	1	149	4	2	5	6	5	0	2	1	0.62531	0	0.9	0	25	87	68	0	
15-Apr-13	sub2311	2311	1	1	150	4	2	3	3	4	1	1	1	0.93125	1	0.9	1	23	62	51	0	
15-Apr-13	sub2311	2311	1	1	1	5	1	5	3	5	1	2	0	0.37202	0	0.6	0	15	45	46	1	
15-Apr-13	sub2311	2311	1	1	2	5	1	2	6	3	1	1	0	0.57237	0	0.3	1	12	40	51	0	
15-Apr-13	sub2311	2311	1	1	3	5	1	3	4	3	0	1	0	0.57745	1	0.9	0	13	34	49	0	
15-Apr-13	sub2311	2311	1	1	4	5	1	4	2	2	1	2	1	0.54739	1	0.9	0	14	32	33	0	
15-Apr-13	sub2311	2311	1	1	5	5	1	5	3	5	1	1	1	0.48795	1	0.9	0	15	35	36	1	
15-Apr-13	sub2311	2311	1	1	6	5	1	2	6	3	1	1	0	0.38582	0	0.9	0	12	40	41	1	
15-Apr-13	sub2311	2311	1	1	7	5	1	6	5	3	1	1	0	0.52186	0	0.9	0	16	45	46	0	
15-Apr-13	sub2311	2311	1	1	8	5	1	6	5	3	0	2	0	0.44143	1	0.9	0	16	37	48	1	
15-Apr-13	sub2311	2311	1	1	9	5	1	6	5	3	1	2	1	0.42644	1	0.9	0	16	35	36	1	
15-Apr-13	sub2311	2311	1	1	10	5	1	5	3	5	0	1	0	0.43986	1	0.9	0	15	37	48	1	
15-Apr-13	sub2311	2311	1	1	11	5	1	1	1	2	1	2	0	0.47947	0	0.9	0	11	40	41	1	
15-Apr-13	sub2311	2311	1	1	12	5	1	6	5	3	0	2	0	0.55644	1	0.9	0	16	37	48	0	
15-Apr-13	sub2311	2311	1	1	13	5	1	4	2	2	0	2	0	0.57291	1	0.9	0	14	34	49	0	
15-Apr-13	sub2311	2311	1	1	14	5	1	3	4	3	1	2	0	0.9234	0	0.9	1	13	42	51	0	
15-Apr-13	sub2311	2311	1	1	15	5	1	4	2	2	1	2	1	0.54784	1	0.9	0	14	32	33	0	
15-Apr-13	sub2311	2311	1	1	16	5	1	1	1	2	1	2	0	0.48312	0	0.9	0	11	40	41	1	
15-Apr-13	sub2311	2311	1	1	17	5	1	2	6	3	1	1	0	0.73131	0	0.9	0	12	40	41	0	
15-Apr-13	sub2311	2311	1	1	18	5	1	1	1	2	1	2	0	0.68605	0	0.9	0	11	40	41	0	
15-Apr-13	sub2311	2311	1	1	19	5	1	4	2	2	1	2	1	0.69105	1	0.9	0	14	32	33	0	
15-Apr-13	sub2311	2311	1	1	20	5	1	2	6	3	1	1	0	0.47923	0	0.9	0	12	40	41	1	
15-Apr-13	sub2311	2311	1	1	21	5	1	1	1	2	1	1	1	0.45643	1	0.9	0	11	30	31	1	
15-Apr-13	sub2311	2311	1	1	22	5	1	5	3	5	1	1	1	0.62781	1	0.9	0	15	35	36	0	
15-Apr-13	sub2311	2311	1	1	23	5	1	4	2	2	1	2	1	0.77424	1	0.9	0	14	32	33	0	
15-Apr-13	sub2311	2311	1	1	24	5	1	5	3	5	1	2	0	0.90067	0	0.9	1	15	45	51	0	
15-Apr-13	sub2311	2311	1	1	25	5	1	5	3	5	0	2	1	0.39986	0	0.9	0	15	47	38	1	
15-Apr-13	sub2311	2311	1	1	26	5	1	1	1	2	1	1	1	0.64943	1	0.9	0	11	30	31	0	
15-Apr-13	sub2311	2311	1	1	27	5	1	4	2	2	1	2	1	0.53895	1	0.9	0	14	32	33	0	
15-Apr-13	sub2311	2311	1	1	28	5	1	2	6	3	1	1	0	0.52888	0	0.9	0	12	40	41	0	
15-Apr-13	sub2311	2311	1	1	29	5	1	4	2	2	1	2	1	0.5162	1	0.9	0	14	32	33	0	
15-Apr-13	sub2311	2311	1	1	30	5	1	4	2	2	1	2	1	0.58608	1	0.9	0	14	32	33	0	
15-Apr-13	sub2311	2311	1	1	31	5	1	5	3	5	1	2	0	0.84666	0	0.9	0	15	45	46	0	
15-Apr-13	sub2311	2311	1	1	32	5	1	3	4	3	1	1	1	0.81835	1	0.9	0	13	32	33	0	
15-Apr-13	sub2311	2311	1	1	33	5	1	5	3	5	0	2	1	0.55776	0	0.9	0	15	47	38	0	
15-Apr-13	sub2311	2311	1	1	34	5	1	6	5	3	0	2	0	0.60441	1	0.9	0	16	37	48	0	
15-Apr-13	sub2311	2311	1	1	35	5	1	1	1	2	1	2	0	0.7938	0	0.9	0	11	40	41	0	
15-Apr-13	sub2311	2311	1	1	36	5	1	2	6	3	1	2	1	0.72051	1	0.9	0	12	30	31	0	
15-Apr-13	sub2311	2311	1	1	37	5	1	5	3	5	1	2	0	0.74408	0	0.9	0	15	45	46	0	
15-Apr-13	sub2311	2311	1	1	38	5	1	2	6	3	1	2	1	0.5931	1	0.9	0	12	30	31	0	
15-Apr-13	sub2311	2311	1	1	39	5	1	3	4	3	1	2	0	0.70462	0	0.9	0	13	42	43	0	
15-Apr-13	sub2311	2311	1	1	40	5	1	1	1	2	1	2	0	0.52953	0	0.9	0	11	40	41	0	
15-Apr-13	sub2311	2311	1	1	41	5	1	6	5	3	1	2	1	0.53181	1	0.9	0	16	35	36	0	
15-Apr-13	sub2311	2311	1	1	42	5	1	3	4	3	1	2	0	0.84992	0	0.9	0	13	42	43	0	
15-Apr-13	sub2311	2311	1	1	43	5	1	1	1	2	1	1	1	0.58005	1	0.9	0	11	30	31	0	
15-Apr-13	sub2311	2311	1	1	44	5	1	4	2	2	1	2	1	0.56149	1	0.8	0	14	32	33	0	
15-Apr-13	sub2311	2311	1	1	45	5	1	5	3	5	0	2	1	0.64479	0	0.8	0	15	47	38	0	
15-Apr-13	sub2311	2311	1	1	46	5	1	3	4	3	1	1	1	0.72513	1	0.8	0	13	32	33	0	
15-Apr-13	sub2311	2311	1	1	47	5	1	2	6	3	1	2	1	0.64387	1	0.8	0	12	30	31	0	
15-Apr-13	sub2311	2311	1	1	48	5	1	2	6	3	1	2	1	0.43822	1	0.8	0	12	30	31	1	
15-Apr-13	sub2311	2311	1	1	49	5	1	6	5	3	1	2	1	0.60104	1	0.8	0	16	35	36	0	
15-Apr-13	sub2311	2311	1	1	50	5	1	1	1	2	1	1	1	0.7551	1	0.8	0	11	30	31	0	
15-Apr-13	sub2311	2311	1	1	51	5	1	3	4	3	1	2	0	0.66763	0	0.7	0	13	42	43	0	
15-Apr-13	sub2311	2311	1	1	52	5	1	6	5	3	0	2	0	0.51712	1	0.7	0	16	37	48	0	
15-Apr-13	sub2311	2311	1	1	53	5	1	5	3	5	0	2	1	0.4907	0	0.7	0	15	47	38	1	
15-Apr-13	sub2311	2311	1	1	54	5	1	4	2	2	1	2	1	0.63095	1	0.7	0	14	32	33	0	
15-Apr-13	sub2311	2311	1	1	55	5	1	2	6	3	1	2	1	0.59506	1	0.7	0	12	30	31	0	
15-Apr-13	sub2311	2311	1	1	56	5	1	3	4	3	1	1	1	0.8426	1	0.7	1	13	32	51	0	
15-Apr-13	sub2311	2311	1	1	57	5	1	3	4	3	1	1	1	0.44302	1	0.9	0	13	32	33	1	
15-Apr-13	sub2311	2311	1	1	58	5	1	2	6	3	1	2	1	0.64005	1	0.9	0	12	30	31	0	
15-Apr-13	sub2311	2311	1	1	59	5	1	6	5	3	0	2	0	0.51962	1	0.8	0	16	37	48	0	
15-Apr-13	sub2311	2311	1	1	60	5	1	6	5	3	1	1	0	0.57231	0	0.8	0	16	45	46	0	
15-Apr-13	sub2311	2311	1	1	61	5	1	4	2	2	0	2	0	0.49505	1	0.8	0	14	34	49	1	
15-Apr-13	sub2311	2311	1	1	62	5	1	2	6	3	1	1	0	0.62234	0	0.8	0	12	40	41	0	
15-Apr-13	sub2311	2311	1	1	63	5	1	4	2	2	1	2	1	0.46417	1	0.8	0	14	32	33	1	
15-Apr-13	sub2311	2311	1	1	64	5	1	2	6	3	1	2	1	0.66243	1	0.8	0	12	30	31	0	
15-Apr-13	sub2311	2311	1	1	65	5	1	6	5	3	1	2	1	0.57732	1	0.8	0	16	35	36	0	
15-Apr-13	sub2311	2311	1	1	66	5	1	1	1	2	1	1	1	0.63404	1	0.8	0	11	30	31	0	
15-Apr-13	sub2311	2311	1	1	67	5	1	3	4	3	0	1	0	0.85172	1	0.8	1	13	34	51	0	
15-Apr-13	sub2311	2311	1	1	68	5	1	1	1	2	1	1	1	0.61182	1	0.9	0	11	30	31	0	
15-Apr-13	sub2311	2311	1	1	69	5	1	3	4	3	0	1	0	0.63888	1	0.9	0	13	34	49	0	
15-Apr-13	sub2311	2311	1	1	70	5	1	1	1	2	1	1	1	0.52445	1	0.9	0	11	30	31	0	
15-Apr-13	sub2311	2311	1	1	71	5	1	6	5	3	1	2	1	0.54273	1	0.9	0	16	35	36	0	
15-Apr-13	sub2311	2311	1	1	72	5	1	3	4	3	1	1	1	0.9352	1	0.9	1	13	32	51	0	
15-Apr-13	sub2311	2311	1	1	73	5	1	5	3	5	0	2	1	0.73473	0	0.9	0	15	47	38	0	
15-Apr-13	sub2311	2311	1	1	74	5	1	3	4	3	1	1	1	0.85945	1	0.9	0	13	32	33	0	
15-Apr-13	sub2311	2311	1	1	75	5	1	6	5	3	0	2	0	0.63769	1	0.9	0	16	37	48	0	
15-Apr-13	sub2311	2311	1	1	76	5	2	3	4	3	1	1	1	0.61302	1	0.9	0	23	62	63	0	
15-Apr-13	sub2311	2311	1	1	77	5	2	4	2	2	0	2	0	0.56239	1	0.9	0	24	64	89	0	
15-Apr-13	sub2311	2311	1	1	78	5	2	3	4	3	1	1	1	0.66088	1	0.9	0	23	62	63	0	
15-Apr-13	sub2311	2311	1	1	79	5	2	5	3	5	0	2	1	0.50814	0	0.9	0	25	87	68	0	
15-Apr-13	sub2311	2311	1	1	80	5	2	5	3	5	0	2	1	0.53446	0	0.9	0	25	87	68	0	
15-Apr-13	sub2311	2311	1	1	81	5	2	1	1	2	1	2	0	1.02956	0	0.9	1	21	80	51	0	
15-Apr-13	sub2311	2311	1	1	82	5	2	3	4	3	1	1	1	0.63573	1	0.9	0	23	62	63	0	
15-Apr-13	sub2311	2311	1	1	83	5	2	2	6	3	1	2	1	0.71075	1	0.9	0	22	60	61	0	
15-Apr-13	sub2311	2311	1	1	84	5	2	4	2	2	1	2	1	0.58133	1	0.9	0	24	62	63	0	
15-Apr-13	sub2311	2311	1	1	85	5	2	5	3	5	0	2	1	0.82713	0	0.9	0	25	87	68	0	
15-Apr-13	sub2311	2311	1	1	86	5	2	2	6	3	1	2	1	0.63594	1	0.9	0	22	60	61	0	
15-Apr-13	sub2311	2311	1	1	87	5	2	1	1	2	1	1	1	0.76606	1	0.9	0	21	60	61	0	
15-Apr-13	sub2311	2311	1	1	88	5	2	4	2	2	1	2	1	0.57572	1	0.9	0	24	62	63	0	
15-Apr-13	sub2311	2311	1	1	89	5	2	2	6	3	1	2	1	1.13328	1	0.9	1	22	60	51	0	
15-Apr-13	sub2311	2311	1	1	90	5	2	5	3	5	0	2	1	0.60857	0	0.9	0	25	87	68	0	
15-Apr-13	sub2311	2311	1	1	91	5	2	6	5	3	1	2	1	0.56989	1	0.9	0	26	65	66	0	
15-Apr-13	sub2311	2311	1	1	92	5	2	2	6	3	1	2	1	0.46533	1	0.9	0	22	60	61	1	
15-Apr-13	sub2311	2311	1	1	93	5	2	5	3	5	0	2	1	0.60698	0	0.9	0	25	87	68	0	
15-Apr-13	sub2311	2311	1	1	94	5	2	2	6	3	1	2	1	0.52003	1	0.9	0	22	60	61	0	
15-Apr-13	sub2311	2311	1	1	95	5	2	5	3	5	0	2	1	0.61315	0	0.9	0	25	87	68	0	
15-Apr-13	sub2311	2311	1	1	96	5	2	1	1	2	1	1	1	0.68938	1	0.9	0	21	60	61	0	
15-Apr-13	sub2311	2311	1	1	97	5	2	4	2	2	0	2	0	0.58736	1	0.9	0	24	64	89	0	
15-Apr-13	sub2311	2311	1	1	98	5	2	6	5	3	1	2	1	0.51519	1	0.9	0	26	65	66	0	
15-Apr-13	sub2311	2311	1	1	99	5	2	5	3	5	0	2	1	0.5088	0	0.9	0	25	87	68	0	
15-Apr-13	sub2311	2311	1	1	100	5	2	5	3	5	0	2	1	0.54888	0	0.9	0	25	87	68	0	
15-Apr-13	sub2311	2311	1	1	101	5	2	2	6	3	1	2	1	0.54594	1	0.9	0	22	60	61	0	
15-Apr-13	sub2311	2311	1	1	102	5	2	4	2	2	1	2	1	5.87948	1	0.9	1	24	62	51	0	
15-Apr-13	sub2311	2311	1	1	103	5	2	3	4	3	1	1	1	0.82561	1	0.9	0	23	62	63	0	
15-Apr-13	sub2311	2311	1	1	104	5	2	1	1	2	1	1	1	0.59797	1	0.9	0	21	60	61	0	
15-Apr-13	sub2311	2311	1	1	105	5	2	4	2	2	1	2	1	0.53053	1	0.9	0	24	62	63	0	
15-Apr-13	sub2311	2311	1	1	106	5	2	6	5	3	0	2	0	0.52401	1	0.9	0	26	67	88	0	
15-Apr-13	sub2311	2311	1	1	107	5	2	2	6	3	1	2	1	0.58233	1	0.9	0	22	60	61	0	
15-Apr-13	sub2311	2311	1	1	108	5	2	3	4	3	0	1	0	0.63059	1	0.9	0	23	64	89	0	
15-Apr-13	sub2311	2311	1	1	109	5	2	2	6	3	1	2	1	0.44349	1	0.9	0	22	60	61	1	
15-Apr-13	sub2311	2311	1	1	110	5	2	3	4	3	1	1	1	0.68698	1	0.9	0	23	62	63	0	
15-Apr-13	sub2311	2311	1	1	111	5	2	3	4	3	0	1	0	0.541	1	0.9	0	23	64	89	0	
15-Apr-13	sub2311	2311	1	1	112	5	2	1	1	2	1	1	1	0.59596	1	0.9	0	21	60	61	0	
15-Apr-13	sub2311	2311	1	1	113	5	2	4	2	2	1	2	1	0.47582	1	0.9	0	24	62	63	1	
15-Apr-13	sub2311	2311	1	1	114	5	2	3	4	3	1	1	1	0.53323	1	0.9	0	23	62	63	0	
15-Apr-13	sub2311	2311	1	1	115	5	2	4	2	2	1	2	1	0.52018	1	0.9	0	24	62	63	0	
15-Apr-13	sub2311	2311	1	1	116	5	2	4	2	2	1	2	1	0.4912	1	0.9	0	24	62	63	1	
15-Apr-13	sub2311	2311	1	1	117	5	2	1	1	2	1	1	1	0.60749	1	0.9	0	21	60	61	0	
15-Apr-13	sub2311	2311	1	1	118	5	2	1	1	2	1	2	0	0.75003	0	0.9	0	21	80	81	0	
15-Apr-13	sub2311	2311	1	1	119	5	2	1	1	2	1	1	1	0.41712	1	0.9	0	21	60	61	1	
15-Apr-13	sub2311	2311	1	1	120	5	2	5	3	5	0	2	1	0.65725	0	0.9	0	25	87	68	0	
15-Apr-13	sub2311	2311	1	1	121	5	2	3	4	3	1	1	1	0.62853	1	0.9	0	23	62	63	0	
15-Apr-13	sub2311	2311	1	1	122	5	2	5	3	5	0	1	0	0.52165	1	0.9	0	25	67	88	0	
15-Apr-13	sub2311	2311	1	1	123	5	2	1	1	2	1	1	1	0.57626	1	0.9	0	21	60	61	0	
15-Apr-13	sub2311	2311	1	1	124	5	2	6	5	3	0	2	0	0.60518	1	0.9	0	26	67	88	0	
15-Apr-13	sub2311	2311	1	1	125	5	2	3	4	3	1	1	1	0.59634	1	0.9	0	23	62	63	0	
15-Apr-13	sub2311	2311	1	1	126	5	2	1	1	2	1	1	1	0.58667	1	0.9	0	21	60	61	0	
15-Apr-13	sub2311	2311	1	1	127	5	2	6	5	3	0	2	0	0.84828	1	0.9	0	26	67	88	0	
15-Apr-13	sub2311	2311	1	1	128	5	2	1	1	2	1	2	0	0.50319	0	0.9	0	21	80	81	0	
15-Apr-13	sub2311	2311	1	1	129	5	2	2	6	3	1	2	1	0.70732	1	0.9	0	22	60	61	0	
15-Apr-13	sub2311	2311	1	1	130	5	2	3	4	3	1	1	1	0.60733	1	0.8	0	23	62	63	0	
15-Apr-13	sub2311	2311	1	1	131	5	2	1	1	2	1	1	1	0.5073	1	0.8	0	21	60	61	0	
15-Apr-13	sub2311	2311	1	1	132	5	2	6	5	3	0	2	0	0.63403	1	0.8	0	26	67	88	0	
15-Apr-13	sub2311	2311	1	1	133	5	2	4	2	2	1	2	1	0.96107	1	0.8	1	24	62	51	0	
15-Apr-13	sub2311	2311	1	1	134	5	2	6	5	3	1	2	1	0.53629	1	0.9	0	26	65	66	0	
15-Apr-13	sub2311	2311	1	1	135	5	2	5	3	5	0	2	1	0.63029	0	0.9	0	25	87	68	0	
15-Apr-13	sub2311	2311	1	1	136	5	2	3	4	3	1	1	1	0.68972	1	0.9	0	23	62	63	0	
15-Apr-13	sub2311	2311	1	1	137	5	2	6	5	3	0	2	0	0.53224	1	0.9	0	26	67	88	0	
15-Apr-13	sub2311	2311	1	1	138	5	2	2	6	3	1	2	1	0.65154	1	0.9	0	22	60	61	0	
15-Apr-13	sub2311	2311	1	1	139	5	2	4	2	2	1	2	1	0.59566	1	0.9	0	24	62	63	0	
15-Apr-13	sub2311	2311	1	1	140	5	2	6	5	3	1	2	1	0.55425	1	0.9	0	26	65	66	0	
15-Apr-13	sub2311	2311	1	1	141	5	2	4	2	2	1	2	1	0.52212	1	0.9	0	24	62	63	0	
15-Apr-13	sub2311	2311	1	1	142	5	2	5	3	5	0	2	1	1.18408	0	0.9	1	25	87	51	0	
15-Apr-13	sub2311	2311	1	1	143	5	2	2	6	3	1	2	1	0.40457	1	0.9	0	22	60	61	1	
15-Apr-13	sub2311	2311	1	1	144	5	2	1	1	2	1	2	0	0.41801	0	0.9	0	21	80	81	1	
15-Apr-13	sub2311	2311	1	1	145	5	2	6	5	3	0	2	0	0.48774	1	0.9	0	26	67	88	1	
15-Apr-13	sub2311	2311	1	1	146	5	2	5	3	5	0	2	1	0.56735	0	0.9	0	25	87	68	0	
15-Apr-13	sub2311	2311	1	1	147	5	2	6	5	3	1	2	1	0.52685	1	0.9	0	26	65	66	0	
15-Apr-13	sub2311	2311	1	1	148	5	2	6	5	3	1	2	1	0.40277	1	0.9	0	26	65	66	1	
15-Apr-13	sub2311	2311	1	1	149	5	2	4	2	2	0	2	0	0.50791	1	0.9	0	24	64	89	0	
15-Apr-13	sub2311	2311	1	1	150	5	2	2	6	3	1	2	1	0.58348	1	0.9	0	22	60	61	0	
15-Apr-13	sub2311	2311	1	1	1	6	1	4	6	6	1	2	1	0.41515	1	0.6	0	14	32	33	1	
15-Apr-13	sub2311	2311	1	1	2	6	1	6	4	1	0	1	1	0.62403	0	0.3	1	16	47	51	0	
15-Apr-13	sub2311	2311	1	1	3	6	1	6	4	1	1	1	0	0.56915	0	0.9	0	16	45	46	0	
15-Apr-13	sub2311	2311	1	1	4	6	1	4	6	6	0	2	0	0.51762	1	0.9	0	14	34	49	0	
15-Apr-13	sub2311	2311	1	1	5	6	1	1	3	2	1	2	0	0.49466	0	0.9	0	11	40	41	1	
15-Apr-13	sub2311	2311	1	1	6	6	1	3	2	3	1	1	1	0.61997	1	0.9	0	13	32	33	0	
15-Apr-13	sub2311	2311	1	1	7	6	1	6	4	1	0	2	0	0.7089	1	0.9	0	16	37	48	0	
15-Apr-13	sub2311	2311	1	1	8	6	1	2	1	3	1	2	1	0.50395	1	0.9	0	12	30	31	0	
15-Apr-13	sub2311	2311	1	1	9	6	1	3	2	3	0	2	1	0.72833	0	0.9	0	13	44	39	0	
15-Apr-13	sub2311	2311	1	1	10	6	1	4	6	6	1	2	1	0.6392	1	0.9	0	14	32	33	0	
15-Apr-13	sub2311	2311	1	1	11	6	1	1	3	2	1	2	0	0.87288	0	0.9	0	11	40	41	0	
15-Apr-13	sub2311	2311	1	1	12	6	1	6	4	1	0	1	1	0.49954	0	0.9	0	16	47	38	1	
15-Apr-13	sub2311	2311	1	1	13	6	1	5	5	1	1	1	1	0.66396	1	0.9	0	15	35	36	0	
15-Apr-13	sub2311	2311	1	1	14	6	1	2	1	3	1	2	1	1.0139	1	0.9	1	12	30	51	0	
15-Apr-13	sub2311	2311	1	1	15	6	1	4	6	6	1	2	1	0.48292	1	0.9	0	14	32	33	1	
15-Apr-13	sub2311	2311	1	1	16	6	1	5	5	1	1	2	0	0.56457	0	0.9	0	15	45	46	0	
15-Apr-13	sub2311	2311	1	1	17	6	1	6	4	1	0	1	1	0.73144	0	0.9	0	16	47	38	0	
15-Apr-13	sub2311	2311	1	1	18	6	1	2	1	3	1	2	1	0.54015	1	0.9	0	12	30	31	0	
15-Apr-13	sub2311	2311	1	1	19	6	1	2	1	3	1	2	1	0.66113	1	0.9	0	12	30	31	0	
15-Apr-13	sub2311	2311	1	1	20	6	1	3	2	3	1	2	0	0.59985	0	0.9	0	13	42	43	0	
15-Apr-13	sub2311	2311	1	1	21	6	1	5	5	1	1	1	1	0.81248	1	0.9	0	15	35	36	0	
15-Apr-13	sub2311	2311	1	1	22	6	1	6	4	1	1	2	1	0.48892	1	0.9	0	16	35	36	1	
15-Apr-13	sub2311	2311	1	1	23	6	1	1	3	2	1	1	1	0.68404	1	0.9	0	11	30	31	0	
15-Apr-13	sub2311	2311	1	1	24	6	1	5	5	1	1	2	0	0.49592	0	0.9	0	15	45	46	1	
15-Apr-13	sub2311	2311	1	1	25	6	1	5	5	1	1	2	0	0.70433	0	0.9	0	15	45	46	0	
15-Apr-13	sub2311	2311	1	1	26	6	1	1	3	2	1	2	0	0.56442	0	0.9	0	11	40	41	0	
15-Apr-13	sub2311	2311	1	1	27	6	1	2	1	3	1	2	1	0.69752	1	0.9	0	12	30	31	0	
15-Apr-13	sub2311	2311	1	1	28	6	1	6	4	1	1	1	0	0.87902	0	0.9	0	16	45	46	0	
15-Apr-13	sub2311	2311	1	1	29	6	1	1	3	2	1	1	1	0.40648	1	0.9	0	11	30	31	1	
15-Apr-13	sub2311	2311	1	1	30	6	1	4	6	6	1	2	1	0.51587	1	0.8	0	14	32	33	0	
15-Apr-13	sub2311	2311	1	1	31	6	1	1	3	2	1	1	1	0.88586	1	0.8	1	11	30	51	0	
15-Apr-13	sub2311	2311	1	1	32	6	1	4	6	6	1	2	1	0.5643	1	0.9	0	14	32	33	0	
15-Apr-13	sub2311	2311	1	1	33	6	1	4	6	6	1	2	1	0.48953	1	0.9	0	14	32	33	1	
15-Apr-13	sub2311	2311	1	1	34	6	1	1	3	2	1	1	1	0.59955	1	0.9	0	11	30	31	0	
15-Apr-13	sub2311	2311	1	1	35	6	1	5	5	1	0	1	0	0.98828	1	0.9	1	15	37	51	0	
15-Apr-13	sub2311	2311	1	1	36	6	1	2	1	3	1	2	1	0.48237	1	0.9	0	12	30	31	1	
15-Apr-13	sub2311	2311	1	1	37	6	1	2	1	3	1	2	1	0.42028	1	0.9	0	12	30	31	1	
15-Apr-13	sub2311	2311	1	1	38	6	1	3	2	3	1	2	0	0.72402	0	0.9	0	13	42	43	0	
15-Apr-13	sub2311	2311	1	1	39	6	1	4	6	6	0	2	0	0.53516	1	0.9	0	14	34	49	0	
15-Apr-13	sub2311	2311	1	1	40	6	1	5	5	1	0	1	0	1.61361	1	0.9	1	15	37	51	0	
15-Apr-13	sub2311	2311	1	1	41	6	1	5	5	1	0	1	0	0.52012	1	0.9	0	15	37	48	0	
15-Apr-13	sub2311	2311	1	1	42	6	1	2	1	3	1	2	1	0.45876	1	0.9	0	12	30	31	1	
15-Apr-13	sub2311	2311	1	1	43	6	1	3	2	3	1	2	0	0.83021	0	0.9	0	13	42	43	0	
15-Apr-13	sub2311	2311	1	1	44	6	1	3	2	3	1	1	1	0.49086	1	0.9	0	13	32	33	1	
15-Apr-13	sub2311	2311	1	1	45	6	1	3	2	3	1	1	1	0.44197	1	0.9	0	13	32	33	1	
15-Apr-13	sub2311	2311	1	1	46	6	1	4	6	6	1	2	1	0.44828	1	0.9	0	14	32	33	1	
15-Apr-13	sub2311	2311	1	1	47	6	1	4	6	6	1	2	1	0.54694	1	0.9	0	14	32	33	0	
15-Apr-13	sub2311	2311	1	1	48	6	1	6	4	1	0	1	1	0.667	0	0.9	0	16	47	38	0	
15-Apr-13	sub2311	2311	1	1	49	6	1	2	1	3	1	2	1	0.56505	1	0.9	0	12	30	31	0	
15-Apr-13	sub2311	2311	1	1	50	6	1	2	1	3	1	2	1	0.51466	1	0.9	0	12	30	31	0	
15-Apr-13	sub2311	2311	1	1	51	6	1	3	2	3	1	2	0	1.47653	0	0.9	1	13	42	51	0	
15-Apr-13	sub2311	2311	1	1	52	6	1	4	6	6	1	2	1	0.58659	1	0.9	0	14	32	33	0	
15-Apr-13	sub2311	2311	1	1	53	6	1	5	5	1	0	2	1	0.747	0	0.9	0	15	47	38	0	
15-Apr-13	sub2311	2311	1	1	54	6	1	2	1	3	1	2	1	0.54264	1	0.9	0	12	30	31	0	
15-Apr-13	sub2311	2311	1	1	55	6	1	2	1	3	1	2	1	0.44751	1	0.9	0	12	30	31	1	
15-Apr-13	sub2311	2311	1	1	56	6	1	3	2	3	1	1	1	0.66458	1	0.9	0	13	32	33	0	
15-Apr-13	sub2311	2311	1	1	57	6	1	1	3	2	1	1	1	0.59752	1	0.9	0	11	30	31	0	
15-Apr-13	sub2311	2311	1	1	58	6	1	3	2	3	0	2	1	0.72291	0	0.9	0	13	44	39	0	
15-Apr-13	sub2311	2311	1	1	59	6	1	6	4	1	0	1	1	0.61554	0	0.9	0	16	47	38	0	
15-Apr-13	sub2311	2311	1	1	60	6	1	6	4	1	1	1	0	0.52582	0	0.9	0	16	45	46	0	
15-Apr-13	sub2311	2311	1	1	61	6	1	5	5	1	1	1	1	0.65371	1	0.9	0	15	35	36	0	
15-Apr-13	sub2311	2311	1	1	62	6	1	1	3	2	1	1	1	0.62024	1	0.9	0	11	30	31	0	
15-Apr-13	sub2311	2311	1	1	63	6	1	5	5	1	0	1	0	0.47575	1	0.9	0	15	37	48	1	
15-Apr-13	sub2311	2311	1	1	64	6	1	1	3	2	1	1	1	0.54911	1	0.9	0	11	30	31	0	
15-Apr-13	sub2311	2311	1	1	65	6	1	5	5	1	0	1	0	0.52955	1	0.9	0	15	37	48	0	
15-Apr-13	sub2311	2311	1	1	66	6	1	1	3	2	1	1	1	0.34451	1	0.9	0	11	30	31	1	
15-Apr-13	sub2311	2311	1	1	67	6	1	6	4	1	1	1	0	0.46098	0	0.9	0	16	45	46	1	
15-Apr-13	sub2311	2311	1	1	68	6	1	3	2	3	0	1	0	0.68308	1	0.9	0	13	34	49	0	
15-Apr-13	sub2311	2311	1	1	69	6	1	3	2	3	1	1	1	1.73694	1	0.9	1	13	32	51	0	
15-Apr-13	sub2311	2311	1	1	70	6	1	6	4	1	0	1	1	0.60664	0	0.9	0	16	47	38	0	
15-Apr-13	sub2311	2311	1	1	71	6	1	6	4	1	1	1	0	0.58921	0	0.9	0	16	45	46	0	
15-Apr-13	sub2311	2311	1	1	72	6	1	1	3	2	1	1	1	0.09117	1	0.9	0	11	30	31	1	
15-Apr-13	sub2311	2311	1	1	73	6	1	3	2	3	1	2	0	0.46289	0	0.9	0	13	42	43	1	
15-Apr-13	sub2311	2311	1	1	74	6	1	2	1	3	1	2	1	0.73814	1	0.9	0	12	30	31	0	
15-Apr-13	sub2311	2311	1	1	75	6	1	4	6	6	1	2	1	0.9875	1	0.9	1	14	32	51	0	
15-Apr-13	sub2311	2311	1	1	76	6	2	4	6	6	1	2	1	0.48866	1	0.9	0	24	62	63	1	
15-Apr-13	sub2311	2311	1	1	77	6	2	6	4	1	1	1	0	0.57358	0	0.9	0	26	85	86	0	
15-Apr-13	sub2311	2311	1	1	78	6	2	4	6	6	0	2	0	0.69759	1	0.9	0	24	64	89	0	
15-Apr-13	sub2311	2311	1	1	79	6	2	5	5	1	0	2	1	2.32161	0	0.9	1	25	87	51	0	
15-Apr-13	sub2311	2311	1	1	80	6	2	6	4	1	1	1	0	0.60278	0	0.9	0	26	85	86	0	
15-Apr-13	sub2311	2311	1	1	81	6	2	1	3	2	1	1	1	0.50248	1	0.9	0	21	60	61	0	
15-Apr-13	sub2311	2311	1	1	82	6	2	1	3	2	1	1	1	0.45089	1	0.9	0	21	60	61	1	
15-Apr-13	sub2311	2311	1	1	83	6	2	5	5	1	0	1	0	0.60684	1	0.9	0	25	67	88	0	
15-Apr-13	sub2311	2311	1	1	84	6	2	4	6	6	1	2	1	0.54648	1	0.9	0	24	62	63	0	
15-Apr-13	sub2311	2311	1	1	85	6	2	3	2	3	1	2	0	0.57001	0	0.9	0	23	82	83	0	
15-Apr-13	sub2311	2311	1	1	86	6	2	4	6	6	1	2	1	0.56473	1	0.9	0	24	62	63	0	
15-Apr-13	sub2311	2311	1	1	87	6	2	6	4	1	0	1	1	0.56202	0	0.9	0	26	87	68	0	
15-Apr-13	sub2311	2311	1	1	88	6	2	3	2	3	0	2	1	0.87325	0	0.9	0	23	84	69	0	
15-Apr-13	sub2311	2311	1	1	89	6	2	2	1	3	1	2	1	0.59365	1	0.9	0	22	60	61	0	
15-Apr-13	sub2311	2311	1	1	90	6	2	2	1	3	1	2	1	0.5611	1	0.9	0	22	60	61	0	
15-Apr-13	sub2311	2311	1	1	91	6	2	2	1	3	1	2	1	0.41934	1	0.9	0	22	60	61	1	
15-Apr-13	sub2311	2311	1	1	92	6	2	4	6	6	1	2	1	0.61174	1	0.9	0	24	62	63	0	
15-Apr-13	sub2311	2311	1	1	93	6	2	1	3	2	1	1	1	1.84322	1	0.9	1	21	60	51	0	
15-Apr-13	sub2311	2311	1	1	94	6	2	5	5	1	0	1	0	0.96707	1	0.9	1	25	67	51	0	
15-Apr-13	sub2311	2311	1	1	95	6	2	3	2	3	1	1	1	0.62737	1	0.9	0	23	62	63	0	
15-Apr-13	sub2311	2311	1	1	96	6	2	1	3	2	1	1	1	0.60235	1	0.9	0	21	60	61	0	
15-Apr-13	sub2311	2311	1	1	97	6	2	3	2	3	1	1	1	0.49451	1	0.9	0	23	62	63	1	
15-Apr-13	sub2311	2311	1	1	98	6	2	1	3	2	1	1	1	0.61932	1	0.9	0	21	60	61	0	
15-Apr-13	sub2311	2311	1	1	99	6	2	3	2	3	1	1	1	0.5283	1	0.9	0	23	62	63	0	
15-Apr-13	sub2311	2311	1	1	100	6	2	2	1	3	1	2	1	0.76307	1	0.9	0	22	60	61	0	
15-Apr-13	sub2311	2311	1	1	101	6	2	4	6	6	1	2	1	0.64804	1	0.9	0	24	62	63	0	
15-Apr-13	sub2311	2311	1	1	102	6	2	5	5	1	0	2	1	0.73021	0	0.9	0	25	87	68	0	
15-Apr-13	sub2311	2311	1	1	103	6	2	2	1	3	1	2	1	0.59649	1	0.9	0	22	60	61	0	
15-Apr-13	sub2311	2311	1	1	104	6	2	6	4	1	0	1	1	0.82089	0	0.9	0	26	87	68	0	
15-Apr-13	sub2311	2311	1	1	105	6	2	4	6	6	1	2	1	0.56692	1	0.9	0	24	62	63	0	
15-Apr-13	sub2311	2311	1	1	106	6	2	1	3	2	1	2	0	1.22778	0	0.9	1	21	80	51	0	
15-Apr-13	sub2311	2311	1	1	107	6	2	3	2	3	1	1	1	0.65041	1	0.9	0	23	62	63	0	
15-Apr-13	sub2311	2311	1	1	108	6	2	4	6	6	0	2	0	0.51798	1	0.9	0	24	64	89	0	
15-Apr-13	sub2311	2311	1	1	109	6	2	1	3	2	1	1	1	0.58705	1	0.9	0	21	60	61	0	
15-Apr-13	sub2311	2311	1	1	110	6	2	4	6	6	0	2	0	0.60952	1	0.9	0	24	64	89	0	
15-Apr-13	sub2311	2311	1	1	111	6	2	6	4	1	0	1	1	1.25252	0	0.9	1	26	87	51	0	
15-Apr-13	sub2311	2311	1	1	112	6	2	1	3	2	1	1	1	0.56894	1	0.9	0	21	60	61	0	
15-Apr-13	sub2311	2311	1	1	113	6	2	2	1	3	1	2	1	0.53555	1	0.9	0	22	60	61	0	
15-Apr-13	sub2311	2311	1	1	114	6	2	1	3	2	1	1	1	0.6051	1	0.9	0	21	60	61	0	
15-Apr-13	sub2311	2311	1	1	115	6	2	2	1	3	1	2	1	0.55639	1	0.9	0	22	60	61	0	
15-Apr-13	sub2311	2311	1	1	116	6	2	3	2	3	1	1	1	0.82167	1	0.9	0	23	62	63	0	
15-Apr-13	sub2311	2311	1	1	117	6	2	4	6	6	1	2	1	0.58029	1	0.9	0	24	62	63	0	
15-Apr-13	sub2311	2311	1	1	118	6	2	6	4	1	1	1	0	0.55155	0	0.9	0	26	85	86	0	
15-Apr-13	sub2311	2311	1	1	119	6	2	6	4	1	1	2	1	0.49096	1	0.9	0	26	65	66	1	
15-Apr-13	sub2311	2311	1	1	120	6	2	5	5	1	0	2	1	0.81972	0	0.9	0	25	87	68	0	
15-Apr-13	sub2311	2311	1	1	121	6	2	5	5	1	0	2	1	0.48541	0	0.9	0	25	87	68	1	
15-Apr-13	sub2311	2311	1	1	122	6	2	2	1	3	1	2	1	1.73139	1	0.9	1	22	60	51	0	
15-Apr-13	sub2311	2311	1	1	123	6	2	1	3	2	1	1	1	0.65518	1	0.9	0	21	60	61	0	
15-Apr-13	sub2311	2311	1	1	124	6	2	5	5	1	0	2	1	0.65483	0	0.9	0	25	87	68	0	
15-Apr-13	sub2311	2311	1	1	125	6	2	5	5	1	0	2	1	0.50117	0	0.9	0	25	87	68	0	
15-Apr-13	sub2311	2311	1	1	126	6	2	3	2	3	1	2	0	0.518	0	0.9	0	23	82	83	0	
15-Apr-13	sub2311	2311	1	1	127	6	2	6	4	1	0	1	1	0.60714	0	0.9	0	26	87	68	0	
15-Apr-13	sub2311	2311	1	1	128	6	2	5	5	1	0	1	0	0.45446	1	0.9	0	25	67	88	1	
15-Apr-13	sub2311	2311	1	1	129	6	2	1	3	2	1	1	1	0.49446	1	0.9	0	21	60	61	1	
15-Apr-13	sub2311	2311	1	1	130	6	2	6	4	1	1	1	0	0.60535	0	0.9	0	26	85	86	0	
15-Apr-13	sub2311	2311	1	1	131	6	2	2	1	3	1	2	1	3.36482	1	0.9	1	22	60	51	0	
15-Apr-13	sub2311	2311	1	1	132	6	2	5	5	1	0	2	1	0.65781	0	0.9	0	25	87	68	0	
15-Apr-13	sub2311	2311	1	1	133	6	2	2	1	3	1	2	1	0.45358	1	0.9	0	22	60	61	1	
15-Apr-13	sub2311	2311	1	1	134	6	2	3	2	3	0	1	0	0.6539	1	0.9	0	23	64	89	0	
15-Apr-13	sub2311	2311	1	1	135	6	2	3	2	3	1	1	1	0.46271	1	0.9	0	23	62	63	1	
15-Apr-13	sub2311	2311	1	1	136	6	2	5	5	1	0	2	1	0.80972	0	0.9	0	25	87	68	0	
15-Apr-13	sub2311	2311	1	1	137	6	2	4	6	6	1	2	1	0.56386	1	0.9	0	24	62	63	0	
15-Apr-13	sub2311	2311	1	1	138	6	2	2	1	3	1	2	1	0.62785	1	0.9	0	22	60	61	0	
15-Apr-13	sub2311	2311	1	1	139	6	2	2	1	3	1	2	1	0.70358	1	0.9	0	22	60	61	0	
15-Apr-13	sub2311	2311	1	1	140	6	2	5	5	1	0	2	1	0.63481	0	0.9	0	25	87	68	0	
15-Apr-13	sub2311	2311	1	1	141	6	2	4	6	6	1	2	1	0.51741	1	0.9	0	24	62	63	0	
15-Apr-13	sub2311	2311	1	1	142	6	2	5	5	1	0	2	1	2.4502	0	0.9	1	25	87	51	0	
15-Apr-13	sub2311	2311	1	1	143	6	2	1	3	2	1	1	1	0.56052	1	0.9	0	21	60	61	0	
15-Apr-13	sub2311	2311	1	1	144	6	2	3	2	3	1	1	1	0.57499	1	0.9	0	23	62	63	0	
15-Apr-13	sub2311	2311	1	1	145	6	2	6	4	1	0	1	1	0.45995	0	0.9	0	26	87	68	1	
15-Apr-13	sub2311	2311	1	1	146	6	2	1	3	2	1	1	1	0.42159	1	0.9	0	21	60	61	1	
15-Apr-13	sub2311	2311	1	1	147	6	2	3	2	3	1	1	1	0.50554	1	0.9	0	23	62	63	0	
15-Apr-13	sub2311	2311	1	1	148	6	2	6	4	1	1	1	0	0.51592	0	0.9	0	26	85	86	0	
15-Apr-13	sub2311	2311	1	1	149	6	2	6	4	1	0	1	1	0.43591	0	0.9	0	26	87	68	1	
15-Apr-13	sub2311	2311	1	1	150	6	2	4	6	6	1	2	1	0.56018	1	0.9	0	24	62	63	0	
