Date 	 Name 	 ID 	 Gender 	 Appearance 	 Trial 	 Block 	 Bin 	 Condition 	 Category 	 Number 	 Valid 	 Keypress 	 Correct 	 RT 	 Realcorrect 	 Deadline 	 Timeout 	 Stimtrigger 	 Resptrigger 	 Fedtrigger 	 WithinTime 	 
15-Apr-2013	sub2312	2312	  2	  0	  1	  1	  1	  5	  6	  1	  1	  1	  1	0.91223	  1	0.60000	  1	 15	 35	 51	  0	
15-Apr-2013	sub2312	2312	  2	  0	  2	  1	  1	  4	  4	  3	  1	  2	  1	0.61625	  1	0.90000	  0	 14	 32	 33	  0	
15-Apr-2013	sub2312	2312	  2	  0	  3	  1	  1	  5	  6	  1	  1	  1	  1	0.70964	  1	0.90000	  0	 15	 35	 36	  0	
15-Apr-2013	sub2312	2312	  2	  0	  4	  1	  1	  2	  2	  6	  1	  1	  0	0.62786	  0	0.90000	  0	 12	 40	 41	  0	
15-Apr-2013	sub2312	2312	  2	  0	  5	  1	  1	  6	  5	  1	  0	  1	  1	0.61430	  0	0.90000	  0	 16	 47	 38	  0	
15-Apr-2013	sub2312	2312	  2	  0	  6	  1	  1	  1	  3	  6	  1	  1	  1	0.60529	  1	0.90000	  0	 11	 30	 31	  0	
15-Apr-2013	sub2312	2312	  2	  0	  7	  1	  1	  3	  1	  4	  1	  2	  0	0.60504	  0	0.90000	  0	 13	 42	 43	  0	
15-Apr-2013	sub2312	2312	  2	  0	  8	  1	  1	  6	  5	  1	  1	  1	  0	0.52142	  0	0.90000	  0	 16	 45	 46	  0	
15-Apr-2013	sub2312	2312	  2	  0	  9	  1	  1	  2	  2	  6	  1	  1	  0	0.61959	  0	0.90000	  0	 12	 40	 41	  0	
15-Apr-2013	sub2312	2312	  2	  0	 10	  1	  1	  1	  3	  6	  1	  1	  1	0.51165	  1	0.90000	  0	 11	 30	 31	  0	
15-Apr-2013	sub2312	2312	  2	  0	 11	  1	  1	  3	  1	  4	  1	  2	  0	0.59281	  0	0.90000	  0	 13	 42	 43	  0	
15-Apr-2013	sub2312	2312	  2	  0	 12	  1	  1	  2	  2	  6	  1	  1	  0	0.52871	  0	0.90000	  0	 12	 40	 41	  0	
15-Apr-2013	sub2312	2312	  2	  0	 13	  1	  1	  3	  1	  4	  1	  2	  0	0.88146	  0	0.90000	  0	 13	 42	 43	  0	
15-Apr-2013	sub2312	2312	  2	  0	 14	  1	  1	  5	  6	  1	  0	  1	  0	0.55323	  1	0.90000	  0	 15	 37	 48	  0	
15-Apr-2013	sub2312	2312	  2	  0	 15	  1	  1	  5	  6	  1	  1	  1	  1	0.57772	  1	0.90000	  0	 15	 35	 36	  0	
15-Apr-2013	sub2312	2312	  2	  0	 16	  1	  1	  1	  3	  6	  1	  1	  1	0.57499	  1	0.80000	  0	 11	 30	 31	  0	
15-Apr-2013	sub2312	2312	  2	  0	 17	  1	  1	  2	  2	  6	  1	  2	  1	0.68098	  1	0.80000	  0	 12	 30	 31	  0	
15-Apr-2013	sub2312	2312	  2	  0	 18	  1	  1	  4	  4	  3	  0	  2	  0	0.50786	  1	0.70000	  0	 14	 34	 49	  0	
15-Apr-2013	sub2312	2312	  2	  0	 19	  1	  1	  4	  4	  3	  1	  2	  1	0.54525	  1	0.70000	  0	 14	 32	 33	  0	
15-Apr-2013	sub2312	2312	  2	  0	 20	  1	  1	  1	  3	  6	  1	  1	  1	0.49373	  1	0.70000	  0	 11	 30	 31	  1	
15-Apr-2013	sub2312	2312	  2	  0	 21	  1	  1	  4	  4	  3	  1	  2	  1	15.84169	  1	0.60000	  1	 14	 32	 51	  0	
15-Apr-2013	sub2312	2312	  2	  0	 22	  1	  1	  4	  4	  3	  1	  2	  1	0.46344	  1	0.90000	  0	 14	 32	 33	  1	
15-Apr-2013	sub2312	2312	  2	  0	 23	  1	  1	  3	  1	  4	  1	  2	  0	0.50301	  0	0.90000	  0	 13	 42	 43	  0	
15-Apr-2013	sub2312	2312	  2	  0	 24	  1	  1	  5	  6	  1	  1	  1	  1	0.62010	  1	0.90000	  0	 15	 35	 36	  0	
15-Apr-2013	sub2312	2312	  2	  0	 25	  1	  1	  4	  4	  3	  1	  2	  1	0.68714	  1	0.90000	  0	 14	 32	 33	  0	
15-Apr-2013	sub2312	2312	  2	  0	 26	  1	  1	  5	  6	  1	  0	  1	  0	0.50112	  1	0.90000	  0	 15	 37	 48	  0	
15-Apr-2013	sub2312	2312	  2	  0	 27	  1	  1	  3	  1	  4	  0	  2	  1	0.49392	  0	0.90000	  0	 13	 44	 39	  1	
15-Apr-2013	sub2312	2312	  2	  0	 28	  1	  1	  4	  4	  3	  1	  2	  1	0.53828	  1	0.90000	  0	 14	 32	 33	  0	
15-Apr-2013	sub2312	2312	  2	  0	 29	  1	  1	  3	  1	  4	  1	  2	  0	0.53723	  0	0.90000	  0	 13	 42	 43	  0	
15-Apr-2013	sub2312	2312	  2	  0	 30	  1	  1	  6	  5	  1	  0	  1	  1	0.44613	  0	0.80000	  0	 16	 47	 38	  1	
15-Apr-2013	sub2312	2312	  2	  0	 31	  1	  1	  4	  4	  3	  1	  2	  1	0.38237	  1	0.80000	  0	 14	 32	 33	  1	
15-Apr-2013	sub2312	2312	  2	  0	 32	  1	  1	  1	  3	  6	  1	  1	  1	0.50717	  1	0.80000	  0	 11	 30	 31	  0	
15-Apr-2013	sub2312	2312	  2	  0	 33	  1	  1	  1	  3	  6	  1	  1	  1	0.47651	  1	0.80000	  0	 11	 30	 31	  1	
15-Apr-2013	sub2312	2312	  2	  0	 34	  1	  1	  2	  2	  6	  1	  1	  0	0.54769	  0	0.80000	  0	 12	 40	 41	  0	
15-Apr-2013	sub2312	2312	  2	  0	 35	  1	  1	  6	  5	  1	  1	  1	  0	0.68028	  0	0.70000	  0	 16	 45	 46	  0	
15-Apr-2013	sub2312	2312	  2	  0	 36	  1	  1	  4	  4	  3	  1	  2	  1	0.40774	  1	0.70000	  0	 14	 32	 33	  1	
15-Apr-2013	sub2312	2312	  2	  0	 37	  1	  1	  3	  1	  4	  1	  2	  0	0.53677	  0	0.70000	  0	 13	 42	 43	  0	
15-Apr-2013	sub2312	2312	  2	  0	 38	  1	  1	  5	  6	  1	  1	  1	  1	0.53809	  1	0.70000	  0	 15	 35	 36	  0	
15-Apr-2013	sub2312	2312	  2	  0	 39	  1	  1	  4	  4	  3	  0	  2	  0	0.51883	  1	0.70000	  0	 14	 34	 49	  0	
15-Apr-2013	sub2312	2312	  2	  0	 40	  1	  1	  3	  1	  4	  1	  2	  0	0.51680	  0	0.70000	  0	 13	 42	 43	  0	
15-Apr-2013	sub2312	2312	  2	  0	 41	  1	  1	  1	  3	  6	  1	  1	  1	0.56439	  1	0.60000	  0	 11	 30	 31	  0	
15-Apr-2013	sub2312	2312	  2	  0	 42	  1	  1	  3	  1	  4	  0	  1	  0	0.68881	  1	0.60000	  1	 13	 34	 51	  0	
15-Apr-2013	sub2312	2312	  2	  0	 43	  1	  1	  2	  2	  6	  1	  1	  0	0.55712	  0	0.90000	  0	 12	 40	 41	  0	
15-Apr-2013	sub2312	2312	  2	  0	 44	  1	  1	  1	  3	  6	  1	  1	  1	0.47426	  1	0.80000	  0	 11	 30	 31	  1	
15-Apr-2013	sub2312	2312	  2	  0	 45	  1	  1	  1	  3	  6	  1	  1	  1	0.44017	  1	0.80000	  0	 11	 30	 31	  1	
15-Apr-2013	sub2312	2312	  2	  0	 46	  1	  1	  6	  5	  1	  0	  1	  1	0.49096	  0	0.80000	  0	 16	 47	 38	  1	
15-Apr-2013	sub2312	2312	  2	  0	 47	  1	  1	  5	  6	  1	  0	  1	  0	0.58524	  1	0.80000	  0	 15	 37	 48	  0	
15-Apr-2013	sub2312	2312	  2	  0	 48	  1	  1	  4	  4	  3	  1	  2	  1	0.53878	  1	0.80000	  0	 14	 32	 33	  0	
15-Apr-2013	sub2312	2312	  2	  0	 49	  1	  1	  3	  1	  4	  0	  2	  1	0.44902	  0	0.80000	  0	 13	 44	 39	  1	
15-Apr-2013	sub2312	2312	  2	  0	 50	  1	  1	  2	  2	  6	  1	  1	  0	0.53166	  0	0.80000	  0	 12	 40	 41	  0	
15-Apr-2013	sub2312	2312	  2	  0	 51	  1	  1	  2	  2	  6	  1	  1	  0	0.72514	  0	0.70000	  1	 12	 40	 51	  0	
15-Apr-2013	sub2312	2312	  2	  0	 52	  1	  1	  3	  1	  4	  1	  2	  0	0.45784	  0	0.90000	  0	 13	 42	 43	  1	
15-Apr-2013	sub2312	2312	  2	  0	 53	  1	  1	  6	  5	  1	  1	  1	  0	0.37205	  0	0.90000	  0	 16	 45	 46	  1	
15-Apr-2013	sub2312	2312	  2	  0	 54	  1	  1	  2	  2	  6	  1	  1	  0	0.43865	  0	0.90000	  0	 12	 40	 41	  1	
15-Apr-2013	sub2312	2312	  2	  0	 55	  1	  1	  6	  5	  1	  1	  1	  0	0.41942	  0	0.90000	  0	 16	 45	 46	  1	
15-Apr-2013	sub2312	2312	  2	  0	 56	  1	  1	  6	  5	  1	  1	  2	  1	0.67145	  1	0.90000	  0	 16	 35	 36	  0	
15-Apr-2013	sub2312	2312	  2	  0	 57	  1	  1	  6	  5	  1	  0	  2	  0	0.50558	  1	0.90000	  0	 16	 37	 48	  0	
15-Apr-2013	sub2312	2312	  2	  0	 58	  1	  1	  6	  5	  1	  0	  1	  1	0.43460	  0	0.90000	  0	 16	 47	 38	  1	
15-Apr-2013	sub2312	2312	  2	  0	 59	  1	  1	  5	  6	  1	  0	  2	  1	1.58440	  0	0.80000	  1	 15	 47	 51	  0	
15-Apr-2013	sub2312	2312	  2	  0	 60	  1	  1	  1	  3	  6	  1	  1	  1	0.38708	  1	0.90000	  0	 11	 30	 31	  1	
15-Apr-2013	sub2312	2312	  2	  0	 61	  1	  1	  3	  1	  4	  1	  2	  0	0.37855	  0	0.90000	  0	 13	 42	 43	  1	
15-Apr-2013	sub2312	2312	  2	  0	 62	  1	  1	  2	  2	  6	  1	  1	  0	0.56238	  0	0.90000	  0	 12	 40	 41	  0	
15-Apr-2013	sub2312	2312	  2	  0	 63	  1	  1	  4	  4	  3	  1	  2	  1	0.51715	  1	0.90000	  0	 14	 32	 33	  0	
15-Apr-2013	sub2312	2312	  2	  0	 64	  1	  1	  5	  6	  1	  0	  1	  0	0.61170	  1	0.90000	  0	 15	 37	 48	  0	
15-Apr-2013	sub2312	2312	  2	  0	 65	  1	  1	  5	  6	  1	  1	  1	  1	0.51484	  1	0.90000	  0	 15	 35	 36	  0	
15-Apr-2013	sub2312	2312	  2	  0	 66	  1	  1	  3	  1	  4	  1	  2	  0	0.49785	  0	0.90000	  0	 13	 42	 43	  1	
15-Apr-2013	sub2312	2312	  2	  0	 67	  1	  1	  1	  3	  6	  1	  1	  1	0.56162	  1	0.90000	  0	 11	 30	 31	  0	
15-Apr-2013	sub2312	2312	  2	  0	 68	  1	  1	  1	  3	  6	  1	  1	  1	0.52155	  1	0.90000	  0	 11	 30	 31	  0	
15-Apr-2013	sub2312	2312	  2	  0	 69	  1	  1	  6	  5	  1	  0	  1	  1	0.71912	  0	0.90000	  0	 16	 47	 38	  0	
15-Apr-2013	sub2312	2312	  2	  0	 70	  1	  1	  2	  2	  6	  1	  2	  1	0.59165	  1	0.90000	  0	 12	 30	 31	  0	
15-Apr-2013	sub2312	2312	  2	  0	 71	  1	  1	  5	  6	  1	  0	  1	  0	0.64181	  1	0.90000	  0	 15	 37	 48	  0	
15-Apr-2013	sub2312	2312	  2	  0	 72	  1	  1	  6	  5	  1	  1	  2	  1	0.53964	  1	0.90000	  0	 16	 35	 36	  0	
15-Apr-2013	sub2312	2312	  2	  0	 73	  1	  1	  6	  5	  1	  1	  2	  1	0.49322	  1	0.80000	  0	 16	 35	 36	  1	
15-Apr-2013	sub2312	2312	  2	  0	 74	  1	  1	  2	  2	  6	  1	  2	  1	0.71928	  1	0.80000	  0	 12	 30	 31	  0	
15-Apr-2013	sub2312	2312	  2	  0	 75	  1	  1	  2	  2	  6	  1	  2	  1	0.45599	  1	0.80000	  0	 12	 30	 31	  1	
15-Apr-2013	sub2312	2312	  2	  0	  1	  2	  1	  6	  3	  3	  0	  1	  1	0.59981	  0	0.60000	  0	 16	 47	 38	  0	
15-Apr-2013	sub2312	2312	  2	  0	  2	  2	  1	  2	  4	  6	  1	  1	  0	0.65800	  0	0.30000	  1	 12	 40	 51	  0	
15-Apr-2013	sub2312	2312	  2	  0	  3	  2	  1	  1	  2	  3	  1	  1	  1	0.38957	  1	0.90000	  0	 11	 30	 31	  1	
15-Apr-2013	sub2312	2312	  2	  0	  4	  2	  1	  3	  5	  3	  1	  2	  0	0.65490	  0	0.90000	  0	 13	 42	 43	  0	
15-Apr-2013	sub2312	2312	  2	  0	  5	  2	  1	  4	  6	  3	  1	  1	  0	0.53320	  0	0.90000	  0	 14	 42	 43	  0	
15-Apr-2013	sub2312	2312	  2	  0	  6	  2	  1	  2	  4	  6	  1	  1	  0	0.57588	  0	0.90000	  0	 12	 40	 41	  0	
15-Apr-2013	sub2312	2312	  2	  0	  7	  2	  1	  6	  3	  3	  0	  1	  1	0.47362	  0	0.90000	  0	 16	 47	 38	  1	
15-Apr-2013	sub2312	2312	  2	  0	  8	  2	  1	  5	  1	  6	  0	  1	  0	0.48059	  1	0.90000	  0	 15	 37	 48	  1	
15-Apr-2013	sub2312	2312	  2	  0	  9	  2	  1	  5	  1	  6	  1	  2	  0	0.55606	  0	0.90000	  0	 15	 45	 46	  0	
15-Apr-2013	sub2312	2312	  2	  0	 10	  2	  1	  2	  4	  6	  1	  1	  0	0.53186	  0	0.90000	  0	 12	 40	 41	  0	
15-Apr-2013	sub2312	2312	  2	  0	 11	  2	  1	  5	  1	  6	  0	  1	  0	0.47495	  1	0.90000	  0	 15	 37	 48	  1	
15-Apr-2013	sub2312	2312	  2	  0	 12	  2	  1	  3	  5	  3	  0	  1	  0	0.50237	  1	0.90000	  0	 13	 34	 49	  0	
15-Apr-2013	sub2312	2312	  2	  0	 13	  2	  1	  2	  4	  6	  1	  2	  1	0.44534	  1	0.90000	  0	 12	 30	 31	  1	
15-Apr-2013	sub2312	2312	  2	  0	 14	  2	  1	  4	  6	  3	  1	  1	  0	0.47633	  0	0.90000	  0	 14	 42	 43	  1	
15-Apr-2013	sub2312	2312	  2	  0	 15	  2	  1	  3	  5	  3	  0	  2	  1	0.58800	  0	0.90000	  0	 13	 44	 39	  0	
15-Apr-2013	sub2312	2312	  2	  0	 16	  2	  1	  2	  4	  6	  1	  2	  1	0.69909	  1	0.80000	  0	 12	 30	 31	  0	
15-Apr-2013	sub2312	2312	  2	  0	 17	  2	  1	  3	  5	  3	  1	  2	  0	0.47422	  0	0.80000	  0	 13	 42	 43	  1	
15-Apr-2013	sub2312	2312	  2	  0	 18	  2	  1	  3	  5	  3	  1	  2	  0	0.42789	  0	0.70000	  0	 13	 42	 43	  1	
15-Apr-2013	sub2312	2312	  2	  0	 19	  2	  1	  2	  4	  6	  1	  1	  0	0.46081	  0	0.70000	  0	 12	 40	 41	  1	
15-Apr-2013	sub2312	2312	  2	  0	 20	  2	  1	  4	  6	  3	  1	  2	  1	1.52976	  1	0.70000	  1	 14	 32	 51	  0	
15-Apr-2013	sub2312	2312	  2	  0	 21	  2	  1	  6	  3	  3	  1	  2	  1	0.35056	  1	0.90000	  0	 16	 35	 36	  1	
15-Apr-2013	sub2312	2312	  2	  0	 22	  2	  1	  1	  2	  3	  1	  2	  0	0.42835	  0	0.90000	  0	 11	 40	 41	  1	
15-Apr-2013	sub2312	2312	  2	  0	 23	  2	  1	  5	  1	  6	  1	  2	  0	0.58836	  0	0.90000	  0	 15	 45	 46	  0	
15-Apr-2013	sub2312	2312	  2	  0	 24	  2	  1	  1	  2	  3	  1	  1	  1	0.54580	  1	0.90000	  0	 11	 30	 31	  0	
15-Apr-2013	sub2312	2312	  2	  0	 25	  2	  1	  2	  4	  6	  1	  1	  0	0.55706	  0	0.90000	  0	 12	 40	 41	  0	
15-Apr-2013	sub2312	2312	  2	  0	 26	  2	  1	  4	  6	  3	  1	  2	  1	0.29444	  1	0.90000	  0	 14	 32	 33	  1	
15-Apr-2013	sub2312	2312	  2	  0	 27	  2	  1	  2	  4	  6	  1	  2	  1	0.37095	  1	0.90000	  0	 12	 30	 31	  1	
15-Apr-2013	sub2312	2312	  2	  0	 28	  2	  1	  6	  3	  3	  0	  2	  0	0.47776	  1	0.90000	  0	 16	 37	 48	  1	
15-Apr-2013	sub2312	2312	  2	  0	 29	  2	  1	  4	  6	  3	  0	  2	  0	0.42138	  1	0.90000	  0	 14	 34	 49	  1	
15-Apr-2013	sub2312	2312	  2	  0	 30	  2	  1	  6	  3	  3	  1	  1	  0	0.41285	  0	0.80000	  0	 16	 45	 46	  1	
15-Apr-2013	sub2312	2312	  2	  0	 31	  2	  1	  6	  3	  3	  0	  2	  0	0.32536	  1	0.80000	  0	 16	 37	 48	  1	
15-Apr-2013	sub2312	2312	  2	  0	 32	  2	  1	  1	  2	  3	  1	  1	  1	0.34532	  1	0.80000	  0	 11	 30	 31	  1	
15-Apr-2013	sub2312	2312	  2	  0	 33	  2	  1	  5	  1	  6	  1	  1	  1	0.41006	  1	0.80000	  0	 15	 35	 36	  1	
15-Apr-2013	sub2312	2312	  2	  0	 34	  2	  1	  6	  3	  3	  0	  1	  1	0.47684	  0	0.80000	  0	 16	 47	 38	  1	
15-Apr-2013	sub2312	2312	  2	  0	 35	  2	  1	  4	  6	  3	  1	  1	  0	0.51045	  0	0.70000	  0	 14	 42	 43	  0	
15-Apr-2013	sub2312	2312	  2	  0	 36	  2	  1	  6	  3	  3	  0	  1	  1	0.43468	  0	0.70000	  0	 16	 47	 38	  1	
15-Apr-2013	sub2312	2312	  2	  0	 37	  2	  1	  4	  6	  3	  0	  1	  1	0.56431	  0	0.70000	  0	 14	 44	 39	  0	
15-Apr-2013	sub2312	2312	  2	  0	 38	  2	  1	  3	  5	  3	  1	  1	  1	0.48560	  1	0.70000	  0	 13	 32	 33	  1	
15-Apr-2013	sub2312	2312	  2	  0	 39	  2	  1	  2	  4	  6	  1	  1	  0	0.45027	  0	0.70000	  0	 12	 40	 41	  1	
15-Apr-2013	sub2312	2312	  2	  0	 40	  2	  1	  5	  1	  6	  0	  2	  1	0.37207	  0	0.70000	  0	 15	 47	 38	  1	
15-Apr-2013	sub2312	2312	  2	  0	 41	  2	  1	  2	  4	  6	  1	  2	  1	0.50340	  1	0.60000	  0	 12	 30	 31	  0	
15-Apr-2013	sub2312	2312	  2	  0	 42	  2	  1	  1	  2	  3	  1	  2	  0	0.48359	  0	0.60000	  0	 11	 40	 41	  1	
15-Apr-2013	sub2312	2312	  2	  0	 43	  2	  1	  3	  5	  3	  1	  2	  0	0.55320	  0	0.60000	  0	 13	 42	 43	  0	
15-Apr-2013	sub2312	2312	  2	  0	 44	  2	  1	  4	  6	  3	  1	  1	  0	0.46704	  0	0.60000	  0	 14	 42	 43	  1	
15-Apr-2013	sub2312	2312	  2	  0	 45	  2	  1	  1	  2	  3	  1	  1	  1	0.49176	  1	0.60000	  0	 11	 30	 31	  1	
15-Apr-2013	sub2312	2312	  2	  0	 46	  2	  1	  4	  6	  3	  1	  2	  1	0.57553	  1	0.60000	  0	 14	 32	 33	  0	
15-Apr-2013	sub2312	2312	  2	  0	 47	  2	  1	  5	  1	  6	  1	  2	  0	0.41868	  0	0.60000	  0	 15	 45	 46	  1	
15-Apr-2013	sub2312	2312	  2	  0	 48	  2	  1	  5	  1	  6	  0	  1	  0	0.42186	  1	0.60000	  0	 15	 37	 48	  1	
15-Apr-2013	sub2312	2312	  2	  0	 49	  2	  1	  6	  3	  3	  0	  2	  0	0.49315	  1	0.60000	  0	 16	 37	 48	  1	
15-Apr-2013	sub2312	2312	  2	  0	 50	  2	  1	  6	  3	  3	  1	  2	  1	1.88000	  1	0.60000	  1	 16	 35	 51	  0	
15-Apr-2013	sub2312	2312	  2	  0	 51	  2	  1	  4	  6	  3	  1	  1	  0	0.39446	  0	0.70000	  0	 14	 42	 43	  1	
15-Apr-2013	sub2312	2312	  2	  0	 52	  2	  1	  3	  5	  3	  1	  2	  0	0.40179	  0	0.70000	  0	 13	 42	 43	  1	
15-Apr-2013	sub2312	2312	  2	  0	 53	  2	  1	  5	  1	  6	  1	  1	  1	0.52424	  1	0.70000	  0	 15	 35	 36	  0	
15-Apr-2013	sub2312	2312	  2	  0	 54	  2	  1	  1	  2	  3	  1	  1	  1	0.44643	  1	0.70000	  0	 11	 30	 31	  1	
15-Apr-2013	sub2312	2312	  2	  0	 55	  2	  1	  3	  5	  3	  0	  1	  0	0.46699	  1	0.70000	  0	 13	 34	 49	  1	
15-Apr-2013	sub2312	2312	  2	  0	 56	  2	  1	  5	  1	  6	  1	  2	  0	0.37321	  0	0.70000	  0	 15	 45	 46	  1	
15-Apr-2013	sub2312	2312	  2	  0	 57	  2	  1	  3	  5	  3	  1	  1	  1	0.27507	  1	0.70000	  0	 13	 32	 33	  1	
15-Apr-2013	sub2312	2312	  2	  0	 58	  2	  1	  4	  6	  3	  1	  1	  0	0.52217	  0	0.70000	  0	 14	 42	 43	  0	
15-Apr-2013	sub2312	2312	  2	  0	 59	  2	  1	  5	  1	  6	  1	  1	  1	0.61504	  1	0.70000	  0	 15	 35	 36	  0	
15-Apr-2013	sub2312	2312	  2	  0	 60	  2	  1	  1	  2	  3	  1	  2	  0	0.55383	  0	0.70000	  0	 11	 40	 41	  0	
15-Apr-2013	sub2312	2312	  2	  0	 61	  2	  1	  1	  2	  3	  1	  1	  1	0.40075	  1	0.60000	  0	 11	 30	 31	  1	
15-Apr-2013	sub2312	2312	  2	  0	 62	  2	  1	  1	  2	  3	  1	  1	  1	0.38118	  1	0.60000	  0	 11	 30	 31	  1	
15-Apr-2013	sub2312	2312	  2	  0	 63	  2	  1	  4	  6	  3	  1	  1	  0	0.44742	  0	0.60000	  0	 14	 42	 43	  1	
15-Apr-2013	sub2312	2312	  2	  0	 64	  2	  1	  2	  4	  6	  1	  2	  1	0.55524	  1	0.60000	  0	 12	 30	 31	  0	
15-Apr-2013	sub2312	2312	  2	  0	 65	  2	  1	  1	  2	  3	  1	  2	  0	0.58760	  0	0.60000	  0	 11	 40	 41	  0	
15-Apr-2013	sub2312	2312	  2	  0	 66	  2	  1	  3	  5	  3	  1	  1	  1	0.60353	  1	0.60000	  1	 13	 32	 51	  0	
15-Apr-2013	sub2312	2312	  2	  0	 67	  2	  1	  2	  4	  6	  1	  1	  0	0.54861	  0	0.80000	  0	 12	 40	 41	  0	
15-Apr-2013	sub2312	2312	  2	  0	 68	  2	  1	  2	  4	  6	  1	  1	  0	0.56260	  0	0.70000	  0	 12	 40	 41	  0	
15-Apr-2013	sub2312	2312	  2	  0	 69	  2	  1	  1	  2	  3	  1	  2	  0	0.52478	  0	0.70000	  0	 11	 40	 41	  0	
15-Apr-2013	sub2312	2312	  2	  0	 70	  2	  1	  6	  3	  3	  0	  1	  1	0.57162	  0	0.70000	  0	 16	 47	 38	  0	
15-Apr-2013	sub2312	2312	  2	  0	 71	  2	  1	  3	  5	  3	  1	  1	  1	0.46090	  1	0.70000	  0	 13	 32	 33	  1	
15-Apr-2013	sub2312	2312	  2	  0	 72	  2	  1	  5	  1	  6	  0	  2	  1	0.47404	  0	0.70000	  0	 15	 47	 38	  1	
15-Apr-2013	sub2312	2312	  2	  0	 73	  2	  1	  3	  5	  3	  1	  2	  0	2.27374	  0	0.70000	  1	 13	 42	 51	  0	
15-Apr-2013	sub2312	2312	  2	  0	 74	  2	  1	  6	  3	  3	  1	  1	  0	0.51435	  0	0.80000	  0	 16	 45	 46	  0	
15-Apr-2013	sub2312	2312	  2	  0	 75	  2	  1	  6	  3	  3	  1	  2	  1	0.56112	  1	0.80000	  0	 16	 35	 36	  0	
15-Apr-2013	sub2312	2312	  2	  0	 76	  2	  2	  3	  5	  3	  1	  1	  1	0.89140	  1	0.80000	  1	 23	 62	 51	  0	
15-Apr-2013	sub2312	2312	  2	  0	 77	  2	  2	  3	  5	  3	  1	  1	  1	0.47188	  1	0.90000	  0	 23	 62	 63	  1	
15-Apr-2013	sub2312	2312	  2	  0	 78	  2	  2	  4	  6	  3	  1	  2	  1	0.59090	  1	0.90000	  0	 24	 62	 63	  0	
15-Apr-2013	sub2312	2312	  2	  0	 79	  2	  2	  3	  5	  3	  1	  2	  0	0.48937	  0	0.90000	  0	 23	 82	 83	  1	
15-Apr-2013	sub2312	2312	  2	  0	 80	  2	  2	  5	  1	  6	  0	  2	  1	0.53377	  0	0.90000	  0	 25	 87	 68	  0	
15-Apr-2013	sub2312	2312	  2	  0	 81	  2	  2	  4	  6	  3	  1	  1	  0	0.52097	  0	0.90000	  0	 24	 82	 83	  0	
15-Apr-2013	sub2312	2312	  2	  0	 82	  2	  2	  1	  2	  3	  1	  2	  0	0.33075	  0	0.90000	  0	 21	 80	 81	  1	
15-Apr-2013	sub2312	2312	  2	  0	 83	  2	  2	  6	  3	  3	  0	  2	  0	0.47549	  1	0.90000	  0	 26	 67	 88	  1	
15-Apr-2013	sub2312	2312	  2	  0	 84	  2	  2	  6	  3	  3	  0	  1	  1	0.50263	  0	0.90000	  0	 26	 87	 68	  0	
15-Apr-2013	sub2312	2312	  2	  0	 85	  2	  2	  5	  1	  6	  0	  2	  1	0.53700	  0	0.90000	  0	 25	 87	 68	  0	
15-Apr-2013	sub2312	2312	  2	  0	 86	  2	  2	  4	  6	  3	  1	  1	  0	0.51703	  0	0.90000	  0	 24	 82	 83	  0	
15-Apr-2013	sub2312	2312	  2	  0	 87	  2	  2	  4	  6	  3	  0	  2	  0	0.31111	  1	0.80000	  0	 24	 64	 89	  1	
15-Apr-2013	sub2312	2312	  2	  0	 88	  2	  2	  5	  1	  6	  0	  2	  1	0.53643	  0	0.80000	  0	 25	 87	 68	  0	
15-Apr-2013	sub2312	2312	  2	  0	 89	  2	  2	  2	  4	  6	  1	  2	  1	0.54504	  1	0.80000	  0	 22	 60	 61	  0	
15-Apr-2013	sub2312	2312	  2	  0	 90	  2	  2	  2	  4	  6	  1	  2	  1	0.46669	  1	0.80000	  0	 22	 60	 61	  1	
15-Apr-2013	sub2312	2312	  2	  0	 91	  2	  2	  5	  1	  6	  0	  2	  1	0.41264	  0	0.80000	  0	 25	 87	 68	  1	
15-Apr-2013	sub2312	2312	  2	  0	 92	  2	  2	  5	  1	  6	  0	  2	  1	0.41829	  0	0.80000	  0	 25	 87	 68	  1	
15-Apr-2013	sub2312	2312	  2	  0	 93	  2	  2	  1	  2	  3	  1	  2	  0	0.39457	  0	0.80000	  0	 21	 80	 81	  1	
15-Apr-2013	sub2312	2312	  2	  0	 94	  2	  2	  6	  3	  3	  1	  1	  0	0.68832	  0	0.80000	  0	 26	 85	 86	  0	
15-Apr-2013	sub2312	2312	  2	  0	 95	  2	  2	  4	  6	  3	  1	  2	  1	0.55315	  1	0.80000	  0	 24	 62	 63	  0	
15-Apr-2013	sub2312	2312	  2	  0	 96	  2	  2	  1	  2	  3	  1	  2	  0	0.50750	  0	0.80000	  0	 21	 80	 81	  0	
15-Apr-2013	sub2312	2312	  2	  0	 97	  2	  2	  2	  4	  6	  1	  1	  0	0.48992	  0	0.80000	  0	 22	 80	 81	  1	
15-Apr-2013	sub2312	2312	  2	  0	 98	  2	  2	  3	  5	  3	  0	  2	  1	0.45178	  0	0.80000	  0	 23	 84	 69	  1	
15-Apr-2013	sub2312	2312	  2	  0	 99	  2	  2	  2	  4	  6	  1	  2	  1	0.49316	  1	0.80000	  0	 22	 60	 61	  1	
15-Apr-2013	sub2312	2312	  2	  0	100	  2	  2	  6	  3	  3	  0	  2	  0	0.43397	  1	0.80000	  0	 26	 67	 88	  1	
15-Apr-2013	sub2312	2312	  2	  0	101	  2	  2	  1	  2	  3	  1	  1	  1	0.33590	  1	0.70000	  0	 21	 60	 61	  1	
15-Apr-2013	sub2312	2312	  2	  0	102	  2	  2	  5	  1	  6	  0	  2	  1	0.31722	  0	0.70000	  0	 25	 87	 68	  1	
15-Apr-2013	sub2312	2312	  2	  0	103	  2	  2	  2	  4	  6	  1	  2	  1	0.43969	  1	0.70000	  0	 22	 60	 61	  1	
15-Apr-2013	sub2312	2312	  2	  0	104	  2	  2	  2	  4	  6	  1	  2	  1	0.49977	  1	0.70000	  0	 22	 60	 61	  1	
15-Apr-2013	sub2312	2312	  2	  0	105	  2	  2	  4	  6	  3	  1	  1	  0	0.49242	  0	0.70000	  0	 24	 82	 83	  1	
15-Apr-2013	sub2312	2312	  2	  0	106	  2	  2	  4	  6	  3	  1	  2	  1	0.66577	  1	0.70000	  0	 24	 62	 63	  0	
15-Apr-2013	sub2312	2312	  2	  0	107	  2	  2	  3	  5	  3	  0	  2	  1	0.47654	  0	0.70000	  0	 23	 84	 69	  1	
15-Apr-2013	sub2312	2312	  2	  0	108	  2	  2	  6	  3	  3	  1	  2	  1	0.44291	  1	0.70000	  0	 26	 65	 66	  1	
15-Apr-2013	sub2312	2312	  2	  0	109	  2	  2	  1	  2	  3	  1	  1	  1	0.46986	  1	0.70000	  0	 21	 60	 61	  1	
15-Apr-2013	sub2312	2312	  2	  0	110	  2	  2	  1	  2	  3	  1	  1	  1	0.50201	  1	0.70000	  0	 21	 60	 61	  0	
15-Apr-2013	sub2312	2312	  2	  0	111	  2	  2	  2	  4	  6	  1	  2	  1	0.51805	  1	0.70000	  0	 22	 60	 61	  0	
15-Apr-2013	sub2312	2312	  2	  0	112	  2	  2	  5	  1	  6	  0	  2	  1	0.59087	  0	0.70000	  0	 25	 87	 68	  0	
15-Apr-2013	sub2312	2312	  2	  0	113	  2	  2	  1	  2	  3	  1	  2	  0	0.52514	  0	0.70000	  0	 21	 80	 81	  0	
15-Apr-2013	sub2312	2312	  2	  0	114	  2	  2	  3	  5	  3	  1	  2	  0	0.57338	  0	0.70000	  0	 23	 82	 83	  0	
15-Apr-2013	sub2312	2312	  2	  0	115	  2	  2	  6	  3	  3	  1	  1	  0	0.57017	  0	0.70000	  0	 26	 85	 86	  0	
15-Apr-2013	sub2312	2312	  2	  0	116	  2	  2	  4	  6	  3	  1	  2	  1	0.61782	  1	0.70000	  0	 24	 62	 63	  0	
15-Apr-2013	sub2312	2312	  2	  0	117	  2	  2	  5	  1	  6	  0	  2	  1	0.50358	  0	0.70000	  0	 25	 87	 68	  0	
15-Apr-2013	sub2312	2312	  2	  0	118	  2	  2	  3	  5	  3	  1	  2	  0	0.52915	  0	0.70000	  0	 23	 82	 83	  0	
15-Apr-2013	sub2312	2312	  2	  0	119	  2	  2	  2	  4	  6	  1	  2	  1	0.60717	  1	0.70000	  0	 22	 60	 61	  0	
15-Apr-2013	sub2312	2312	  2	  0	120	  2	  2	  1	  2	  3	  1	  2	  0	0.62569	  0	0.70000	  0	 21	 80	 81	  0	
15-Apr-2013	sub2312	2312	  2	  0	121	  2	  2	  2	  4	  6	  1	  1	  0	0.37093	  0	0.60000	  0	 22	 80	 81	  1	
15-Apr-2013	sub2312	2312	  2	  0	122	  2	  2	  6	  3	  3	  1	  1	  0	0.45907	  0	0.60000	  0	 26	 85	 86	  1	
15-Apr-2013	sub2312	2312	  2	  0	123	  2	  2	  4	  6	  3	  0	  2	  0	0.58393	  1	0.60000	  0	 24	 64	 89	  0	
15-Apr-2013	sub2312	2312	  2	  0	124	  2	  2	  2	  4	  6	  1	  2	  1	0.52734	  1	0.60000	  0	 22	 60	 61	  0	
15-Apr-2013	sub2312	2312	  2	  0	125	  2	  2	  4	  6	  3	  0	  2	  0	0.45477	  1	0.60000	  0	 24	 64	 89	  1	
15-Apr-2013	sub2312	2312	  2	  0	126	  2	  2	  1	  2	  3	  1	  2	  0	0.05016	  0	0.60000	  0	 21	 80	 81	  1	
15-Apr-2013	sub2312	2312	  2	  0	127	  2	  2	  6	  3	  3	  1	  2	  1	0.63527	  1	0.60000	  1	 26	 65	 51	  0	
15-Apr-2013	sub2312	2312	  2	  0	128	  2	  2	  2	  4	  6	  1	  1	  0	0.60314	  0	0.70000	  0	 22	 80	 81	  0	
15-Apr-2013	sub2312	2312	  2	  0	129	  2	  2	  3	  5	  3	  1	  2	  0	0.57828	  0	0.70000	  0	 23	 82	 83	  0	
15-Apr-2013	sub2312	2312	  2	  0	130	  2	  2	  3	  5	  3	  1	  2	  0	0.41685	  0	0.70000	  0	 23	 82	 83	  1	
15-Apr-2013	sub2312	2312	  2	  0	131	  2	  2	  1	  2	  3	  1	  2	  0	0.88560	  0	0.70000	  1	 21	 80	 51	  0	
15-Apr-2013	sub2312	2312	  2	  0	132	  2	  2	  3	  5	  3	  1	  2	  0	0.33183	  0	0.80000	  0	 23	 82	 83	  1	
15-Apr-2013	sub2312	2312	  2	  0	133	  2	  2	  4	  6	  3	  1	  2	  1	0.51054	  1	0.80000	  0	 24	 62	 63	  0	
15-Apr-2013	sub2312	2312	  2	  0	134	  2	  2	  6	  3	  3	  0	  2	  0	0.61534	  1	0.80000	  0	 26	 67	 88	  0	
15-Apr-2013	sub2312	2312	  2	  0	135	  2	  2	  3	  5	  3	  1	  2	  0	0.68602	  0	0.70000	  0	 23	 82	 83	  0	
15-Apr-2013	sub2312	2312	  2	  0	136	  2	  2	  1	  2	  3	  1	  2	  0	0.64070	  0	0.70000	  0	 21	 80	 81	  0	
15-Apr-2013	sub2312	2312	  2	  0	137	  2	  2	  5	  1	  6	  0	  2	  1	0.58222	  0	0.70000	  0	 25	 87	 68	  0	
15-Apr-2013	sub2312	2312	  2	  0	138	  2	  2	  5	  1	  6	  0	  2	  1	0.51215	  0	0.70000	  0	 25	 87	 68	  0	
15-Apr-2013	sub2312	2312	  2	  0	139	  2	  2	  1	  2	  3	  1	  2	  0	0.49451	  0	0.70000	  0	 21	 80	 81	  1	
15-Apr-2013	sub2312	2312	  2	  0	140	  2	  2	  5	  1	  6	  0	  2	  1	0.51585	  0	0.70000	  0	 25	 87	 68	  0	
15-Apr-2013	sub2312	2312	  2	  0	141	  2	  2	  3	  5	  3	  1	  2	  0	0.51982	  0	0.70000	  0	 23	 82	 83	  0	
15-Apr-2013	sub2312	2312	  2	  0	142	  2	  2	  6	  3	  3	  0	  1	  1	0.48800	  0	0.70000	  0	 26	 87	 68	  1	
15-Apr-2013	sub2312	2312	  2	  0	143	  2	  2	  2	  4	  6	  1	  1	  0	0.69715	  0	0.70000	  0	 22	 80	 81	  0	
15-Apr-2013	sub2312	2312	  2	  0	144	  2	  2	  4	  6	  3	  1	  2	  1	0.56229	  1	0.70000	  0	 24	 62	 63	  0	
15-Apr-2013	sub2312	2312	  2	  0	145	  2	  2	  5	  1	  6	  0	  2	  1	0.52854	  0	0.70000	  0	 25	 87	 68	  0	
15-Apr-2013	sub2312	2312	  2	  0	146	  2	  2	  6	  3	  3	  1	  1	  0	0.41996	  0	0.70000	  0	 26	 85	 86	  1	
15-Apr-2013	sub2312	2312	  2	  0	147	  2	  2	  5	  1	  6	  0	  2	  1	0.34276	  0	0.70000	  0	 25	 87	 68	  1	
15-Apr-2013	sub2312	2312	  2	  0	148	  2	  2	  1	  2	  3	  1	  2	  0	0.42400	  0	0.70000	  0	 21	 80	 81	  1	
15-Apr-2013	sub2312	2312	  2	  0	149	  2	  2	  6	  3	  3	  0	  1	  1	0.39044	  0	0.70000	  0	 26	 87	 68	  1	
15-Apr-2013	sub2312	2312	  2	  0	150	  2	  2	  4	  6	  3	  1	  2	  1	3.68175	  1	0.70000	  1	 24	 62	 51	  0	
15-Apr-2013	sub2312	2312	  2	  0	  1	  3	  1	  6	  5	  6	  0	  2	  0	0.65236	  1	0.60000	  1	 16	 37	 51	  0	
15-Apr-2013	sub2312	2312	  2	  0	  2	  3	  1	  1	  4	  5	  1	  2	  0	0.44147	  0	0.90000	  0	 11	 40	 41	  1	
15-Apr-2013	sub2312	2312	  2	  0	  3	  3	  1	  3	  2	  1	  0	  1	  0	0.55191	  1	0.90000	  0	 13	 34	 49	  0	
15-Apr-2013	sub2312	2312	  2	  0	  4	  3	  1	  2	  1	  1	  1	  2	  1	0.41533	  1	0.90000	  0	 12	 30	 31	  1	
15-Apr-2013	sub2312	2312	  2	  0	  5	  3	  1	  6	  5	  6	  0	  2	  0	0.50739	  1	0.90000	  0	 16	 37	 48	  0	
15-Apr-2013	sub2312	2312	  2	  0	  6	  3	  1	  2	  1	  1	  1	  1	  0	0.57716	  0	0.90000	  0	 12	 40	 41	  0	
15-Apr-2013	sub2312	2312	  2	  0	  7	  3	  1	  3	  2	  1	  1	  1	  1	0.51750	  1	0.90000	  0	 13	 32	 33	  0	
15-Apr-2013	sub2312	2312	  2	  0	  8	  3	  1	  1	  4	  5	  1	  2	  0	0.52632	  0	0.90000	  0	 11	 40	 41	  0	
15-Apr-2013	sub2312	2312	  2	  0	  9	  3	  1	  6	  5	  6	  1	  2	  1	0.48426	  1	0.90000	  0	 16	 35	 36	  1	
15-Apr-2013	sub2312	2312	  2	  0	 10	  3	  1	  3	  2	  1	  1	  1	  1	0.48267	  1	0.90000	  0	 13	 32	 33	  1	
15-Apr-2013	sub2312	2312	  2	  0	 11	  3	  1	  4	  6	  6	  1	  2	  1	0.52766	  1	0.90000	  0	 14	 32	 33	  0	
15-Apr-2013	sub2312	2312	  2	  0	 12	  3	  1	  4	  6	  6	  1	  2	  1	0.42152	  1	0.90000	  0	 14	 32	 33	  1	
15-Apr-2013	sub2312	2312	  2	  0	 13	  3	  1	  2	  1	  1	  1	  2	  1	0.66329	  1	0.90000	  0	 12	 30	 31	  0	
15-Apr-2013	sub2312	2312	  2	  0	 14	  3	  1	  1	  4	  5	  1	  1	  1	0.61211	  1	0.90000	  0	 11	 30	 31	  0	
15-Apr-2013	sub2312	2312	  2	  0	 15	  3	  1	  6	  5	  6	  0	  2	  0	0.45652	  1	0.90000	  0	 16	 37	 48	  1	
15-Apr-2013	sub2312	2312	  2	  0	 16	  3	  1	  4	  6	  6	  1	  2	  1	0.63532	  1	0.80000	  0	 14	 32	 33	  0	
15-Apr-2013	sub2312	2312	  2	  0	 17	  3	  1	  1	  4	  5	  1	  1	  1	0.48290	  1	0.80000	  0	 11	 30	 31	  1	
15-Apr-2013	sub2312	2312	  2	  0	 18	  3	  1	  1	  4	  5	  1	  1	  1	0.52654	  1	0.70000	  0	 11	 30	 31	  0	
15-Apr-2013	sub2312	2312	  2	  0	 19	  3	  1	  5	  3	  1	  1	  1	  1	0.67515	  1	0.70000	  0	 15	 35	 36	  0	
15-Apr-2013	sub2312	2312	  2	  0	 20	  3	  1	  4	  6	  6	  1	  1	  0	0.56219	  0	0.70000	  0	 14	 42	 43	  0	
15-Apr-2013	sub2312	2312	  2	  0	 21	  3	  1	  5	  3	  1	  0	  1	  0	0.59430	  1	0.60000	  0	 15	 37	 48	  0	
15-Apr-2013	sub2312	2312	  2	  0	 22	  3	  1	  1	  4	  5	  1	  1	  1	0.79587	  1	0.60000	  1	 11	 30	 51	  0	
15-Apr-2013	sub2312	2312	  2	  0	 23	  3	  1	  4	  6	  6	  1	  2	  1	0.53559	  1	0.90000	  0	 14	 32	 33	  0	
15-Apr-2013	sub2312	2312	  2	  0	 24	  3	  1	  1	  4	  5	  1	  1	  1	0.61473	  1	0.90000	  0	 11	 30	 31	  0	
15-Apr-2013	sub2312	2312	  2	  0	 25	  3	  1	  3	  2	  1	  1	  2	  0	0.51083	  0	0.90000	  0	 13	 42	 43	  0	
15-Apr-2013	sub2312	2312	  2	  0	 26	  3	  1	  6	  5	  6	  1	  1	  0	0.58695	  0	0.90000	  0	 16	 45	 46	  0	
15-Apr-2013	sub2312	2312	  2	  0	 27	  3	  1	  3	  2	  1	  1	  1	  1	0.65110	  1	0.90000	  0	 13	 32	 33	  0	
15-Apr-2013	sub2312	2312	  2	  0	 28	  3	  1	  5	  3	  1	  1	  2	  0	0.69516	  0	0.90000	  0	 15	 45	 46	  0	
15-Apr-2013	sub2312	2312	  2	  0	 29	  3	  1	  5	  3	  1	  0	  2	  1	0.50069	  0	0.90000	  0	 15	 47	 38	  0	
15-Apr-2013	sub2312	2312	  2	  0	 30	  3	  1	  3	  2	  1	  1	  1	  1	0.51436	  1	0.80000	  0	 13	 32	 33	  0	
15-Apr-2013	sub2312	2312	  2	  0	 31	  3	  1	  6	  5	  6	  1	  2	  1	0.45255	  1	0.80000	  0	 16	 35	 36	  1	
15-Apr-2013	sub2312	2312	  2	  0	 32	  3	  1	  3	  2	  1	  1	  2	  0	0.54213	  0	0.80000	  0	 13	 42	 43	  0	
15-Apr-2013	sub2312	2312	  2	  0	 33	  3	  1	  2	  1	  1	  1	  1	  0	0.34662	  0	0.80000	  0	 12	 40	 41	  1	
15-Apr-2013	sub2312	2312	  2	  0	 34	  3	  1	  5	  3	  1	  1	  2	  0	0.73810	  0	0.80000	  0	 15	 45	 46	  0	
15-Apr-2013	sub2312	2312	  2	  0	 35	  3	  1	  5	  3	  1	  1	  2	  0	0.47462	  0	0.70000	  0	 15	 45	 46	  1	
15-Apr-2013	sub2312	2312	  2	  0	 36	  3	  1	  2	  1	  1	  1	  2	  1	0.55993	  1	0.70000	  0	 12	 30	 31	  0	
15-Apr-2013	sub2312	2312	  2	  0	 37	  3	  1	  4	  6	  6	  0	  2	  0	0.57896	  1	0.70000	  0	 14	 34	 49	  0	
15-Apr-2013	sub2312	2312	  2	  0	 38	  3	  1	  1	  4	  5	  1	  1	  1	0.54130	  1	0.70000	  0	 11	 30	 31	  0	
15-Apr-2013	sub2312	2312	  2	  0	 39	  3	  1	  2	  1	  1	  1	  1	  0	0.53422	  0	0.70000	  0	 12	 40	 41	  0	
15-Apr-2013	sub2312	2312	  2	  0	 40	  3	  1	  6	  5	  6	  1	  1	  0	0.64598	  0	0.70000	  0	 16	 45	 46	  0	
15-Apr-2013	sub2312	2312	  2	  0	 41	  3	  1	  2	  1	  1	  1	  2	  1	0.45384	  1	0.60000	  0	 12	 30	 31	  1	
15-Apr-2013	sub2312	2312	  2	  0	 42	  3	  1	  5	  3	  1	  0	  1	  0	0.68055	  1	0.60000	  1	 15	 37	 51	  0	
15-Apr-2013	sub2312	2312	  2	  0	 43	  3	  1	  2	  1	  1	  1	  2	  1	0.40830	  1	0.90000	  0	 12	 30	 31	  1	
15-Apr-2013	sub2312	2312	  2	  0	 44	  3	  1	  2	  1	  1	  1	  2	  1	0.59846	  1	0.80000	  0	 12	 30	 31	  0	
15-Apr-2013	sub2312	2312	  2	  0	 45	  3	  1	  1	  4	  5	  1	  1	  1	0.62487	  1	0.80000	  0	 11	 30	 31	  0	
15-Apr-2013	sub2312	2312	  2	  0	 46	  3	  1	  4	  6	  6	  1	  2	  1	0.52848	  1	0.80000	  0	 14	 32	 33	  0	
15-Apr-2013	sub2312	2312	  2	  0	 47	  3	  1	  5	  3	  1	  0	  2	  1	0.66432	  0	0.80000	  0	 15	 47	 38	  0	
15-Apr-2013	sub2312	2312	  2	  0	 48	  3	  1	  4	  6	  6	  1	  2	  1	0.51173	  1	0.80000	  0	 14	 32	 33	  0	
15-Apr-2013	sub2312	2312	  2	  0	 49	  3	  1	  5	  3	  1	  1	  2	  0	0.62535	  0	0.80000	  0	 15	 45	 46	  0	
15-Apr-2013	sub2312	2312	  2	  0	 50	  3	  1	  1	  4	  5	  1	  2	  0	0.42939	  0	0.80000	  0	 11	 40	 41	  1	
15-Apr-2013	sub2312	2312	  2	  0	 51	  3	  1	  6	  5	  6	  0	  2	  0	0.72656	  1	0.70000	  1	 16	 37	 51	  0	
15-Apr-2013	sub2312	2312	  2	  0	 52	  3	  1	  3	  2	  1	  1	  1	  1	0.46855	  1	0.90000	  0	 13	 32	 33	  1	
15-Apr-2013	sub2312	2312	  2	  0	 53	  3	  1	  3	  2	  1	  0	  1	  0	0.49226	  1	0.90000	  0	 13	 34	 49	  1	
15-Apr-2013	sub2312	2312	  2	  0	 54	  3	  1	  4	  6	  6	  0	  2	  0	0.45517	  1	0.90000	  0	 14	 34	 49	  1	
15-Apr-2013	sub2312	2312	  2	  0	 55	  3	  1	  6	  5	  6	  0	  2	  0	0.44583	  1	0.90000	  0	 16	 37	 48	  1	
15-Apr-2013	sub2312	2312	  2	  0	 56	  3	  1	  1	  4	  5	  1	  2	  0	0.43863	  0	0.90000	  0	 11	 40	 41	  1	
15-Apr-2013	sub2312	2312	  2	  0	 57	  3	  1	  4	  6	  6	  1	  2	  1	0.51268	  1	0.90000	  0	 14	 32	 33	  0	
15-Apr-2013	sub2312	2312	  2	  0	 58	  3	  1	  3	  2	  1	  1	  1	  1	0.57577	  1	0.90000	  0	 13	 32	 33	  0	
15-Apr-2013	sub2312	2312	  2	  0	 59	  3	  1	  5	  3	  1	  1	  2	  0	1.05157	  0	0.80000	  1	 15	 45	 51	  0	
15-Apr-2013	sub2312	2312	  2	  0	 60	  3	  1	  5	  3	  1	  1	  2	  0	0.36100	  0	0.90000	  0	 15	 45	 46	  1	
15-Apr-2013	sub2312	2312	  2	  0	 61	  3	  1	  1	  4	  5	  1	  1	  1	0.62243	  1	0.90000	  0	 11	 30	 31	  0	
15-Apr-2013	sub2312	2312	  2	  0	 62	  3	  1	  3	  2	  1	  1	  1	  1	0.66257	  1	0.90000	  0	 13	 32	 33	  0	
15-Apr-2013	sub2312	2312	  2	  0	 63	  3	  1	  3	  2	  1	  0	  1	  0	0.57025	  1	0.90000	  0	 13	 34	 49	  0	
15-Apr-2013	sub2312	2312	  2	  0	 64	  3	  1	  2	  1	  1	  1	  2	  1	0.53476	  1	0.90000	  0	 12	 30	 31	  0	
15-Apr-2013	sub2312	2312	  2	  0	 65	  3	  1	  6	  5	  6	  1	  2	  1	0.47686	  1	0.90000	  0	 16	 35	 36	  1	
15-Apr-2013	sub2312	2312	  2	  0	 66	  3	  1	  6	  5	  6	  0	  2	  0	0.43250	  1	0.90000	  0	 16	 37	 48	  1	
15-Apr-2013	sub2312	2312	  2	  0	 67	  3	  1	  4	  6	  6	  1	  1	  0	0.29907	  0	0.90000	  0	 14	 42	 43	  1	
15-Apr-2013	sub2312	2312	  2	  0	 68	  3	  1	  3	  2	  1	  1	  1	  1	0.47543	  1	0.90000	  0	 13	 32	 33	  1	
15-Apr-2013	sub2312	2312	  2	  0	 69	  3	  1	  2	  1	  1	  1	  2	  1	0.56099	  1	0.90000	  0	 12	 30	 31	  0	
15-Apr-2013	sub2312	2312	  2	  0	 70	  3	  1	  2	  1	  1	  1	  2	  1	0.43831	  1	0.90000	  0	 12	 30	 31	  1	
15-Apr-2013	sub2312	2312	  2	  0	 71	  3	  1	  5	  3	  1	  0	  2	  1	0.48732	  0	0.90000	  0	 15	 47	 38	  1	
15-Apr-2013	sub2312	2312	  2	  0	 72	  3	  1	  4	  6	  6	  1	  2	  1	0.61089	  1	0.90000	  0	 14	 32	 33	  0	
15-Apr-2013	sub2312	2312	  2	  0	 73	  3	  1	  6	  5	  6	  1	  2	  1	0.43262	  1	0.80000	  0	 16	 35	 36	  1	
15-Apr-2013	sub2312	2312	  2	  0	 74	  3	  1	  6	  5	  6	  0	  2	  0	0.45006	  1	0.80000	  0	 16	 37	 48	  1	
15-Apr-2013	sub2312	2312	  2	  0	 75	  3	  1	  2	  1	  1	  1	  2	  1	0.54737	  1	0.80000	  0	 12	 30	 31	  0	
15-Apr-2013	sub2312	2312	  2	  0	 76	  3	  2	  4	  6	  6	  1	  2	  1	0.47950	  1	0.80000	  0	 24	 62	 63	  1	
15-Apr-2013	sub2312	2312	  2	  0	 77	  3	  2	  4	  6	  6	  1	  2	  1	0.44507	  1	0.80000	  0	 24	 62	 63	  1	
15-Apr-2013	sub2312	2312	  2	  0	 78	  3	  2	  6	  5	  6	  1	  2	  1	0.42895	  1	0.80000	  0	 26	 65	 66	  1	
15-Apr-2013	sub2312	2312	  2	  0	 79	  3	  2	  6	  5	  6	  0	  2	  0	0.45831	  1	0.80000	  0	 26	 67	 88	  1	
15-Apr-2013	sub2312	2312	  2	  0	 80	  3	  2	  3	  2	  1	  1	  1	  1	0.47717	  1	0.80000	  0	 23	 62	 63	  1	
15-Apr-2013	sub2312	2312	  2	  0	 81	  3	  2	  6	  5	  6	  1	  2	  1	0.40166	  1	0.80000	  0	 26	 65	 66	  1	
15-Apr-2013	sub2312	2312	  2	  0	 82	  3	  2	  2	  1	  1	  1	  2	  1	0.50660	  1	0.80000	  0	 22	 60	 61	  0	
15-Apr-2013	sub2312	2312	  2	  0	 83	  3	  2	  4	  6	  6	  0	  2	  0	0.43031	  1	0.80000	  0	 24	 64	 89	  1	
15-Apr-2013	sub2312	2312	  2	  0	 84	  3	  2	  2	  1	  1	  1	  2	  1	0.46438	  1	0.80000	  0	 22	 60	 61	  1	
15-Apr-2013	sub2312	2312	  2	  0	 85	  3	  2	  2	  1	  1	  1	  2	  1	0.49834	  1	0.70000	  0	 22	 60	 61	  1	
15-Apr-2013	sub2312	2312	  2	  0	 86	  3	  2	  1	  4	  5	  1	  2	  0	0.50403	  0	0.70000	  0	 21	 80	 81	  0	
15-Apr-2013	sub2312	2312	  2	  0	 87	  3	  2	  5	  3	  1	  0	  2	  1	0.55764	  0	0.70000	  0	 25	 87	 68	  0	
15-Apr-2013	sub2312	2312	  2	  0	 88	  3	  2	  3	  2	  1	  1	  1	  1	0.48930	  1	0.70000	  0	 23	 62	 63	  1	
15-Apr-2013	sub2312	2312	  2	  0	 89	  3	  2	  4	  6	  6	  1	  2	  1	0.46967	  1	0.70000	  0	 24	 62	 63	  1	
15-Apr-2013	sub2312	2312	  2	  0	 90	  3	  2	  1	  4	  5	  1	  2	  0	0.65958	  0	0.70000	  0	 21	 80	 81	  0	
15-Apr-2013	sub2312	2312	  2	  0	 91	  3	  2	  2	  1	  1	  1	  2	  1	0.51866	  1	0.70000	  0	 22	 60	 61	  0	
15-Apr-2013	sub2312	2312	  2	  0	 92	  3	  2	  4	  6	  6	  1	  2	  1	0.57610	  1	0.70000	  0	 24	 62	 63	  0	
15-Apr-2013	sub2312	2312	  2	  0	 93	  3	  2	  4	  6	  6	  1	  2	  1	0.46670	  1	0.70000	  0	 24	 62	 63	  1	
15-Apr-2013	sub2312	2312	  2	  0	 94	  3	  2	  5	  3	  1	  0	  2	  1	0.50394	  0	0.70000	  0	 25	 87	 68	  0	
15-Apr-2013	sub2312	2312	  2	  0	 95	  3	  2	  5	  3	  1	  0	  2	  1	0.45953	  0	0.70000	  0	 25	 87	 68	  1	
15-Apr-2013	sub2312	2312	  2	  0	 96	  3	  2	  3	  2	  1	  1	  1	  1	0.59390	  1	0.70000	  0	 23	 62	 63	  0	
15-Apr-2013	sub2312	2312	  2	  0	 97	  3	  2	  2	  1	  1	  1	  2	  1	0.53049	  1	0.70000	  0	 22	 60	 61	  0	
15-Apr-2013	sub2312	2312	  2	  0	 98	  3	  2	  6	  5	  6	  0	  2	  0	0.49975	  1	0.70000	  0	 26	 67	 88	  1	
15-Apr-2013	sub2312	2312	  2	  0	 99	  3	  2	  5	  3	  1	  0	  2	  1	0.54581	  0	0.70000	  0	 25	 87	 68	  0	
15-Apr-2013	sub2312	2312	  2	  0	100	  3	  2	  1	  4	  5	  1	  2	  0	0.54278	  0	0.70000	  0	 21	 80	 81	  0	
15-Apr-2013	sub2312	2312	  2	  0	101	  3	  2	  2	  1	  1	  1	  2	  1	0.54703	  1	0.60000	  0	 22	 60	 61	  0	
15-Apr-2013	sub2312	2312	  2	  0	102	  3	  2	  3	  2	  1	  1	  1	  1	0.62039	  1	0.60000	  1	 23	 62	 51	  0	
15-Apr-2013	sub2312	2312	  2	  0	103	  3	  2	  3	  2	  1	  1	  1	  1	0.45203	  1	0.70000	  0	 23	 62	 63	  1	
15-Apr-2013	sub2312	2312	  2	  0	104	  3	  2	  6	  5	  6	  0	  2	  0	0.46062	  1	0.70000	  0	 26	 67	 88	  1	
15-Apr-2013	sub2312	2312	  2	  0	105	  3	  2	  4	  6	  6	  1	  2	  1	0.59314	  1	0.70000	  0	 24	 62	 63	  0	
15-Apr-2013	sub2312	2312	  2	  0	106	  3	  2	  4	  6	  6	  0	  2	  0	0.55213	  1	0.70000	  0	 24	 64	 89	  0	
15-Apr-2013	sub2312	2312	  2	  0	107	  3	  2	  4	  6	  6	  1	  2	  1	0.58029	  1	0.70000	  0	 24	 62	 63	  0	
15-Apr-2013	sub2312	2312	  2	  0	108	  3	  2	  6	  5	  6	  0	  1	  1	0.69030	  0	0.70000	  0	 26	 87	 68	  0	
15-Apr-2013	sub2312	2312	  2	  0	109	  3	  2	  6	  5	  6	  1	  1	  0	0.51563	  0	0.70000	  0	 26	 85	 86	  0	
15-Apr-2013	sub2312	2312	  2	  0	110	  3	  2	  2	  1	  1	  1	  2	  1	0.56624	  1	0.70000	  0	 22	 60	 61	  0	
15-Apr-2013	sub2312	2312	  2	  0	111	  3	  2	  5	  3	  1	  0	  2	  1	0.57468	  0	0.70000	  0	 25	 87	 68	  0	
15-Apr-2013	sub2312	2312	  2	  0	112	  3	  2	  3	  2	  1	  1	  1	  1	0.51151	  1	0.70000	  0	 23	 62	 63	  0	
15-Apr-2013	sub2312	2312	  2	  0	113	  3	  2	  5	  3	  1	  0	  2	  1	0.49074	  0	0.70000	  0	 25	 87	 68	  1	
15-Apr-2013	sub2312	2312	  2	  0	114	  3	  2	  6	  5	  6	  0	  1	  1	0.61055	  0	0.70000	  0	 26	 87	 68	  0	
15-Apr-2013	sub2312	2312	  2	  0	115	  3	  2	  4	  6	  6	  1	  2	  1	0.51508	  1	0.70000	  0	 24	 62	 63	  0	
15-Apr-2013	sub2312	2312	  2	  0	116	  3	  2	  2	  1	  1	  1	  2	  1	0.50219	  1	0.70000	  0	 22	 60	 61	  0	
15-Apr-2013	sub2312	2312	  2	  0	117	  3	  2	  4	  6	  6	  1	  2	  1	0.51500	  1	0.70000	  0	 24	 62	 63	  0	
15-Apr-2013	sub2312	2312	  2	  0	118	  3	  2	  2	  1	  1	  1	  2	  1	0.50596	  1	0.70000	  0	 22	 60	 61	  0	
15-Apr-2013	sub2312	2312	  2	  0	119	  3	  2	  5	  3	  1	  0	  2	  1	0.47685	  0	0.70000	  0	 25	 87	 68	  1	
15-Apr-2013	sub2312	2312	  2	  0	120	  3	  2	  4	  6	  6	  1	  2	  1	0.44452	  1	0.70000	  0	 24	 62	 63	  1	
15-Apr-2013	sub2312	2312	  2	  0	121	  3	  2	  3	  2	  1	  1	  1	  1	0.60443	  1	0.60000	  1	 23	 62	 51	  0	
15-Apr-2013	sub2312	2312	  2	  0	122	  3	  2	  1	  4	  5	  1	  2	  0	0.48860	  0	0.70000	  0	 21	 80	 81	  1	
15-Apr-2013	sub2312	2312	  2	  0	123	  3	  2	  2	  1	  1	  1	  2	  1	0.62908	  1	0.70000	  0	 22	 60	 61	  0	
15-Apr-2013	sub2312	2312	  2	  0	124	  3	  2	  1	  4	  5	  1	  1	  1	0.59669	  1	0.70000	  0	 21	 60	 61	  0	
15-Apr-2013	sub2312	2312	  2	  0	125	  3	  2	  2	  1	  1	  1	  2	  1	0.62231	  1	0.70000	  0	 22	 60	 61	  0	
15-Apr-2013	sub2312	2312	  2	  0	126	  3	  2	  3	  2	  1	  0	  1	  0	0.61704	  1	0.70000	  0	 23	 64	 89	  0	
15-Apr-2013	sub2312	2312	  2	  0	127	  3	  2	  3	  2	  1	  0	  1	  0	0.49018	  1	0.70000	  0	 23	 64	 89	  1	
15-Apr-2013	sub2312	2312	  2	  0	128	  3	  2	  5	  3	  1	  0	  2	  1	0.52110	  0	0.70000	  0	 25	 87	 68	  0	
15-Apr-2013	sub2312	2312	  2	  0	129	  3	  2	  5	  3	  1	  0	  2	  1	0.42945	  0	0.70000	  0	 25	 87	 68	  1	
15-Apr-2013	sub2312	2312	  2	  0	130	  3	  2	  5	  3	  1	  0	  2	  1	2.82412	  0	0.70000	  1	 25	 87	 51	  0	
15-Apr-2013	sub2312	2312	  2	  0	131	  3	  2	  3	  2	  1	  1	  1	  1	0.45709	  1	0.80000	  0	 23	 62	 63	  1	
15-Apr-2013	sub2312	2312	  2	  0	132	  3	  2	  1	  4	  5	  1	  2	  0	0.42616	  0	0.80000	  0	 21	 80	 81	  1	
15-Apr-2013	sub2312	2312	  2	  0	133	  3	  2	  6	  5	  6	  1	  2	  1	0.50148	  1	0.80000	  0	 26	 65	 66	  0	
15-Apr-2013	sub2312	2312	  2	  0	134	  3	  2	  6	  5	  6	  0	  2	  0	0.67295	  1	0.80000	  0	 26	 67	 88	  0	
15-Apr-2013	sub2312	2312	  2	  0	135	  3	  2	  1	  4	  5	  1	  1	  1	0.70207	  1	0.70000	  1	 21	 60	 51	  0	
15-Apr-2013	sub2312	2312	  2	  0	136	  3	  2	  4	  6	  6	  0	  2	  0	0.56273	  1	0.80000	  0	 24	 64	 89	  0	
15-Apr-2013	sub2312	2312	  2	  0	137	  3	  2	  1	  4	  5	  1	  1	  1	0.43012	  1	0.80000	  0	 21	 60	 61	  1	
15-Apr-2013	sub2312	2312	  2	  0	138	  3	  2	  1	  4	  5	  1	  1	  1	0.41973	  1	0.80000	  0	 21	 60	 61	  1	
15-Apr-2013	sub2312	2312	  2	  0	139	  3	  2	  5	  3	  1	  0	  2	  1	0.74434	  0	0.80000	  0	 25	 87	 68	  0	
15-Apr-2013	sub2312	2312	  2	  0	140	  3	  2	  3	  2	  1	  1	  1	  1	0.51840	  1	0.80000	  0	 23	 62	 63	  0	
15-Apr-2013	sub2312	2312	  2	  0	141	  3	  2	  1	  4	  5	  1	  2	  0	0.42481	  0	0.80000	  0	 21	 80	 81	  1	
15-Apr-2013	sub2312	2312	  2	  0	142	  3	  2	  3	  2	  1	  1	  1	  1	0.37511	  1	0.80000	  0	 23	 62	 63	  1	
15-Apr-2013	sub2312	2312	  2	  0	143	  3	  2	  6	  5	  6	  1	  1	  0	0.49915	  0	0.80000	  0	 26	 85	 86	  1	
15-Apr-2013	sub2312	2312	  2	  0	144	  3	  2	  5	  3	  1	  0	  2	  1	0.50283	  0	0.80000	  0	 25	 87	 68	  0	
15-Apr-2013	sub2312	2312	  2	  0	145	  3	  2	  1	  4	  5	  1	  1	  1	0.47720	  1	0.80000	  0	 21	 60	 61	  1	
15-Apr-2013	sub2312	2312	  2	  0	146	  3	  2	  6	  5	  6	  1	  2	  1	0.82414	  1	0.80000	  1	 26	 65	 51	  0	
15-Apr-2013	sub2312	2312	  2	  0	147	  3	  2	  2	  1	  1	  1	  2	  1	0.57331	  1	0.80000	  0	 22	 60	 61	  0	
15-Apr-2013	sub2312	2312	  2	  0	148	  3	  2	  5	  3	  1	  0	  2	  1	0.52014	  0	0.80000	  0	 25	 87	 68	  0	
15-Apr-2013	sub2312	2312	  2	  0	149	  3	  2	  1	  4	  5	  1	  1	  1	0.42392	  1	0.80000	  0	 21	 60	 61	  1	
15-Apr-2013	sub2312	2312	  2	  0	150	  3	  2	  1	  4	  5	  1	  1	  1	0.49435	  1	0.80000	  0	 21	 60	 61	  1	
15-Apr-2013	sub2312	2312	  2	  0	  1	  4	  1	  4	  6	  5	  1	  2	  1	0.62479	  1	0.60000	  1	 14	 32	 51	  0	
15-Apr-2013	sub2312	2312	  2	  0	  2	  4	  1	  4	  6	  5	  0	  1	  1	0.49636	  0	0.90000	  0	 14	 44	 39	  1	
15-Apr-2013	sub2312	2312	  2	  0	  3	  4	  1	  6	  4	  1	  1	  1	  0	0.47731	  0	0.90000	  0	 16	 45	 46	  1	
15-Apr-2013	sub2312	2312	  2	  0	  4	  4	  1	  4	  6	  5	  1	  1	  0	0.69348	  0	0.90000	  0	 14	 42	 43	  0	
15-Apr-2013	sub2312	2312	  2	  0	  5	  4	  1	  1	  2	  5	  1	  1	  1	0.59399	  1	0.90000	  0	 11	 30	 31	  0	
15-Apr-2013	sub2312	2312	  2	  0	  6	  4	  1	  6	  4	  1	  0	  2	  0	0.75330	  1	0.90000	  0	 16	 37	 48	  0	
15-Apr-2013	sub2312	2312	  2	  0	  7	  4	  1	  5	  1	  5	  1	  2	  0	0.53842	  0	0.90000	  0	 15	 45	 46	  0	
15-Apr-2013	sub2312	2312	  2	  0	  8	  4	  1	  4	  6	  5	  1	  1	  0	0.47657	  0	0.90000	  0	 14	 42	 43	  1	
15-Apr-2013	sub2312	2312	  2	  0	  9	  4	  1	  3	  3	  5	  1	  1	  1	0.59113	  1	0.90000	  0	 13	 32	 33	  0	
15-Apr-2013	sub2312	2312	  2	  0	 10	  4	  1	  1	  2	  5	  1	  1	  1	0.54765	  1	0.90000	  0	 11	 30	 31	  0	
15-Apr-2013	sub2312	2312	  2	  0	 11	  4	  1	  1	  2	  5	  1	  1	  1	0.41832	  1	0.90000	  0	 11	 30	 31	  1	
15-Apr-2013	sub2312	2312	  2	  0	 12	  4	  1	  3	  3	  5	  1	  1	  1	0.44282	  1	0.90000	  0	 13	 32	 33	  1	
15-Apr-2013	sub2312	2312	  2	  0	 13	  4	  1	  6	  4	  1	  1	  2	  1	0.50877	  1	0.90000	  0	 16	 35	 36	  0	
15-Apr-2013	sub2312	2312	  2	  0	 14	  4	  1	  6	  4	  1	  0	  2	  0	0.44737	  1	0.90000	  0	 16	 37	 48	  1	
15-Apr-2013	sub2312	2312	  2	  0	 15	  4	  1	  1	  2	  5	  1	  1	  1	0.50999	  1	0.90000	  0	 11	 30	 31	  0	
15-Apr-2013	sub2312	2312	  2	  0	 16	  4	  1	  3	  3	  5	  1	  1	  1	0.49934	  1	0.80000	  0	 13	 32	 33	  1	
15-Apr-2013	sub2312	2312	  2	  0	 17	  4	  1	  6	  4	  1	  0	  2	  0	0.75548	  1	0.80000	  0	 16	 37	 48	  0	
15-Apr-2013	sub2312	2312	  2	  0	 18	  4	  1	  3	  3	  5	  1	  1	  1	0.41783	  1	0.70000	  0	 13	 32	 33	  1	
15-Apr-2013	sub2312	2312	  2	  0	 19	  4	  1	  6	  4	  1	  0	  1	  1	0.41436	  0	0.70000	  0	 16	 47	 38	  1	
15-Apr-2013	sub2312	2312	  2	  0	 20	  4	  1	  2	  5	  5	  1	  2	  1	0.56483	  1	0.70000	  0	 12	 30	 31	  0	
15-Apr-2013	sub2312	2312	  2	  0	 21	  4	  1	  1	  2	  5	  1	  1	  1	0.47293	  1	0.60000	  0	 11	 30	 31	  1	
15-Apr-2013	sub2312	2312	  2	  0	 22	  4	  1	  3	  3	  5	  1	  1	  1	0.57507	  1	0.60000	  0	 13	 32	 33	  0	
15-Apr-2013	sub2312	2312	  2	  0	 23	  4	  1	  5	  1	  5	  0	  1	  0	0.58245	  1	0.60000	  0	 15	 37	 48	  0	
15-Apr-2013	sub2312	2312	  2	  0	 24	  4	  1	  3	  3	  5	  1	  1	  1	0.44615	  1	0.60000	  0	 13	 32	 33	  1	
15-Apr-2013	sub2312	2312	  2	  0	 25	  4	  1	  3	  3	  5	  0	  1	  0	0.45576	  1	0.60000	  0	 13	 34	 49	  1	
15-Apr-2013	sub2312	2312	  2	  0	 26	  4	  1	  3	  3	  5	  1	  1	  1	0.44555	  1	0.50000	  0	 13	 32	 33	  1	
15-Apr-2013	sub2312	2312	  2	  0	 27	  4	  1	  4	  6	  5	  0	  2	  0	0.47568	  1	0.50000	  0	 14	 34	 49	  1	
15-Apr-2013	sub2312	2312	  2	  0	 28	  4	  1	  5	  1	  5	  0	  2	  1	0.63772	  0	0.50000	  1	 15	 47	 51	  0	
15-Apr-2013	sub2312	2312	  2	  0	 29	  4	  1	  2	  5	  5	  1	  2	  1	0.75780	  1	0.90000	  0	 12	 30	 31	  0	
15-Apr-2013	sub2312	2312	  2	  0	 30	  4	  1	  3	  3	  5	  1	  1	  1	0.97240	  1	0.80000	  1	 13	 32	 51	  0	
15-Apr-2013	sub2312	2312	  2	  0	 31	  4	  1	  1	  2	  5	  1	  1	  1	0.40491	  1	0.90000	  0	 11	 30	 31	  1	
15-Apr-2013	sub2312	2312	  2	  0	 32	  4	  1	  5	  1	  5	  1	  2	  0	0.61366	  0	0.90000	  0	 15	 45	 46	  0	
15-Apr-2013	sub2312	2312	  2	  0	 33	  4	  1	  2	  5	  5	  1	  2	  1	0.55084	  1	0.90000	  0	 12	 30	 31	  0	
15-Apr-2013	sub2312	2312	  2	  0	 34	  4	  1	  6	  4	  1	  1	  2	  1	0.61518	  1	0.90000	  0	 16	 35	 36	  0	
15-Apr-2013	sub2312	2312	  2	  0	 35	  4	  1	  4	  6	  5	  1	  1	  0	0.51176	  0	0.90000	  0	 14	 42	 43	  0	
15-Apr-2013	sub2312	2312	  2	  0	 36	  4	  1	  6	  4	  1	  1	  1	  0	0.42679	  0	0.90000	  0	 16	 45	 46	  1	
15-Apr-2013	sub2312	2312	  2	  0	 37	  4	  1	  4	  6	  5	  1	  1	  0	0.69845	  0	0.90000	  0	 14	 42	 43	  0	
15-Apr-2013	sub2312	2312	  2	  0	 38	  4	  1	  2	  5	  5	  1	  2	  1	0.54887	  1	0.90000	  0	 12	 30	 31	  0	
15-Apr-2013	sub2312	2312	  2	  0	 39	  4	  1	  2	  5	  5	  1	  2	  1	0.59650	  1	0.90000	  0	 12	 30	 31	  0	
15-Apr-2013	sub2312	2312	  2	  0	 40	  4	  1	  4	  6	  5	  1	  2	  1	0.47106	  1	0.90000	  0	 14	 32	 33	  1	
15-Apr-2013	sub2312	2312	  2	  0	 41	  4	  1	  1	  2	  5	  1	  1	  1	0.65675	  1	0.90000	  0	 11	 30	 31	  0	
15-Apr-2013	sub2312	2312	  2	  0	 42	  4	  1	  1	  2	  5	  1	  1	  1	0.50184	  1	0.90000	  0	 11	 30	 31	  0	
15-Apr-2013	sub2312	2312	  2	  0	 43	  4	  1	  5	  1	  5	  0	  2	  1	0.55381	  0	0.90000	  0	 15	 47	 38	  0	
15-Apr-2013	sub2312	2312	  2	  0	 44	  4	  1	  2	  5	  5	  1	  2	  1	0.71233	  1	0.80000	  0	 12	 30	 31	  0	
15-Apr-2013	sub2312	2312	  2	  0	 45	  4	  1	  2	  5	  5	  1	  2	  1	0.38220	  1	0.80000	  0	 12	 30	 31	  1	
15-Apr-2013	sub2312	2312	  2	  0	 46	  4	  1	  5	  1	  5	  0	  2	  1	0.56827	  0	0.80000	  0	 15	 47	 38	  0	
15-Apr-2013	sub2312	2312	  2	  0	 47	  4	  1	  5	  1	  5	  1	  2	  0	0.38453	  0	0.80000	  0	 15	 45	 46	  1	
15-Apr-2013	sub2312	2312	  2	  0	 48	  4	  1	  6	  4	  1	  0	  1	  1	0.45152	  0	0.80000	  0	 16	 47	 38	  1	
15-Apr-2013	sub2312	2312	  2	  0	 49	  4	  1	  2	  5	  5	  1	  2	  1	0.46797	  1	0.80000	  0	 12	 30	 31	  1	
15-Apr-2013	sub2312	2312	  2	  0	 50	  4	  1	  3	  3	  5	  0	  1	  0	0.67263	  1	0.80000	  0	 13	 34	 49	  0	
15-Apr-2013	sub2312	2312	  2	  0	 51	  4	  1	  6	  4	  1	  0	  1	  1	0.43828	  0	0.70000	  0	 16	 47	 38	  1	
15-Apr-2013	sub2312	2312	  2	  0	 52	  4	  1	  4	  6	  5	  1	  2	  1	2.03516	  1	0.70000	  1	 14	 32	 51	  0	
15-Apr-2013	sub2312	2312	  2	  0	 53	  4	  1	  2	  5	  5	  1	  2	  1	0.50117	  1	0.90000	  0	 12	 30	 31	  0	
15-Apr-2013	sub2312	2312	  2	  0	 54	  4	  1	  2	  5	  5	  1	  2	  1	0.42010	  1	0.90000	  0	 12	 30	 31	  1	
15-Apr-2013	sub2312	2312	  2	  0	 55	  4	  1	  5	  1	  5	  1	  2	  0	0.54296	  0	0.90000	  0	 15	 45	 46	  0	
15-Apr-2013	sub2312	2312	  2	  0	 56	  4	  1	  6	  4	  1	  1	  2	  1	0.74818	  1	0.90000	  0	 16	 35	 36	  0	
15-Apr-2013	sub2312	2312	  2	  0	 57	  4	  1	  2	  5	  5	  1	  2	  1	0.47031	  1	0.90000	  0	 12	 30	 31	  1	
15-Apr-2013	sub2312	2312	  2	  0	 58	  4	  1	  5	  1	  5	  1	  2	  0	0.55222	  0	0.90000	  0	 15	 45	 46	  0	
15-Apr-2013	sub2312	2312	  2	  0	 59	  4	  1	  1	  2	  5	  1	  2	  0	0.54589	  0	0.80000	  0	 11	 40	 41	  0	
15-Apr-2013	sub2312	2312	  2	  0	 60	  4	  1	  6	  4	  1	  0	  1	  1	0.66808	  0	0.80000	  0	 16	 47	 38	  0	
15-Apr-2013	sub2312	2312	  2	  0	 61	  4	  1	  3	  3	  5	  0	  1	  0	0.47774	  1	0.80000	  0	 13	 34	 49	  1	
15-Apr-2013	sub2312	2312	  2	  0	 62	  4	  1	  2	  5	  5	  1	  2	  1	0.49750	  1	0.80000	  0	 12	 30	 31	  1	
15-Apr-2013	sub2312	2312	  2	  0	 63	  4	  1	  3	  3	  5	  1	  1	  1	0.48171	  1	0.80000	  0	 13	 32	 33	  1	
15-Apr-2013	sub2312	2312	  2	  0	 64	  4	  1	  1	  2	  5	  1	  1	  1	0.37326	  1	0.80000	  0	 11	 30	 31	  1	
15-Apr-2013	sub2312	2312	  2	  0	 65	  4	  1	  1	  2	  5	  1	  1	  1	0.49806	  1	0.80000	  0	 11	 30	 31	  1	
15-Apr-2013	sub2312	2312	  2	  0	 66	  4	  1	  2	  5	  5	  1	  2	  1	0.45041	  1	0.80000	  0	 12	 30	 31	  1	
15-Apr-2013	sub2312	2312	  2	  0	 67	  4	  1	  4	  6	  5	  1	  1	  0	0.43438	  0	0.80000	  0	 14	 42	 43	  1	
15-Apr-2013	sub2312	2312	  2	  0	 68	  4	  1	  5	  1	  5	  0	  2	  1	0.40838	  0	0.70000	  0	 15	 47	 38	  1	
15-Apr-2013	sub2312	2312	  2	  0	 69	  4	  1	  4	  6	  5	  1	  2	  1	0.50803	  1	0.70000	  0	 14	 32	 33	  0	
15-Apr-2013	sub2312	2312	  2	  0	 70	  4	  1	  5	  1	  5	  1	  1	  1	0.48885	  1	0.70000	  0	 15	 35	 36	  1	
15-Apr-2013	sub2312	2312	  2	  0	 71	  4	  1	  4	  6	  5	  1	  2	  1	0.47127	  1	0.70000	  0	 14	 32	 33	  1	
15-Apr-2013	sub2312	2312	  2	  0	 72	  4	  1	  3	  3	  5	  1	  2	  0	0.49363	  0	0.70000	  0	 13	 42	 43	  1	
15-Apr-2013	sub2312	2312	  2	  0	 73	  4	  1	  1	  2	  5	  1	  1	  1	0.37590	  1	0.70000	  0	 11	 30	 31	  1	
15-Apr-2013	sub2312	2312	  2	  0	 74	  4	  1	  5	  1	  5	  1	  2	  0	0.61246	  0	0.70000	  0	 15	 45	 46	  0	
15-Apr-2013	sub2312	2312	  2	  0	 75	  4	  1	  6	  4	  1	  0	  1	  1	0.39468	  0	0.70000	  0	 16	 47	 38	  1	
15-Apr-2013	sub2312	2312	  2	  0	 76	  4	  2	  4	  6	  5	  0	  2	  0	0.36812	  1	0.70000	  0	 24	 64	 89	  1	
15-Apr-2013	sub2312	2312	  2	  0	 77	  4	  2	  3	  3	  5	  1	  1	  1	0.42770	  1	0.70000	  0	 23	 62	 63	  1	
15-Apr-2013	sub2312	2312	  2	  0	 78	  4	  2	  6	  4	  1	  0	  1	  1	0.52136	  0	0.70000	  0	 26	 87	 68	  0	
15-Apr-2013	sub2312	2312	  2	  0	 79	  4	  2	  1	  2	  5	  1	  1	  1	0.48318	  1	0.70000	  0	 21	 60	 61	  1	
15-Apr-2013	sub2312	2312	  2	  0	 80	  4	  2	  1	  2	  5	  1	  1	  1	0.46200	  1	0.70000	  0	 21	 60	 61	  1	
15-Apr-2013	sub2312	2312	  2	  0	 81	  4	  2	  6	  4	  1	  0	  2	  0	0.99666	  1	0.60000	  1	 26	 67	 51	  0	
15-Apr-2013	sub2312	2312	  2	  0	 82	  4	  2	  5	  1	  5	  0	  1	  0	0.40796	  1	0.80000	  0	 25	 67	 88	  1	
15-Apr-2013	sub2312	2312	  2	  0	 83	  4	  2	  6	  4	  1	  0	  1	  1	0.46415	  0	0.80000	  0	 26	 87	 68	  1	
15-Apr-2013	sub2312	2312	  2	  0	 84	  4	  2	  6	  4	  1	  1	  1	  0	0.41815	  0	0.80000	  0	 26	 85	 86	  1	
15-Apr-2013	sub2312	2312	  2	  0	 85	  4	  2	  5	  1	  5	  0	  2	  1	0.57800	  0	0.70000	  0	 25	 87	 68	  0	
15-Apr-2013	sub2312	2312	  2	  0	 86	  4	  2	  4	  6	  5	  1	  2	  1	0.58467	  1	0.70000	  0	 24	 62	 63	  0	
15-Apr-2013	sub2312	2312	  2	  0	 87	  4	  2	  3	  3	  5	  0	  2	  1	0.43749	  0	0.70000	  0	 23	 84	 69	  1	
15-Apr-2013	sub2312	2312	  2	  0	 88	  4	  2	  5	  1	  5	  0	  2	  1	0.56317	  0	0.70000	  0	 25	 87	 68	  0	
15-Apr-2013	sub2312	2312	  2	  0	 89	  4	  2	  6	  4	  1	  1	  1	  0	0.58320	  0	0.70000	  0	 26	 85	 86	  0	
15-Apr-2013	sub2312	2312	  2	  0	 90	  4	  2	  2	  5	  5	  1	  2	  1	0.52921	  1	0.70000	  0	 22	 60	 61	  0	
15-Apr-2013	sub2312	2312	  2	  0	 91	  4	  2	  3	  3	  5	  1	  1	  1	0.52665	  1	0.70000	  0	 23	 62	 63	  0	
15-Apr-2013	sub2312	2312	  2	  0	 92	  4	  2	  5	  1	  5	  0	  2	  1	0.57215	  0	0.70000	  0	 25	 87	 68	  0	
15-Apr-2013	sub2312	2312	  2	  0	 93	  4	  2	  3	  3	  5	  1	  1	  1	0.47365	  1	0.70000	  0	 23	 62	 63	  1	
15-Apr-2013	sub2312	2312	  2	  0	 94	  4	  2	  1	  2	  5	  1	  1	  1	0.60876	  1	0.70000	  0	 21	 60	 61	  0	
15-Apr-2013	sub2312	2312	  2	  0	 95	  4	  2	  5	  1	  5	  0	  2	  1	0.57487	  0	0.70000	  0	 25	 87	 68	  0	
15-Apr-2013	sub2312	2312	  2	  0	 96	  4	  2	  1	  2	  5	  1	  1	  1	0.46925	  1	0.70000	  0	 21	 60	 61	  1	
15-Apr-2013	sub2312	2312	  2	  0	 97	  4	  2	  4	  6	  5	  1	  1	  0	0.51164	  0	0.70000	  0	 24	 82	 83	  0	
15-Apr-2013	sub2312	2312	  2	  0	 98	  4	  2	  1	  2	  5	  1	  2	  0	0.50612	  0	0.70000	  0	 21	 80	 81	  0	
15-Apr-2013	sub2312	2312	  2	  0	 99	  4	  2	  2	  5	  5	  1	  2	  1	0.47430	  1	0.70000	  0	 22	 60	 61	  1	
15-Apr-2013	sub2312	2312	  2	  0	100	  4	  2	  4	  6	  5	  1	  1	  0	0.58397	  0	0.70000	  0	 24	 82	 83	  0	
15-Apr-2013	sub2312	2312	  2	  0	101	  4	  2	  2	  5	  5	  1	  2	  1	0.49821	  1	0.60000	  0	 22	 60	 61	  1	
15-Apr-2013	sub2312	2312	  2	  0	102	  4	  2	  1	  2	  5	  1	  1	  1	0.41692	  1	0.60000	  0	 21	 60	 61	  1	
15-Apr-2013	sub2312	2312	  2	  0	103	  4	  2	  6	  4	  1	  0	  1	  1	0.55083	  0	0.60000	  0	 26	 87	 68	  0	
15-Apr-2013	sub2312	2312	  2	  0	104	  4	  2	  1	  2	  5	  1	  1	  1	0.58106	  1	0.60000	  0	 21	 60	 61	  0	
15-Apr-2013	sub2312	2312	  2	  0	105	  4	  2	  3	  3	  5	  1	  1	  1	0.52776	  1	0.60000	  0	 23	 62	 63	  0	
15-Apr-2013	sub2312	2312	  2	  0	106	  4	  2	  6	  4	  1	  1	  1	  0	0.45567	  0	0.60000	  0	 26	 85	 86	  1	
15-Apr-2013	sub2312	2312	  2	  0	107	  4	  2	  1	  2	  5	  1	  1	  1	0.49295	  1	0.60000	  0	 21	 60	 61	  1	
15-Apr-2013	sub2312	2312	  2	  0	108	  4	  2	  5	  1	  5	  0	  1	  0	0.49766	  1	0.60000	  0	 25	 67	 88	  1	
15-Apr-2013	sub2312	2312	  2	  0	109	  4	  2	  4	  6	  5	  1	  1	  0	0.49110	  0	0.60000	  0	 24	 82	 83	  1	
15-Apr-2013	sub2312	2312	  2	  0	110	  4	  2	  6	  4	  1	  0	  2	  0	0.81981	  1	0.60000	  1	 26	 67	 51	  0	
15-Apr-2013	sub2312	2312	  2	  0	111	  4	  2	  2	  5	  5	  1	  2	  1	0.53531	  1	0.70000	  0	 22	 60	 61	  0	
15-Apr-2013	sub2312	2312	  2	  0	112	  4	  2	  6	  4	  1	  1	  1	  0	0.41364	  0	0.70000	  0	 26	 85	 86	  1	
15-Apr-2013	sub2312	2312	  2	  0	113	  4	  2	  1	  2	  5	  1	  1	  1	0.49535	  1	0.70000	  0	 21	 60	 61	  1	
15-Apr-2013	sub2312	2312	  2	  0	114	  4	  2	  3	  3	  5	  1	  1	  1	0.58000	  1	0.70000	  0	 23	 62	 63	  0	
15-Apr-2013	sub2312	2312	  2	  0	115	  4	  2	  6	  4	  1	  1	  1	  0	0.42978	  0	0.70000	  0	 26	 85	 86	  1	
15-Apr-2013	sub2312	2312	  2	  0	116	  4	  2	  2	  5	  5	  1	  2	  1	0.47921	  1	0.70000	  0	 22	 60	 61	  1	
15-Apr-2013	sub2312	2312	  2	  0	117	  4	  2	  2	  5	  5	  1	  2	  1	0.44808	  1	0.70000	  0	 22	 60	 61	  1	
15-Apr-2013	sub2312	2312	  2	  0	118	  4	  2	  5	  1	  5	  0	  2	  1	0.57110	  0	0.70000	  0	 25	 87	 68	  0	
15-Apr-2013	sub2312	2312	  2	  0	119	  4	  2	  5	  1	  5	  0	  2	  1	0.48966	  0	0.70000	  0	 25	 87	 68	  1	
15-Apr-2013	sub2312	2312	  2	  0	120	  4	  2	  1	  2	  5	  1	  1	  1	0.49643	  1	0.70000	  0	 21	 60	 61	  1	
15-Apr-2013	sub2312	2312	  2	  0	121	  4	  2	  6	  4	  1	  0	  2	  0	0.68110	  1	0.60000	  1	 26	 67	 51	  0	
15-Apr-2013	sub2312	2312	  2	  0	122	  4	  2	  2	  5	  5	  1	  2	  1	0.51406	  1	0.70000	  0	 22	 60	 61	  0	
15-Apr-2013	sub2312	2312	  2	  0	123	  4	  2	  3	  3	  5	  1	  1	  1	0.56470	  1	0.70000	  0	 23	 62	 63	  0	
15-Apr-2013	sub2312	2312	  2	  0	124	  4	  2	  5	  1	  5	  0	  2	  1	0.50118	  0	0.70000	  0	 25	 87	 68	  0	
15-Apr-2013	sub2312	2312	  2	  0	125	  4	  2	  1	  2	  5	  1	  1	  1	0.56813	  1	0.70000	  0	 21	 60	 61	  0	
15-Apr-2013	sub2312	2312	  2	  0	126	  4	  2	  2	  5	  5	  1	  2	  1	0.49554	  1	0.70000	  0	 22	 60	 61	  1	
15-Apr-2013	sub2312	2312	  2	  0	127	  4	  2	  3	  3	  5	  0	  1	  0	0.51508	  1	0.70000	  0	 23	 64	 89	  0	
15-Apr-2013	sub2312	2312	  2	  0	128	  4	  2	  1	  2	  5	  1	  1	  1	0.48113	  1	0.70000	  0	 21	 60	 61	  1	
15-Apr-2013	sub2312	2312	  2	  0	129	  4	  2	  2	  5	  5	  1	  2	  1	0.46404	  1	0.70000	  0	 22	 60	 61	  1	
15-Apr-2013	sub2312	2312	  2	  0	130	  4	  2	  4	  6	  5	  1	  1	  0	0.48232	  0	0.70000	  0	 24	 82	 83	  1	
15-Apr-2013	sub2312	2312	  2	  0	131	  4	  2	  1	  2	  5	  1	  1	  1	0.53415	  1	0.70000	  0	 21	 60	 61	  0	
15-Apr-2013	sub2312	2312	  2	  0	132	  4	  2	  4	  6	  5	  1	  1	  0	0.44670	  0	0.70000	  0	 24	 82	 83	  1	
15-Apr-2013	sub2312	2312	  2	  0	133	  4	  2	  3	  3	  5	  1	  2	  0	0.48528	  0	0.70000	  0	 23	 82	 83	  1	
15-Apr-2013	sub2312	2312	  2	  0	134	  4	  2	  4	  6	  5	  1	  1	  0	0.55710	  0	0.70000	  0	 24	 82	 83	  0	
15-Apr-2013	sub2312	2312	  2	  0	135	  4	  2	  5	  1	  5	  0	  2	  1	0.61623	  0	0.70000	  0	 25	 87	 68	  0	
15-Apr-2013	sub2312	2312	  2	  0	136	  4	  2	  2	  5	  5	  1	  2	  1	0.57784	  1	0.70000	  0	 22	 60	 61	  0	
15-Apr-2013	sub2312	2312	  2	  0	137	  4	  2	  5	  1	  5	  0	  2	  1	0.58889	  0	0.70000	  0	 25	 87	 68	  0	
15-Apr-2013	sub2312	2312	  2	  0	138	  4	  2	  3	  3	  5	  1	  1	  1	0.51333	  1	0.70000	  0	 23	 62	 63	  0	
15-Apr-2013	sub2312	2312	  2	  0	139	  4	  2	  2	  5	  5	  1	  2	  1	0.52315	  1	0.70000	  0	 22	 60	 61	  0	
15-Apr-2013	sub2312	2312	  2	  0	140	  4	  2	  3	  3	  5	  1	  1	  1	0.58101	  1	0.70000	  0	 23	 62	 63	  0	
15-Apr-2013	sub2312	2312	  2	  0	141	  4	  2	  6	  4	  1	  1	  2	  1	0.64569	  1	0.60000	  1	 26	 65	 51	  0	
15-Apr-2013	sub2312	2312	  2	  0	142	  4	  2	  2	  5	  5	  1	  2	  1	0.61257	  1	0.70000	  0	 22	 60	 61	  0	
15-Apr-2013	sub2312	2312	  2	  0	143	  4	  2	  4	  6	  5	  1	  2	  1	0.57242	  1	0.70000	  0	 24	 62	 63	  0	
15-Apr-2013	sub2312	2312	  2	  0	144	  4	  2	  4	  6	  5	  0	  2	  0	2.94293	  1	0.70000	  1	 24	 64	 51	  0	
15-Apr-2013	sub2312	2312	  2	  0	145	  4	  2	  3	  3	  5	  1	  1	  1	0.60818	  1	0.80000	  0	 23	 62	 63	  0	
15-Apr-2013	sub2312	2312	  2	  0	146	  4	  2	  5	  1	  5	  0	  2	  1	0.52930	  0	0.80000	  0	 25	 87	 68	  0	
15-Apr-2013	sub2312	2312	  2	  0	147	  4	  2	  4	  6	  5	  0	  2	  0	0.63757	  1	0.80000	  0	 24	 64	 89	  0	
15-Apr-2013	sub2312	2312	  2	  0	148	  4	  2	  4	  6	  5	  1	  2	  1	0.54436	  1	0.80000	  0	 24	 62	 63	  0	
15-Apr-2013	sub2312	2312	  2	  0	149	  4	  2	  5	  1	  5	  0	  2	  1	0.51353	  0	0.80000	  0	 25	 87	 68	  0	
15-Apr-2013	sub2312	2312	  2	  0	150	  4	  2	  4	  6	  5	  1	  2	  1	0.54782	  1	0.80000	  0	 24	 62	 63	  0	
15-Apr-2013	sub2312	2312	  2	  0	  1	  5	  1	  2	  5	  4	  1	  2	  1	0.62307	  1	0.60000	  1	 12	 30	 51	  0	
15-Apr-2013	sub2312	2312	  2	  0	  2	  5	  1	  6	  3	  4	  1	  1	  0	0.53499	  0	0.90000	  0	 16	 45	 46	  0	
15-Apr-2013	sub2312	2312	  2	  0	  3	  5	  1	  3	  1	  3	  1	  2	  0	0.51315	  0	0.90000	  0	 13	 42	 43	  0	
15-Apr-2013	sub2312	2312	  2	  0	  4	  5	  1	  1	  6	  4	  1	  1	  1	0.44110	  1	0.90000	  0	 11	 30	 31	  1	
15-Apr-2013	sub2312	2312	  2	  0	  5	  5	  1	  2	  5	  4	  1	  2	  1	0.44184	  1	0.90000	  0	 12	 30	 31	  1	
15-Apr-2013	sub2312	2312	  2	  0	  6	  5	  1	  2	  5	  4	  1	  2	  1	0.46256	  1	0.90000	  0	 12	 30	 31	  1	
15-Apr-2013	sub2312	2312	  2	  0	  7	  5	  1	  2	  5	  4	  1	  2	  1	0.41612	  1	0.90000	  0	 12	 30	 31	  1	
15-Apr-2013	sub2312	2312	  2	  0	  8	  5	  1	  6	  3	  4	  1	  1	  0	0.43538	  0	0.90000	  0	 16	 45	 46	  1	
15-Apr-2013	sub2312	2312	  2	  0	  9	  5	  1	  3	  1	  3	  1	  2	  0	0.56138	  0	0.90000	  0	 13	 42	 43	  0	
15-Apr-2013	sub2312	2312	  2	  0	 10	  5	  1	  5	  4	  2	  1	  2	  0	0.51768	  0	0.90000	  0	 15	 45	 46	  0	
15-Apr-2013	sub2312	2312	  2	  0	 11	  5	  1	  5	  4	  2	  0	  2	  1	0.47247	  0	0.90000	  0	 15	 47	 38	  1	
15-Apr-2013	sub2312	2312	  2	  0	 12	  5	  1	  3	  1	  3	  1	  2	  0	0.63344	  0	0.90000	  0	 13	 42	 43	  0	
15-Apr-2013	sub2312	2312	  2	  0	 13	  5	  1	  5	  4	  2	  0	  2	  1	0.54555	  0	0.90000	  0	 15	 47	 38	  0	
15-Apr-2013	sub2312	2312	  2	  0	 14	  5	  1	  2	  5	  4	  1	  2	  1	0.59751	  1	0.90000	  0	 12	 30	 31	  0	
15-Apr-2013	sub2312	2312	  2	  0	 15	  5	  1	  4	  2	  4	  1	  2	  1	0.61287	  1	0.90000	  0	 14	 32	 33	  0	
15-Apr-2013	sub2312	2312	  2	  0	 16	  5	  1	  1	  6	  4	  1	  1	  1	0.41690	  1	0.80000	  0	 11	 30	 31	  1	
15-Apr-2013	sub2312	2312	  2	  0	 17	  5	  1	  6	  3	  4	  1	  1	  0	0.57190	  0	0.80000	  0	 16	 45	 46	  0	
15-Apr-2013	sub2312	2312	  2	  0	 18	  5	  1	  2	  5	  4	  1	  2	  1	0.48399	  1	0.70000	  0	 12	 30	 31	  1	
15-Apr-2013	sub2312	2312	  2	  0	 19	  5	  1	  6	  3	  4	  0	  1	  1	0.47881	  0	0.70000	  0	 16	 47	 38	  1	
15-Apr-2013	sub2312	2312	  2	  0	 20	  5	  1	  1	  6	  4	  1	  1	  1	0.54378	  1	0.70000	  0	 11	 30	 31	  0	
15-Apr-2013	sub2312	2312	  2	  0	 21	  5	  1	  1	  6	  4	  1	  2	  0	0.58701	  0	0.60000	  0	 11	 40	 41	  0	
15-Apr-2013	sub2312	2312	  2	  0	 22	  5	  1	  6	  3	  4	  0	  1	  1	0.46192	  0	0.60000	  0	 16	 47	 38	  1	
15-Apr-2013	sub2312	2312	  2	  0	 23	  5	  1	  6	  3	  4	  1	  1	  0	0.43721	  0	0.60000	  0	 16	 45	 46	  1	
15-Apr-2013	sub2312	2312	  2	  0	 24	  5	  1	  4	  2	  4	  1	  2	  1	0.45955	  1	0.60000	  0	 14	 32	 33	  1	
15-Apr-2013	sub2312	2312	  2	  0	 25	  5	  1	  3	  1	  3	  1	  2	  0	1.03879	  0	0.60000	  1	 13	 42	 51	  0	
15-Apr-2013	sub2312	2312	  2	  0	 26	  5	  1	  3	  1	  3	  1	  2	  0	0.40099	  0	0.90000	  0	 13	 42	 43	  1	
15-Apr-2013	sub2312	2312	  2	  0	 27	  5	  1	  2	  5	  4	  1	  1	  0	0.30330	  0	0.90000	  0	 12	 40	 41	  1	
15-Apr-2013	sub2312	2312	  2	  0	 28	  5	  1	  4	  2	  4	  1	  2	  1	0.50939	  1	0.90000	  0	 14	 32	 33	  0	
15-Apr-2013	sub2312	2312	  2	  0	 29	  5	  1	  6	  3	  4	  1	  1	  0	0.44317	  0	0.90000	  0	 16	 45	 46	  1	
15-Apr-2013	sub2312	2312	  2	  0	 30	  5	  1	  1	  6	  4	  1	  2	  0	0.39026	  0	0.80000	  0	 11	 40	 41	  1	
15-Apr-2013	sub2312	2312	  2	  0	 31	  5	  1	  2	  5	  4	  1	  2	  1	0.38281	  1	0.80000	  0	 12	 30	 31	  1	
15-Apr-2013	sub2312	2312	  2	  0	 32	  5	  1	  4	  2	  4	  0	  2	  0	0.44963	  1	0.80000	  0	 14	 34	 49	  1	
15-Apr-2013	sub2312	2312	  2	  0	 33	  5	  1	  1	  6	  4	  1	  2	  0	0.34972	  0	0.80000	  0	 11	 40	 41	  1	
15-Apr-2013	sub2312	2312	  2	  0	 34	  5	  1	  5	  4	  2	  1	  2	  0	0.44503	  0	0.80000	  0	 15	 45	 46	  1	
15-Apr-2013	sub2312	2312	  2	  0	 35	  5	  1	  1	  6	  4	  1	  1	  1	0.37854	  1	0.70000	  0	 11	 30	 31	  1	
15-Apr-2013	sub2312	2312	  2	  0	 36	  5	  1	  6	  3	  4	  0	  1	  1	0.54371	  0	0.70000	  0	 16	 47	 38	  0	
15-Apr-2013	sub2312	2312	  2	  0	 37	  5	  1	  4	  2	  4	  1	  2	  1	0.33173	  1	0.70000	  0	 14	 32	 33	  1	
15-Apr-2013	sub2312	2312	  2	  0	 38	  5	  1	  3	  1	  3	  1	  1	  1	0.67581	  1	0.70000	  0	 13	 32	 33	  0	
15-Apr-2013	sub2312	2312	  2	  0	 39	  5	  1	  1	  6	  4	  1	  1	  1	0.51105	  1	0.70000	  0	 11	 30	 31	  0	
15-Apr-2013	sub2312	2312	  2	  0	 40	  5	  1	  5	  4	  2	  0	  2	  1	0.38314	  0	0.70000	  0	 15	 47	 38	  1	
15-Apr-2013	sub2312	2312	  2	  0	 41	  5	  1	  2	  5	  4	  1	  2	  1	0.42998	  1	0.60000	  0	 12	 30	 31	  1	
15-Apr-2013	sub2312	2312	  2	  0	 42	  5	  1	  1	  6	  4	  1	  1	  1	0.38816	  1	0.60000	  0	 11	 30	 31	  1	
15-Apr-2013	sub2312	2312	  2	  0	 43	  5	  1	  4	  2	  4	  1	  2	  1	0.42561	  1	0.60000	  0	 14	 32	 33	  1	
15-Apr-2013	sub2312	2312	  2	  0	 44	  5	  1	  2	  5	  4	  1	  2	  1	0.41950	  1	0.60000	  0	 12	 30	 31	  1	
15-Apr-2013	sub2312	2312	  2	  0	 45	  5	  1	  1	  6	  4	  1	  1	  1	0.45695	  1	0.60000	  0	 11	 30	 31	  1	
15-Apr-2013	sub2312	2312	  2	  0	 46	  5	  1	  5	  4	  2	  1	  2	  0	0.49931	  0	0.60000	  0	 15	 45	 46	  1	
15-Apr-2013	sub2312	2312	  2	  0	 47	  5	  1	  3	  1	  3	  0	  1	  0	0.57312	  1	0.60000	  0	 13	 34	 49	  0	
15-Apr-2013	sub2312	2312	  2	  0	 48	  5	  1	  5	  4	  2	  1	  2	  0	0.44885	  0	0.60000	  0	 15	 45	 46	  1	
15-Apr-2013	sub2312	2312	  2	  0	 49	  5	  1	  3	  1	  3	  1	  1	  1	0.56280	  1	0.60000	  0	 13	 32	 33	  0	
15-Apr-2013	sub2312	2312	  2	  0	 50	  5	  1	  4	  2	  4	  1	  2	  1	0.51479	  1	0.60000	  0	 14	 32	 33	  0	
15-Apr-2013	sub2312	2312	  2	  0	 51	  5	  1	  4	  2	  4	  1	  2	  1	0.43500	  1	0.50000	  0	 14	 32	 33	  1	
15-Apr-2013	sub2312	2312	  2	  0	 52	  5	  1	  2	  5	  4	  1	  2	  1	0.54101	  1	0.50000	  1	 12	 30	 51	  0	
15-Apr-2013	sub2312	2312	  2	  0	 53	  5	  1	  3	  1	  3	  1	  2	  0	0.36623	  0	0.70000	  0	 13	 42	 43	  1	
15-Apr-2013	sub2312	2312	  2	  0	 54	  5	  1	  1	  6	  4	  1	  1	  1	0.46754	  1	0.70000	  0	 11	 30	 31	  1	
15-Apr-2013	sub2312	2312	  2	  0	 55	  5	  1	  6	  3	  4	  1	  1	  0	0.57669	  0	0.70000	  0	 16	 45	 46	  0	
15-Apr-2013	sub2312	2312	  2	  0	 56	  5	  1	  3	  1	  3	  1	  1	  1	0.72102	  1	0.70000	  1	 13	 32	 51	  0	
15-Apr-2013	sub2312	2312	  2	  0	 57	  5	  1	  6	  3	  4	  1	  1	  0	0.50116	  0	0.90000	  0	 16	 45	 46	  0	
15-Apr-2013	sub2312	2312	  2	  0	 58	  5	  1	  5	  4	  2	  0	  2	  1	0.47443	  0	0.90000	  0	 15	 47	 38	  1	
15-Apr-2013	sub2312	2312	  2	  0	 59	  5	  1	  4	  2	  4	  1	  2	  1	0.47446	  1	0.80000	  0	 14	 32	 33	  1	
15-Apr-2013	sub2312	2312	  2	  0	 60	  5	  1	  2	  5	  4	  1	  2	  1	0.52641	  1	0.80000	  0	 12	 30	 31	  0	
15-Apr-2013	sub2312	2312	  2	  0	 61	  5	  1	  5	  4	  2	  1	  2	  0	0.36056	  0	0.80000	  0	 15	 45	 46	  1	
15-Apr-2013	sub2312	2312	  2	  0	 62	  5	  1	  6	  3	  4	  0	  2	  0	1.65409	  1	0.80000	  1	 16	 37	 51	  0	
15-Apr-2013	sub2312	2312	  2	  0	 63	  5	  1	  5	  4	  2	  0	  2	  1	0.51885	  0	0.90000	  0	 15	 47	 38	  0	
15-Apr-2013	sub2312	2312	  2	  0	 64	  5	  1	  4	  2	  4	  1	  2	  1	0.44526	  1	0.90000	  0	 14	 32	 33	  1	
15-Apr-2013	sub2312	2312	  2	  0	 65	  5	  1	  5	  4	  2	  0	  2	  1	0.46010	  0	0.90000	  0	 15	 47	 38	  1	
15-Apr-2013	sub2312	2312	  2	  0	 66	  5	  1	  6	  3	  4	  0	  1	  1	0.47872	  0	0.90000	  0	 16	 47	 38	  1	
15-Apr-2013	sub2312	2312	  2	  0	 67	  5	  1	  6	  3	  4	  0	  1	  1	0.56961	  0	0.90000	  0	 16	 47	 38	  0	
15-Apr-2013	sub2312	2312	  2	  0	 68	  5	  1	  4	  2	  4	  1	  2	  1	0.46139	  1	0.90000	  0	 14	 32	 33	  1	
15-Apr-2013	sub2312	2312	  2	  0	 69	  5	  1	  1	  6	  4	  1	  1	  1	0.53737	  1	0.90000	  0	 11	 30	 31	  0	
15-Apr-2013	sub2312	2312	  2	  0	 70	  5	  1	  3	  1	  3	  0	  2	  1	0.42494	  0	0.90000	  0	 13	 44	 39	  1	
15-Apr-2013	sub2312	2312	  2	  0	 71	  5	  1	  3	  1	  3	  1	  2	  0	0.34451	  0	0.90000	  0	 13	 42	 43	  1	
15-Apr-2013	sub2312	2312	  2	  0	 72	  5	  1	  2	  5	  4	  1	  2	  1	0.52252	  1	0.90000	  0	 12	 30	 31	  0	
15-Apr-2013	sub2312	2312	  2	  0	 73	  5	  1	  5	  4	  2	  1	  2	  0	0.56298	  0	0.80000	  0	 15	 45	 46	  0	
15-Apr-2013	sub2312	2312	  2	  0	 74	  5	  1	  4	  2	  4	  0	  2	  0	0.49114	  1	0.80000	  0	 14	 34	 49	  1	
15-Apr-2013	sub2312	2312	  2	  0	 75	  5	  1	  3	  1	  3	  0	  2	  1	0.48859	  0	0.80000	  0	 13	 44	 39	  1	
15-Apr-2013	sub2312	2312	  2	  0	 76	  5	  2	  3	  1	  3	  1	  2	  0	0.53317	  0	0.80000	  0	 23	 82	 83	  0	
15-Apr-2013	sub2312	2312	  2	  0	 77	  5	  2	  5	  4	  2	  0	  2	  1	0.42412	  0	0.80000	  0	 25	 87	 68	  1	
15-Apr-2013	sub2312	2312	  2	  0	 78	  5	  2	  3	  1	  3	  0	  2	  1	0.46587	  0	0.80000	  0	 23	 84	 69	  1	
15-Apr-2013	sub2312	2312	  2	  0	 79	  5	  2	  1	  6	  4	  1	  2	  0	0.48301	  0	0.80000	  0	 21	 80	 81	  1	
15-Apr-2013	sub2312	2312	  2	  0	 80	  5	  2	  4	  2	  4	  0	  2	  0	0.43363	  1	0.80000	  0	 24	 64	 89	  1	
15-Apr-2013	sub2312	2312	  2	  0	 81	  5	  2	  2	  5	  4	  1	  2	  1	0.42337	  1	0.80000	  0	 22	 60	 61	  1	
15-Apr-2013	sub2312	2312	  2	  0	 82	  5	  2	  2	  5	  4	  1	  2	  1	0.37645	  1	0.80000	  0	 22	 60	 61	  1	
15-Apr-2013	sub2312	2312	  2	  0	 83	  5	  2	  5	  4	  2	  0	  2	  1	0.38910	  0	0.80000	  0	 25	 87	 68	  1	
15-Apr-2013	sub2312	2312	  2	  0	 84	  5	  2	  4	  2	  4	  1	  2	  1	0.52442	  1	0.80000	  0	 24	 62	 63	  0	
15-Apr-2013	sub2312	2312	  2	  0	 85	  5	  2	  5	  4	  2	  0	  2	  1	0.38685	  0	0.70000	  0	 25	 87	 68	  1	
15-Apr-2013	sub2312	2312	  2	  0	 86	  5	  2	  3	  1	  3	  0	  2	  1	0.47288	  0	0.70000	  0	 23	 84	 69	  1	
15-Apr-2013	sub2312	2312	  2	  0	 87	  5	  2	  3	  1	  3	  1	  2	  0	0.40447	  0	0.70000	  0	 23	 82	 83	  1	
15-Apr-2013	sub2312	2312	  2	  0	 88	  5	  2	  1	  6	  4	  1	  1	  1	0.45327	  1	0.70000	  0	 21	 60	 61	  1	
15-Apr-2013	sub2312	2312	  2	  0	 89	  5	  2	  4	  2	  4	  0	  2	  0	0.46298	  1	0.70000	  0	 24	 64	 89	  1	
15-Apr-2013	sub2312	2312	  2	  0	 90	  5	  2	  3	  1	  3	  1	  1	  1	0.57771	  1	0.70000	  0	 23	 62	 63	  0	
15-Apr-2013	sub2312	2312	  2	  0	 91	  5	  2	  6	  3	  4	  0	  2	  0	0.62272	  1	0.70000	  0	 26	 67	 88	  0	
15-Apr-2013	sub2312	2312	  2	  0	 92	  5	  2	  6	  3	  4	  1	  2	  1	0.42255	  1	0.70000	  0	 26	 65	 66	  1	
15-Apr-2013	sub2312	2312	  2	  0	 93	  5	  2	  4	  2	  4	  1	  2	  1	0.51612	  1	0.70000	  0	 24	 62	 63	  0	
15-Apr-2013	sub2312	2312	  2	  0	 94	  5	  2	  6	  3	  4	  0	  2	  0	0.46445	  1	0.70000	  0	 26	 67	 88	  1	
15-Apr-2013	sub2312	2312	  2	  0	 95	  5	  2	  2	  5	  4	  1	  2	  1	0.46972	  1	0.70000	  0	 22	 60	 61	  1	
15-Apr-2013	sub2312	2312	  2	  0	 96	  5	  2	  2	  5	  4	  1	  2	  1	0.47178	  1	0.70000	  0	 22	 60	 61	  1	
15-Apr-2013	sub2312	2312	  2	  0	 97	  5	  2	  4	  2	  4	  1	  2	  1	0.45513	  1	0.70000	  0	 24	 62	 63	  1	
15-Apr-2013	sub2312	2312	  2	  0	 98	  5	  2	  3	  1	  3	  1	  2	  0	0.55628	  0	0.70000	  0	 23	 82	 83	  0	
15-Apr-2013	sub2312	2312	  2	  0	 99	  5	  2	  6	  3	  4	  1	  1	  0	1.08638	  0	0.70000	  1	 26	 85	 51	  0	
15-Apr-2013	sub2312	2312	  2	  0	100	  5	  2	  4	  2	  4	  1	  2	  1	0.39467	  1	0.80000	  0	 24	 62	 63	  1	
15-Apr-2013	sub2312	2312	  2	  0	101	  5	  2	  1	  6	  4	  1	  2	  0	0.48507	  0	0.70000	  0	 21	 80	 81	  1	
15-Apr-2013	sub2312	2312	  2	  0	102	  5	  2	  1	  6	  4	  1	  1	  1	0.43776	  1	0.70000	  0	 21	 60	 61	  1	
15-Apr-2013	sub2312	2312	  2	  0	103	  5	  2	  1	  6	  4	  1	  1	  1	0.36689	  1	0.70000	  0	 21	 60	 61	  1	
15-Apr-2013	sub2312	2312	  2	  0	104	  5	  2	  6	  3	  4	  0	  2	  0	0.50869	  1	0.70000	  0	 26	 67	 88	  0	
15-Apr-2013	sub2312	2312	  2	  0	105	  5	  2	  5	  4	  2	  0	  2	  1	0.42574	  0	0.70000	  0	 25	 87	 68	  1	
15-Apr-2013	sub2312	2312	  2	  0	106	  5	  2	  6	  3	  4	  0	  2	  0	0.54930	  1	0.70000	  0	 26	 67	 88	  0	
15-Apr-2013	sub2312	2312	  2	  0	107	  5	  2	  3	  1	  3	  1	  2	  0	0.47911	  0	0.70000	  0	 23	 82	 83	  1	
15-Apr-2013	sub2312	2312	  2	  0	108	  5	  2	  2	  5	  4	  1	  2	  1	0.49001	  1	0.70000	  0	 22	 60	 61	  1	
15-Apr-2013	sub2312	2312	  2	  0	109	  5	  2	  3	  1	  3	  1	  2	  0	0.44133	  0	0.70000	  0	 23	 82	 83	  1	
15-Apr-2013	sub2312	2312	  2	  0	110	  5	  2	  2	  5	  4	  1	  2	  1	0.64392	  1	0.70000	  0	 22	 60	 61	  0	
15-Apr-2013	sub2312	2312	  2	  0	111	  5	  2	  2	  5	  4	  1	  2	  1	0.39957	  1	0.70000	  0	 22	 60	 61	  1	
15-Apr-2013	sub2312	2312	  2	  0	112	  5	  2	  1	  6	  4	  1	  1	  1	0.95583	  1	0.70000	  1	 21	 60	 51	  0	
15-Apr-2013	sub2312	2312	  2	  0	113	  5	  2	  3	  1	  3	  1	  2	  0	0.48331	  0	0.80000	  0	 23	 82	 83	  1	
15-Apr-2013	sub2312	2312	  2	  0	114	  5	  2	  5	  4	  2	  0	  2	  1	0.46667	  0	0.80000	  0	 25	 87	 68	  1	
15-Apr-2013	sub2312	2312	  2	  0	115	  5	  2	  6	  3	  4	  1	  1	  0	0.54765	  0	0.80000	  0	 26	 85	 86	  0	
15-Apr-2013	sub2312	2312	  2	  0	116	  5	  2	  4	  2	  4	  1	  2	  1	0.43288	  1	0.80000	  0	 24	 62	 63	  1	
15-Apr-2013	sub2312	2312	  2	  0	117	  5	  2	  6	  3	  4	  0	  2	  0	0.52704	  1	0.80000	  0	 26	 67	 88	  0	
15-Apr-2013	sub2312	2312	  2	  0	118	  5	  2	  2	  5	  4	  1	  2	  1	0.49499	  1	0.70000	  0	 22	 60	 61	  1	
15-Apr-2013	sub2312	2312	  2	  0	119	  5	  2	  6	  3	  4	  1	  2	  1	0.54643	  1	0.70000	  0	 26	 65	 66	  0	
15-Apr-2013	sub2312	2312	  2	  0	120	  5	  2	  5	  4	  2	  0	  2	  1	0.51189	  0	0.70000	  0	 25	 87	 68	  0	
15-Apr-2013	sub2312	2312	  2	  0	121	  5	  2	  4	  2	  4	  1	  2	  1	0.48396	  1	0.70000	  0	 24	 62	 63	  1	
15-Apr-2013	sub2312	2312	  2	  0	122	  5	  2	  4	  2	  4	  1	  2	  1	0.44028	  1	0.70000	  0	 24	 62	 63	  1	
15-Apr-2013	sub2312	2312	  2	  0	123	  5	  2	  5	  4	  2	  0	  2	  1	0.46168	  0	0.70000	  0	 25	 87	 68	  1	
15-Apr-2013	sub2312	2312	  2	  0	124	  5	  2	  4	  2	  4	  0	  2	  0	0.44696	  1	0.70000	  0	 24	 64	 89	  1	
15-Apr-2013	sub2312	2312	  2	  0	125	  5	  2	  6	  3	  4	  1	  2	  1	0.59224	  1	0.70000	  0	 26	 65	 66	  0	
15-Apr-2013	sub2312	2312	  2	  0	126	  5	  2	  5	  4	  2	  0	  2	  1	0.43594	  0	0.70000	  0	 25	 87	 68	  1	
15-Apr-2013	sub2312	2312	  2	  0	127	  5	  2	  4	  2	  4	  1	  2	  1	0.45684	  1	0.70000	  0	 24	 62	 63	  1	
15-Apr-2013	sub2312	2312	  2	  0	128	  5	  2	  5	  4	  2	  0	  2	  1	0.42251	  0	0.70000	  0	 25	 87	 68	  1	
15-Apr-2013	sub2312	2312	  2	  0	129	  5	  2	  5	  4	  2	  0	  2	  1	0.43451	  0	0.70000	  0	 25	 87	 68	  1	
15-Apr-2013	sub2312	2312	  2	  0	130	  5	  2	  1	  6	  4	  1	  2	  0	0.50547	  0	0.70000	  0	 21	 80	 81	  0	
15-Apr-2013	sub2312	2312	  2	  0	131	  5	  2	  1	  6	  4	  1	  1	  1	0.58158	  1	0.70000	  0	 21	 60	 61	  0	
15-Apr-2013	sub2312	2312	  2	  0	132	  5	  2	  3	  1	  3	  1	  2	  0	0.50801	  0	0.70000	  0	 23	 82	 83	  0	
15-Apr-2013	sub2312	2312	  2	  0	133	  5	  2	  5	  4	  2	  0	  2	  1	0.54828	  0	0.70000	  0	 25	 87	 68	  0	
15-Apr-2013	sub2312	2312	  2	  0	134	  5	  2	  1	  6	  4	  1	  1	  1	0.59665	  1	0.70000	  0	 21	 60	 61	  0	
15-Apr-2013	sub2312	2312	  2	  0	135	  5	  2	  2	  5	  4	  1	  2	  1	0.45210	  1	0.70000	  0	 22	 60	 61	  1	
15-Apr-2013	sub2312	2312	  2	  0	136	  5	  2	  1	  6	  4	  1	  1	  1	0.52695	  1	0.70000	  0	 21	 60	 61	  0	
15-Apr-2013	sub2312	2312	  2	  0	137	  5	  2	  4	  2	  4	  1	  2	  1	0.50687	  1	0.70000	  0	 24	 62	 63	  0	
15-Apr-2013	sub2312	2312	  2	  0	138	  5	  2	  1	  6	  4	  1	  1	  1	0.85216	  1	0.70000	  1	 21	 60	 51	  0	
15-Apr-2013	sub2312	2312	  2	  0	139	  5	  2	  5	  4	  2	  0	  2	  1	0.47488	  0	0.70000	  0	 25	 87	 68	  1	
15-Apr-2013	sub2312	2312	  2	  0	140	  5	  2	  4	  2	  4	  1	  2	  1	0.43917	  1	0.70000	  0	 24	 62	 63	  1	
15-Apr-2013	sub2312	2312	  2	  0	141	  5	  2	  1	  6	  4	  1	  1	  1	0.41399	  1	0.70000	  0	 21	 60	 61	  1	
15-Apr-2013	sub2312	2312	  2	  0	142	  5	  2	  5	  4	  2	  0	  2	  1	0.45302	  0	0.70000	  0	 25	 87	 68	  1	
15-Apr-2013	sub2312	2312	  2	  0	143	  5	  2	  3	  1	  3	  1	  2	  0	0.61871	  0	0.70000	  0	 23	 82	 83	  0	
15-Apr-2013	sub2312	2312	  2	  0	144	  5	  2	  2	  5	  4	  1	  2	  1	0.45079	  1	0.70000	  0	 22	 60	 61	  1	
15-Apr-2013	sub2312	2312	  2	  0	145	  5	  2	  2	  5	  4	  1	  2	  1	0.43956	  1	0.70000	  0	 22	 60	 61	  1	
15-Apr-2013	sub2312	2312	  2	  0	146	  5	  2	  2	  5	  4	  1	  2	  1	0.41202	  1	0.70000	  0	 22	 60	 61	  1	
15-Apr-2013	sub2312	2312	  2	  0	147	  5	  2	  3	  1	  3	  1	  2	  0	0.63763	  0	0.70000	  0	 23	 82	 83	  0	
15-Apr-2013	sub2312	2312	  2	  0	148	  5	  2	  6	  3	  4	  0	  1	  1	0.69108	  0	0.70000	  0	 26	 87	 68	  0	
15-Apr-2013	sub2312	2312	  2	  0	149	  5	  2	  1	  6	  4	  1	  1	  1	0.64947	  1	0.70000	  0	 21	 60	 61	  0	
15-Apr-2013	sub2312	2312	  2	  0	150	  5	  2	  6	  3	  4	  1	  2	  1	0.63732	  1	0.70000	  0	 26	 65	 66	  0	
15-Apr-2013	sub2312	2312	  2	  0	  1	  6	  1	  4	  6	  2	  1	  1	  0	0.66047	  0	0.60000	  1	 14	 42	 51	  0	
15-Apr-2013	sub2312	2312	  2	  0	  2	  6	  1	  4	  6	  2	  1	  1	  0	0.39075	  0	0.90000	  0	 14	 42	 43	  1	
15-Apr-2013	sub2312	2312	  2	  0	  3	  6	  1	  4	  6	  2	  1	  2	  1	0.50122	  1	0.90000	  0	 14	 32	 33	  0	
15-Apr-2013	sub2312	2312	  2	  0	  4	  6	  1	  1	  1	  2	  1	  2	  0	0.79029	  0	0.90000	  0	 11	 40	 41	  0	
15-Apr-2013	sub2312	2312	  2	  0	  5	  6	  1	  4	  6	  2	  0	  2	  0	0.56861	  1	0.90000	  0	 14	 34	 49	  0	
15-Apr-2013	sub2312	2312	  2	  0	  6	  6	  1	  6	  3	  2	  0	  1	  1	0.99320	  0	0.90000	  1	 16	 47	 51	  0	
15-Apr-2013	sub2312	2312	  2	  0	  7	  6	  1	  5	  5	  2	  1	  2	  0	0.50739	  0	0.90000	  0	 15	 45	 46	  0	
15-Apr-2013	sub2312	2312	  2	  0	  8	  6	  1	  1	  1	  2	  1	  1	  1	0.51726	  1	0.90000	  0	 11	 30	 31	  0	
15-Apr-2013	sub2312	2312	  2	  0	  9	  6	  1	  4	  6	  2	  1	  1	  0	0.55547	  0	0.90000	  0	 14	 42	 43	  0	
15-Apr-2013	sub2312	2312	  2	  0	 10	  6	  1	  4	  6	  2	  1	  2	  1	0.45333	  1	0.90000	  0	 14	 32	 33	  1	
15-Apr-2013	sub2312	2312	  2	  0	 11	  6	  1	  5	  5	  2	  1	  2	  0	0.55936	  0	0.90000	  0	 15	 45	 46	  0	
15-Apr-2013	sub2312	2312	  2	  0	 12	  6	  1	  4	  6	  2	  0	  1	  1	0.47968	  0	0.90000	  0	 14	 44	 39	  1	
15-Apr-2013	sub2312	2312	  2	  0	 13	  6	  1	  2	  4	  4	  1	  2	  1	0.55683	  1	0.90000	  0	 12	 30	 31	  0	
15-Apr-2013	sub2312	2312	  2	  0	 14	  6	  1	  2	  4	  4	  1	  2	  1	0.45613	  1	0.90000	  0	 12	 30	 31	  1	
15-Apr-2013	sub2312	2312	  2	  0	 15	  6	  1	  6	  3	  2	  1	  2	  1	0.59392	  1	0.90000	  0	 16	 35	 36	  0	
15-Apr-2013	sub2312	2312	  2	  0	 16	  6	  1	  5	  5	  2	  0	  2	  1	0.55056	  0	0.90000	  0	 15	 47	 38	  0	
15-Apr-2013	sub2312	2312	  2	  0	 17	  6	  1	  3	  2	  2	  1	  2	  0	0.45887	  0	0.90000	  0	 13	 42	 43	  1	
15-Apr-2013	sub2312	2312	  2	  0	 18	  6	  1	  1	  1	  2	  1	  2	  0	0.50793	  0	0.90000	  0	 11	 40	 41	  0	
15-Apr-2013	sub2312	2312	  2	  0	 19	  6	  1	  3	  2	  2	  0	  2	  1	0.48354	  0	0.90000	  0	 13	 44	 39	  1	
15-Apr-2013	sub2312	2312	  2	  0	 20	  6	  1	  1	  1	  2	  1	  1	  1	0.46692	  1	0.90000	  0	 11	 30	 31	  1	
15-Apr-2013	sub2312	2312	  2	  0	 21	  6	  1	  5	  5	  2	  0	  2	  1	0.55465	  0	0.90000	  0	 15	 47	 38	  0	
15-Apr-2013	sub2312	2312	  2	  0	 22	  6	  1	  1	  1	  2	  1	  2	  0	0.42852	  0	0.90000	  0	 11	 40	 41	  1	
15-Apr-2013	sub2312	2312	  2	  0	 23	  6	  1	  5	  5	  2	  1	  2	  0	0.49220	  0	0.90000	  0	 15	 45	 46	  1	
15-Apr-2013	sub2312	2312	  2	  0	 24	  6	  1	  5	  5	  2	  1	  2	  0	0.53288	  0	0.90000	  0	 15	 45	 46	  0	
15-Apr-2013	sub2312	2312	  2	  0	 25	  6	  1	  3	  2	  2	  1	  2	  0	0.51517	  0	0.90000	  0	 13	 42	 43	  0	
15-Apr-2013	sub2312	2312	  2	  0	 26	  6	  1	  1	  1	  2	  1	  1	  1	0.40264	  1	0.90000	  0	 11	 30	 31	  1	
15-Apr-2013	sub2312	2312	  2	  0	 27	  6	  1	  5	  5	  2	  1	  2	  0	0.56225	  0	0.90000	  0	 15	 45	 46	  0	
15-Apr-2013	sub2312	2312	  2	  0	 28	  6	  1	  3	  2	  2	  1	  2	  0	0.57504	  0	0.90000	  0	 13	 42	 43	  0	
15-Apr-2013	sub2312	2312	  2	  0	 29	  6	  1	  6	  3	  2	  0	  1	  1	0.50356	  0	0.90000	  0	 16	 47	 38	  0	
15-Apr-2013	sub2312	2312	  2	  0	 30	  6	  1	  3	  2	  2	  1	  1	  1	0.48172	  1	0.80000	  0	 13	 32	 33	  1	
15-Apr-2013	sub2312	2312	  2	  0	 31	  6	  1	  6	  3	  2	  0	  1	  1	0.41348	  0	0.80000	  0	 16	 47	 38	  1	
15-Apr-2013	sub2312	2312	  2	  0	 32	  6	  1	  2	  4	  4	  1	  1	  0	0.27347	  0	0.80000	  0	 12	 40	 41	  1	
15-Apr-2013	sub2312	2312	  2	  0	 33	  6	  1	  3	  2	  2	  1	  1	  1	0.45202	  1	0.80000	  0	 13	 32	 33	  1	
15-Apr-2013	sub2312	2312	  2	  0	 34	  6	  1	  5	  5	  2	  0	  1	  0	0.49499	  1	0.80000	  0	 15	 37	 48	  1	
15-Apr-2013	sub2312	2312	  2	  0	 35	  6	  1	  2	  4	  4	  1	  2	  1	0.65663	  1	0.70000	  0	 12	 30	 31	  0	
15-Apr-2013	sub2312	2312	  2	  0	 36	  6	  1	  3	  2	  2	  1	  1	  1	0.63460	  1	0.70000	  0	 13	 32	 33	  0	
15-Apr-2013	sub2312	2312	  2	  0	 37	  6	  1	  3	  2	  2	  0	  2	  1	0.49866	  0	0.70000	  0	 13	 44	 39	  1	
15-Apr-2013	sub2312	2312	  2	  0	 38	  6	  1	  2	  4	  4	  1	  1	  0	0.40526	  0	0.70000	  0	 12	 40	 41	  1	
15-Apr-2013	sub2312	2312	  2	  0	 39	  6	  1	  3	  2	  2	  1	  1	  1	0.66770	  1	0.70000	  0	 13	 32	 33	  0	
15-Apr-2013	sub2312	2312	  2	  0	 40	  6	  1	  1	  1	  2	  1	  1	  1	0.58756	  1	0.70000	  0	 11	 30	 31	  0	
15-Apr-2013	sub2312	2312	  2	  0	 41	  6	  1	  1	  1	  2	  1	  1	  1	0.43134	  1	0.60000	  0	 11	 30	 31	  1	
15-Apr-2013	sub2312	2312	  2	  0	 42	  6	  1	  3	  2	  2	  1	  1	  1	0.49795	  1	0.60000	  0	 13	 32	 33	  1	
15-Apr-2013	sub2312	2312	  2	  0	 43	  6	  1	  6	  3	  2	  0	  1	  1	0.52176	  0	0.60000	  0	 16	 47	 38	  0	
15-Apr-2013	sub2312	2312	  2	  0	 44	  6	  1	  2	  4	  4	  1	  2	  1	0.46001	  1	0.60000	  0	 12	 30	 31	  1	
15-Apr-2013	sub2312	2312	  2	  0	 45	  6	  1	  6	  3	  2	  1	  1	  0	0.49276	  0	0.60000	  0	 16	 45	 46	  1	
15-Apr-2013	sub2312	2312	  2	  0	 46	  6	  1	  6	  3	  2	  0	  1	  1	0.35901	  0	0.60000	  0	 16	 47	 38	  1	
15-Apr-2013	sub2312	2312	  2	  0	 47	  6	  1	  4	  6	  2	  1	  1	  0	0.46975	  0	0.60000	  0	 14	 42	 43	  1	
15-Apr-2013	sub2312	2312	  2	  0	 48	  6	  1	  6	  3	  2	  1	  1	  0	0.51846	  0	0.60000	  0	 16	 45	 46	  0	
15-Apr-2013	sub2312	2312	  2	  0	 49	  6	  1	  2	  4	  4	  1	  2	  1	0.61168	  1	0.60000	  1	 12	 30	 51	  0	
15-Apr-2013	sub2312	2312	  2	  0	 50	  6	  1	  2	  4	  4	  1	  2	  1	0.43066	  1	0.80000	  0	 12	 30	 31	  1	
15-Apr-2013	sub2312	2312	  2	  0	 51	  6	  1	  6	  3	  2	  0	  2	  0	0.58485	  1	0.70000	  0	 16	 37	 48	  0	
15-Apr-2013	sub2312	2312	  2	  0	 52	  6	  1	  5	  5	  2	  0	  1	  0	0.74894	  1	0.70000	  1	 15	 37	 51	  0	
15-Apr-2013	sub2312	2312	  2	  0	 53	  6	  1	  1	  1	  2	  1	  1	  1	0.50219	  1	0.90000	  0	 11	 30	 31	  0	
15-Apr-2013	sub2312	2312	  2	  0	 54	  6	  1	  3	  2	  2	  1	  1	  1	0.51634	  1	0.90000	  0	 13	 32	 33	  0	
15-Apr-2013	sub2312	2312	  2	  0	 55	  6	  1	  2	  4	  4	  1	  2	  1	0.51733	  1	0.90000	  0	 12	 30	 31	  0	
15-Apr-2013	sub2312	2312	  2	  0	 56	  6	  1	  6	  3	  2	  0	  1	  1	0.63511	  0	0.90000	  0	 16	 47	 38	  0	
15-Apr-2013	sub2312	2312	  2	  0	 57	  6	  1	  1	  1	  2	  1	  1	  1	0.47950	  1	0.90000	  0	 11	 30	 31	  1	
15-Apr-2013	sub2312	2312	  2	  0	 58	  6	  1	  1	  1	  2	  1	  1	  1	0.39560	  1	0.90000	  0	 11	 30	 31	  1	
15-Apr-2013	sub2312	2312	  2	  0	 59	  6	  1	  2	  4	  4	  1	  2	  1	0.50617	  1	0.80000	  0	 12	 30	 31	  0	
15-Apr-2013	sub2312	2312	  2	  0	 60	  6	  1	  4	  6	  2	  1	  1	  0	0.63603	  0	0.80000	  0	 14	 42	 43	  0	
15-Apr-2013	sub2312	2312	  2	  0	 61	  6	  1	  4	  6	  2	  1	  2	  1	0.63379	  1	0.80000	  0	 14	 32	 33	  0	
15-Apr-2013	sub2312	2312	  2	  0	 62	  6	  1	  4	  6	  2	  1	  2	  1	0.48793	  1	0.80000	  0	 14	 32	 33	  1	
15-Apr-2013	sub2312	2312	  2	  0	 63	  6	  1	  3	  2	  2	  1	  2	  0	0.48405	  0	0.80000	  0	 13	 42	 43	  1	
15-Apr-2013	sub2312	2312	  2	  0	 64	  6	  1	  5	  5	  2	  0	  1	  0	0.94959	  1	0.80000	  1	 15	 37	 51	  0	
15-Apr-2013	sub2312	2312	  2	  0	 65	  6	  1	  2	  4	  4	  1	  1	  0	0.49553	  0	0.90000	  0	 12	 40	 41	  1	
15-Apr-2013	sub2312	2312	  2	  0	 66	  6	  1	  2	  4	  4	  1	  2	  1	0.47466	  1	0.90000	  0	 12	 30	 31	  1	
15-Apr-2013	sub2312	2312	  2	  0	 67	  6	  1	  6	  3	  2	  1	  1	  0	0.67196	  0	0.90000	  0	 16	 45	 46	  0	
15-Apr-2013	sub2312	2312	  2	  0	 68	  6	  1	  6	  3	  2	  1	  1	  0	0.36510	  0	0.90000	  0	 16	 45	 46	  1	
15-Apr-2013	sub2312	2312	  2	  0	 69	  6	  1	  4	  6	  2	  1	  2	  1	0.66471	  1	0.90000	  0	 14	 32	 33	  0	
15-Apr-2013	sub2312	2312	  2	  0	 70	  6	  1	  5	  5	  2	  0	  1	  0	0.81392	  1	0.90000	  0	 15	 37	 48	  0	
15-Apr-2013	sub2312	2312	  2	  0	 71	  6	  1	  6	  3	  2	  1	  1	  0	0.49378	  0	0.90000	  0	 16	 45	 46	  1	
15-Apr-2013	sub2312	2312	  2	  0	 72	  6	  1	  5	  5	  2	  1	  2	  0	0.54202	  0	0.90000	  0	 15	 45	 46	  0	
15-Apr-2013	sub2312	2312	  2	  0	 73	  6	  1	  3	  2	  2	  0	  2	  1	0.58775	  0	0.80000	  0	 13	 44	 39	  0	
15-Apr-2013	sub2312	2312	  2	  0	 74	  6	  1	  2	  4	  4	  1	  2	  1	0.68282	  1	0.80000	  0	 12	 30	 31	  0	
15-Apr-2013	sub2312	2312	  2	  0	 75	  6	  1	  1	  1	  2	  1	  1	  1	0.50554	  1	0.80000	  0	 11	 30	 31	  0	
15-Apr-2013	sub2312	2312	  2	  0	 76	  6	  2	  1	  1	  2	  1	  1	  1	0.40521	  1	0.80000	  0	 21	 60	 61	  1	
15-Apr-2013	sub2312	2312	  2	  0	 77	  6	  2	  3	  2	  2	  0	  2	  1	0.46568	  0	0.80000	  0	 23	 84	 69	  1	
15-Apr-2013	sub2312	2312	  2	  0	 78	  6	  2	  6	  3	  2	  1	  1	  0	0.42252	  0	0.80000	  0	 26	 85	 86	  1	
15-Apr-2013	sub2312	2312	  2	  0	 79	  6	  2	  4	  6	  2	  1	  2	  1	0.66695	  1	0.80000	  0	 24	 62	 63	  0	
15-Apr-2013	sub2312	2312	  2	  0	 80	  6	  2	  4	  6	  2	  0	  2	  0	0.48118	  1	0.80000	  0	 24	 64	 89	  1	
15-Apr-2013	sub2312	2312	  2	  0	 81	  6	  2	  4	  6	  2	  1	  2	  1	0.47263	  1	0.80000	  0	 24	 62	 63	  1	
15-Apr-2013	sub2312	2312	  2	  0	 82	  6	  2	  6	  3	  2	  1	  2	  1	0.51529	  1	0.80000	  0	 26	 65	 66	  0	
15-Apr-2013	sub2312	2312	  2	  0	 83	  6	  2	  1	  1	  2	  1	  2	  0	0.51369	  0	0.80000	  0	 21	 80	 81	  0	
15-Apr-2013	sub2312	2312	  2	  0	 84	  6	  2	  5	  5	  2	  0	  2	  1	0.57260	  0	0.80000	  0	 25	 87	 68	  0	
15-Apr-2013	sub2312	2312	  2	  0	 85	  6	  2	  5	  5	  2	  0	  2	  1	0.43743	  0	0.70000	  0	 25	 87	 68	  1	
15-Apr-2013	sub2312	2312	  2	  0	 86	  6	  2	  1	  1	  2	  1	  1	  1	0.54813	  1	0.70000	  0	 21	 60	 61	  0	
15-Apr-2013	sub2312	2312	  2	  0	 87	  6	  2	  1	  1	  2	  1	  1	  1	0.48666	  1	0.70000	  0	 21	 60	 61	  1	
15-Apr-2013	sub2312	2312	  2	  0	 88	  6	  2	  2	  4	  4	  1	  2	  1	0.47901	  1	0.70000	  0	 22	 60	 61	  1	
15-Apr-2013	sub2312	2312	  2	  0	 89	  6	  2	  3	  2	  2	  1	  2	  0	0.59650	  0	0.70000	  0	 23	 82	 83	  0	
15-Apr-2013	sub2312	2312	  2	  0	 90	  6	  2	  6	  3	  2	  1	  1	  0	0.41895	  0	0.70000	  0	 26	 85	 86	  1	
15-Apr-2013	sub2312	2312	  2	  0	 91	  6	  2	  1	  1	  2	  1	  2	  0	0.43987	  0	0.70000	  0	 21	 80	 81	  1	
15-Apr-2013	sub2312	2312	  2	  0	 92	  6	  2	  6	  3	  2	  1	  1	  0	0.43235	  0	0.70000	  0	 26	 85	 86	  1	
15-Apr-2013	sub2312	2312	  2	  0	 93	  6	  2	  5	  5	  2	  0	  2	  1	0.65272	  0	0.70000	  0	 25	 87	 68	  0	
15-Apr-2013	sub2312	2312	  2	  0	 94	  6	  2	  2	  4	  4	  1	  2	  1	0.55543	  1	0.70000	  0	 22	 60	 61	  0	
15-Apr-2013	sub2312	2312	  2	  0	 95	  6	  2	  5	  5	  2	  0	  1	  0	0.48236	  1	0.70000	  0	 25	 67	 88	  1	
15-Apr-2013	sub2312	2312	  2	  0	 96	  6	  2	  4	  6	  2	  1	  2	  1	0.58646	  1	0.70000	  0	 24	 62	 63	  0	
15-Apr-2013	sub2312	2312	  2	  0	 97	  6	  2	  5	  5	  2	  0	  2	  1	0.46672	  0	0.70000	  0	 25	 87	 68	  1	
15-Apr-2013	sub2312	2312	  2	  0	 98	  6	  2	  6	  3	  2	  0	  1	  1	0.53894	  0	0.70000	  0	 26	 87	 68	  0	
15-Apr-2013	sub2312	2312	  2	  0	 99	  6	  2	  3	  2	  2	  1	  2	  0	0.52477	  0	0.70000	  0	 23	 82	 83	  0	
15-Apr-2013	sub2312	2312	  2	  0	100	  6	  2	  3	  2	  2	  1	  2	  0	0.50836	  0	0.70000	  0	 23	 82	 83	  0	
15-Apr-2013	sub2312	2312	  2	  0	101	  6	  2	  2	  4	  4	  1	  1	  0	0.72736	  0	0.60000	  1	 22	 80	 51	  0	
15-Apr-2013	sub2312	2312	  2	  0	102	  6	  2	  6	  3	  2	  0	  1	  1	0.45677	  0	0.70000	  0	 26	 87	 68	  1	
15-Apr-2013	sub2312	2312	  2	  0	103	  6	  2	  6	  3	  2	  0	  1	  1	0.38788	  0	0.70000	  0	 26	 87	 68	  1	
15-Apr-2013	sub2312	2312	  2	  0	104	  6	  2	  2	  4	  4	  1	  2	  1	0.64297	  1	0.70000	  0	 22	 60	 61	  0	
15-Apr-2013	sub2312	2312	  2	  0	105	  6	  2	  6	  3	  2	  0	  1	  1	0.44153	  0	0.70000	  0	 26	 87	 68	  1	
15-Apr-2013	sub2312	2312	  2	  0	106	  6	  2	  2	  4	  4	  1	  2	  1	2.37878	  1	0.70000	  1	 22	 60	 51	  0	
15-Apr-2013	sub2312	2312	  2	  0	107	  6	  2	  3	  2	  2	  1	  1	  1	0.68058	  1	0.80000	  0	 23	 62	 63	  0	
15-Apr-2013	sub2312	2312	  2	  0	108	  6	  2	  1	  1	  2	  1	  1	  1	0.50427	  1	0.80000	  0	 21	 60	 61	  0	
15-Apr-2013	sub2312	2312	  2	  0	109	  6	  2	  4	  6	  2	  0	  1	  1	0.43990	  0	0.80000	  0	 24	 84	 69	  1	
15-Apr-2013	sub2312	2312	  2	  0	110	  6	  2	  5	  5	  2	  0	  2	  1	0.90842	  0	0.80000	  1	 25	 87	 51	  0	
15-Apr-2013	sub2312	2312	  2	  0	111	  6	  2	  1	  1	  2	  1	  1	  1	0.50507	  1	0.90000	  0	 21	 60	 61	  0	
15-Apr-2013	sub2312	2312	  2	  0	112	  6	  2	  6	  3	  2	  1	  1	  0	0.45144	  0	0.90000	  0	 26	 85	 86	  1	
15-Apr-2013	sub2312	2312	  2	  0	113	  6	  2	  2	  4	  4	  1	  2	  1	0.47222	  1	0.90000	  0	 22	 60	 61	  1	
15-Apr-2013	sub2312	2312	  2	  0	114	  6	  2	  2	  4	  4	  1	  2	  1	0.40756	  1	0.90000	  0	 22	 60	 61	  1	
15-Apr-2013	sub2312	2312	  2	  0	115	  6	  2	  4	  6	  2	  1	  2	  1	0.61878	  1	0.90000	  0	 24	 62	 63	  0	
15-Apr-2013	sub2312	2312	  2	  0	116	  6	  2	  6	  3	  2	  1	  2	  1	0.43264	  1	0.80000	  0	 26	 65	 66	  1	
15-Apr-2013	sub2312	2312	  2	  0	117	  6	  2	  5	  5	  2	  0	  2	  1	0.45426	  0	0.80000	  0	 25	 87	 68	  1	
15-Apr-2013	sub2312	2312	  2	  0	118	  6	  2	  4	  6	  2	  0	  2	  0	0.54811	  1	0.80000	  0	 24	 64	 89	  0	
15-Apr-2013	sub2312	2312	  2	  0	119	  6	  2	  2	  4	  4	  1	  2	  1	3.15203	  1	0.80000	  1	 22	 60	 51	  0	
15-Apr-2013	sub2312	2312	  2	  0	120	  6	  2	  3	  2	  2	  1	  2	  0	0.70030	  0	0.90000	  0	 23	 82	 83	  0	
15-Apr-2013	sub2312	2312	  2	  0	121	  6	  2	  4	  6	  2	  1	  2	  1	0.55055	  1	0.90000	  0	 24	 62	 63	  0	
15-Apr-2013	sub2312	2312	  2	  0	122	  6	  2	  1	  1	  2	  1	  2	  0	0.43926	  0	0.90000	  0	 21	 80	 81	  1	
15-Apr-2013	sub2312	2312	  2	  0	123	  6	  2	  1	  1	  2	  1	  1	  1	0.47068	  1	0.90000	  0	 21	 60	 61	  1	
15-Apr-2013	sub2312	2312	  2	  0	124	  6	  2	  4	  6	  2	  1	  2	  1	0.59402	  1	0.90000	  0	 24	 62	 63	  0	
15-Apr-2013	sub2312	2312	  2	  0	125	  6	  2	  5	  5	  2	  0	  2	  1	0.43369	  0	0.90000	  0	 25	 87	 68	  1	
15-Apr-2013	sub2312	2312	  2	  0	126	  6	  2	  5	  5	  2	  0	  2	  1	0.41202	  0	0.90000	  0	 25	 87	 68	  1	
15-Apr-2013	sub2312	2312	  2	  0	127	  6	  2	  3	  2	  2	  1	  2	  0	0.39266	  0	0.90000	  0	 23	 82	 83	  1	
15-Apr-2013	sub2312	2312	  2	  0	128	  6	  2	  4	  6	  2	  1	  1	  0	0.42573	  0	0.90000	  0	 24	 82	 83	  1	
15-Apr-2013	sub2312	2312	  2	  0	129	  6	  2	  2	  4	  4	  1	  2	  1	0.43785	  1	0.90000	  0	 22	 60	 61	  1	
15-Apr-2013	sub2312	2312	  2	  0	130	  6	  2	  2	  4	  4	  1	  2	  1	0.50598	  1	0.80000	  0	 22	 60	 61	  0	
15-Apr-2013	sub2312	2312	  2	  0	131	  6	  2	  6	  3	  2	  0	  1	  1	0.61954	  0	0.80000	  0	 26	 87	 68	  0	
15-Apr-2013	sub2312	2312	  2	  0	132	  6	  2	  4	  6	  2	  1	  2	  1	0.57032	  1	0.80000	  0	 24	 62	 63	  0	
15-Apr-2013	sub2312	2312	  2	  0	133	  6	  2	  4	  6	  2	  1	  2	  1	0.44120	  1	0.80000	  0	 24	 62	 63	  1	
15-Apr-2013	sub2312	2312	  2	  0	134	  6	  2	  5	  5	  2	  0	  2	  1	0.47613	  0	0.80000	  0	 25	 87	 68	  1	
15-Apr-2013	sub2312	2312	  2	  0	135	  6	  2	  1	  1	  2	  1	  1	  1	0.62929	  1	0.80000	  0	 21	 60	 61	  0	
15-Apr-2013	sub2312	2312	  2	  0	136	  6	  2	  3	  2	  2	  0	  2	  1	0.50090	  0	0.80000	  0	 23	 84	 69	  0	
15-Apr-2013	sub2312	2312	  2	  0	137	  6	  2	  1	  1	  2	  1	  1	  1	0.52301	  1	0.80000	  0	 21	 60	 61	  0	
15-Apr-2013	sub2312	2312	  2	  0	138	  6	  2	  5	  5	  2	  0	  2	  1	0.46471	  0	0.80000	  0	 25	 87	 68	  1	
15-Apr-2013	sub2312	2312	  2	  0	139	  6	  2	  1	  1	  2	  1	  1	  1	0.54600	  1	0.80000	  0	 21	 60	 61	  0	
15-Apr-2013	sub2312	2312	  2	  0	140	  6	  2	  1	  1	  2	  1	  1	  1	0.44238	  1	0.80000	  0	 21	 60	 61	  1	
15-Apr-2013	sub2312	2312	  2	  0	141	  6	  2	  3	  2	  2	  1	  2	  0	0.44661	  0	0.80000	  0	 23	 82	 83	  1	
15-Apr-2013	sub2312	2312	  2	  0	142	  6	  2	  6	  3	  2	  0	  1	  1	0.64838	  0	0.80000	  0	 26	 87	 68	  0	
15-Apr-2013	sub2312	2312	  2	  0	143	  6	  2	  5	  5	  2	  0	  2	  1	0.60526	  0	0.80000	  0	 25	 87	 68	  0	
15-Apr-2013	sub2312	2312	  2	  0	144	  6	  2	  4	  6	  2	  1	  2	  1	0.55980	  1	0.80000	  0	 24	 62	 63	  0	
15-Apr-2013	sub2312	2312	  2	  0	145	  6	  2	  3	  2	  2	  1	  2	  0	0.58268	  0	0.80000	  0	 23	 82	 83	  0	
15-Apr-2013	sub2312	2312	  2	  0	146	  6	  2	  3	  2	  2	  1	  1	  1	0.61751	  1	0.80000	  0	 23	 62	 63	  0	
15-Apr-2013	sub2312	2312	  2	  0	147	  6	  2	  2	  4	  4	  1	  2	  1	0.68473	  1	0.80000	  0	 22	 60	 61	  0	
15-Apr-2013	sub2312	2312	  2	  0	148	  6	  2	  3	  2	  2	  1	  1	  1	0.44446	  1	0.80000	  0	 23	 62	 63	  1	
15-Apr-2013	sub2312	2312	  2	  0	149	  6	  2	  5	  5	  2	  0	  2	  1	0.58126	  0	0.80000	  0	 25	 87	 68	  0	
15-Apr-2013	sub2312	2312	  2	  0	150	  6	  2	  2	  4	  4	  1	  2	  1	0.43483	  1	0.80000	  0	 22	 60	 61	  1	
