Date 	 Name 	 ID 	 Gender 	 Appearance 	 Trial 	 Block 	 Bin 	 Condition 	 Category 	 Number 	 Valid 	 Keypress 	 Correct 	 RT 	 Realcorrect 	 Deadline 	 Timeout 	 Stimtrigger 	 Resptrigger 	 Fedtrigger 	 WithinTime 	 
16-Apr-2013	sub2313	2313	  2	  0	  1	  1	  1	  1	  1	  5	  1	  1	  1	0.88219	  1	0.60000	  1	 11	 30	 51	  0	
16-Apr-2013	sub2313	2313	  2	  0	  2	  1	  1	  3	  5	  3	  1	  1	  1	0.08566	  1	0.90000	  0	 13	 32	 33	  1	
16-Apr-2013	sub2313	2313	  2	  0	  3	  1	  1	  5	  4	  3	  1	  1	  1	0.51488	  1	0.90000	  0	 15	 35	 36	  0	
16-Apr-2013	sub2313	2313	  2	  0	  4	  1	  1	  2	  6	  5	  1	  1	  0	0.73647	  0	0.90000	  0	 12	 40	 41	  0	
16-Apr-2013	sub2313	2313	  2	  0	  5	  1	  1	  2	  6	  5	  1	  2	  1	0.65576	  1	0.90000	  0	 12	 30	 31	  0	
16-Apr-2013	sub2313	2313	  2	  0	  6	  1	  1	  4	  2	  6	  1	  2	  1	0.68114	  1	0.90000	  0	 14	 32	 33	  0	
16-Apr-2013	sub2313	2313	  2	  0	  7	  1	  1	  4	  2	  6	  1	  2	  1	0.55225	  1	0.90000	  0	 14	 32	 33	  0	
16-Apr-2013	sub2313	2313	  2	  0	  8	  1	  1	  2	  6	  5	  1	  2	  1	0.83656	  1	0.90000	  0	 12	 30	 31	  0	
16-Apr-2013	sub2313	2313	  2	  0	  9	  1	  1	  5	  4	  3	  1	  1	  1	0.63729	  1	0.90000	  0	 15	 35	 36	  0	
16-Apr-2013	sub2313	2313	  2	  0	 10	  1	  1	  6	  3	  6	  1	  1	  0	0.57784	  0	0.90000	  0	 16	 45	 46	  0	
16-Apr-2013	sub2313	2313	  2	  0	 11	  1	  1	  2	  6	  5	  1	  2	  1	0.69300	  1	0.90000	  0	 12	 30	 31	  0	
16-Apr-2013	sub2313	2313	  2	  0	 12	  1	  1	  1	  1	  5	  1	  1	  1	0.80151	  1	0.90000	  0	 11	 30	 31	  0	
16-Apr-2013	sub2313	2313	  2	  0	 13	  1	  1	  5	  4	  3	  1	  1	  1	0.76500	  1	0.90000	  0	 15	 35	 36	  0	
16-Apr-2013	sub2313	2313	  2	  0	 14	  1	  1	  3	  5	  3	  1	  2	  0	0.80042	  0	0.90000	  0	 13	 42	 43	  0	
16-Apr-2013	sub2313	2313	  2	  0	 15	  1	  1	  5	  4	  3	  0	  1	  0	0.76749	  1	0.90000	  0	 15	 37	 48	  0	
16-Apr-2013	sub2313	2313	  2	  0	 16	  1	  1	  2	  6	  5	  1	  2	  1	0.69233	  1	0.80000	  0	 12	 30	 31	  0	
16-Apr-2013	sub2313	2313	  2	  0	 17	  1	  1	  6	  3	  6	  0	  2	  0	0.86103	  1	0.80000	  1	 16	 37	 51	  0	
16-Apr-2013	sub2313	2313	  2	  0	 18	  1	  1	  6	  3	  6	  1	  2	  1	0.56233	  1	0.90000	  0	 16	 35	 36	  0	
16-Apr-2013	sub2313	2313	  2	  0	 19	  1	  1	  6	  3	  6	  1	  2	  1	0.54803	  1	0.90000	  0	 16	 35	 36	  0	
16-Apr-2013	sub2313	2313	  2	  0	 20	  1	  1	  4	  2	  6	  0	  1	  1	0.70944	  0	0.90000	  0	 14	 44	 39	  0	
16-Apr-2013	sub2313	2313	  2	  0	 21	  1	  1	  1	  1	  5	  1	  1	  1	0.62857	  1	0.90000	  0	 11	 30	 31	  0	
16-Apr-2013	sub2313	2313	  2	  0	 22	  1	  1	  6	  3	  6	  0	  1	  1	0.50724	  0	0.90000	  0	 16	 47	 38	  0	
16-Apr-2013	sub2313	2313	  2	  0	 23	  1	  1	  2	  6	  5	  1	  1	  0	0.50286	  0	0.90000	  0	 12	 40	 41	  0	
16-Apr-2013	sub2313	2313	  2	  0	 24	  1	  1	  3	  5	  3	  1	  1	  1	0.68940	  1	0.90000	  0	 13	 32	 33	  0	
16-Apr-2013	sub2313	2313	  2	  0	 25	  1	  1	  6	  3	  6	  1	  2	  1	1.00238	  1	0.90000	  1	 16	 35	 51	  0	
16-Apr-2013	sub2313	2313	  2	  0	 26	  1	  1	  6	  3	  6	  0	  2	  0	0.55340	  1	0.90000	  0	 16	 37	 48	  0	
16-Apr-2013	sub2313	2313	  2	  0	 27	  1	  1	  1	  1	  5	  1	  1	  1	0.75867	  1	0.90000	  0	 11	 30	 31	  0	
16-Apr-2013	sub2313	2313	  2	  0	 28	  1	  1	  4	  2	  6	  1	  1	  0	0.75663	  0	0.90000	  0	 14	 42	 43	  0	
16-Apr-2013	sub2313	2313	  2	  0	 29	  1	  1	  5	  4	  3	  1	  1	  1	0.65760	  1	0.90000	  0	 15	 35	 36	  0	
16-Apr-2013	sub2313	2313	  2	  0	 30	  1	  1	  3	  5	  3	  0	  1	  0	0.58164	  1	0.90000	  0	 13	 34	 49	  0	
16-Apr-2013	sub2313	2313	  2	  0	 31	  1	  1	  1	  1	  5	  1	  1	  1	0.83568	  1	0.90000	  0	 11	 30	 31	  0	
16-Apr-2013	sub2313	2313	  2	  0	 32	  1	  1	  3	  5	  3	  1	  1	  1	0.75844	  1	0.90000	  0	 13	 32	 33	  0	
16-Apr-2013	sub2313	2313	  2	  0	 33	  1	  1	  2	  6	  5	  1	  2	  1	0.53680	  1	0.90000	  0	 12	 30	 31	  0	
16-Apr-2013	sub2313	2313	  2	  0	 34	  1	  1	  1	  1	  5	  1	  1	  1	0.76325	  1	0.90000	  0	 11	 30	 31	  0	
16-Apr-2013	sub2313	2313	  2	  0	 35	  1	  1	  5	  4	  3	  0	  1	  0	0.81653	  1	0.90000	  0	 15	 37	 48	  0	
16-Apr-2013	sub2313	2313	  2	  0	 36	  1	  1	  6	  3	  6	  0	  2	  0	1.01436	  1	0.90000	  1	 16	 37	 51	  0	
16-Apr-2013	sub2313	2313	  2	  0	 37	  1	  1	  6	  3	  6	  0	  1	  1	0.43130	  0	0.90000	  0	 16	 47	 38	  1	
16-Apr-2013	sub2313	2313	  2	  0	 38	  1	  1	  3	  5	  3	  0	  2	  1	1.23250	  0	0.90000	  1	 13	 44	 51	  0	
16-Apr-2013	sub2313	2313	  2	  0	 39	  1	  1	  6	  3	  6	  1	  1	  0	0.69602	  0	0.90000	  0	 16	 45	 46	  0	
16-Apr-2013	sub2313	2313	  2	  0	 40	  1	  1	  1	  1	  5	  1	  1	  1	0.64648	  1	0.90000	  0	 11	 30	 31	  0	
16-Apr-2013	sub2313	2313	  2	  0	 41	  1	  1	  2	  6	  5	  1	  2	  1	0.66190	  1	0.90000	  0	 12	 30	 31	  0	
16-Apr-2013	sub2313	2313	  2	  0	 42	  1	  1	  3	  5	  3	  1	  2	  0	0.78768	  0	0.90000	  0	 13	 42	 43	  0	
16-Apr-2013	sub2313	2313	  2	  0	 43	  1	  1	  4	  2	  6	  1	  2	  1	0.70952	  1	0.90000	  0	 14	 32	 33	  0	
16-Apr-2013	sub2313	2313	  2	  0	 44	  1	  1	  3	  5	  3	  1	  2	  0	0.53446	  0	0.90000	  0	 13	 42	 43	  0	
16-Apr-2013	sub2313	2313	  2	  0	 45	  1	  1	  1	  1	  5	  1	  1	  1	0.58240	  1	0.90000	  0	 11	 30	 31	  0	
16-Apr-2013	sub2313	2313	  2	  0	 46	  1	  1	  4	  2	  6	  1	  1	  0	0.50241	  0	0.90000	  0	 14	 42	 43	  0	
16-Apr-2013	sub2313	2313	  2	  0	 47	  1	  1	  5	  4	  3	  0	  1	  0	0.74048	  1	0.90000	  0	 15	 37	 48	  0	
16-Apr-2013	sub2313	2313	  2	  0	 48	  1	  1	  4	  2	  6	  0	  1	  1	0.68173	  0	0.90000	  0	 14	 44	 39	  0	
16-Apr-2013	sub2313	2313	  2	  0	 49	  1	  1	  6	  3	  6	  1	  1	  0	0.75352	  0	0.90000	  0	 16	 45	 46	  0	
16-Apr-2013	sub2313	2313	  2	  0	 50	  1	  1	  4	  2	  6	  1	  1	  0	0.63263	  0	0.90000	  0	 14	 42	 43	  0	
16-Apr-2013	sub2313	2313	  2	  0	 51	  1	  1	  3	  5	  3	  1	  2	  0	0.97298	  0	0.90000	  1	 13	 42	 51	  0	
16-Apr-2013	sub2313	2313	  2	  0	 52	  1	  1	  4	  2	  6	  1	  2	  1	0.45922	  1	0.90000	  0	 14	 32	 33	  1	
16-Apr-2013	sub2313	2313	  2	  0	 53	  1	  1	  2	  6	  5	  1	  2	  1	0.54665	  1	0.90000	  0	 12	 30	 31	  0	
16-Apr-2013	sub2313	2313	  2	  0	 54	  1	  1	  5	  4	  3	  0	  2	  1	0.56439	  0	0.90000	  0	 15	 47	 38	  0	
16-Apr-2013	sub2313	2313	  2	  0	 55	  1	  1	  4	  2	  6	  1	  2	  1	0.58878	  1	0.90000	  0	 14	 32	 33	  0	
16-Apr-2013	sub2313	2313	  2	  0	 56	  1	  1	  3	  5	  3	  1	  2	  0	0.50778	  0	0.90000	  0	 13	 42	 43	  0	
16-Apr-2013	sub2313	2313	  2	  0	 57	  1	  1	  2	  6	  5	  1	  2	  1	0.65560	  1	0.90000	  0	 12	 30	 31	  0	
16-Apr-2013	sub2313	2313	  2	  0	 58	  1	  1	  3	  5	  3	  0	  2	  1	0.56340	  0	0.90000	  0	 13	 44	 39	  0	
16-Apr-2013	sub2313	2313	  2	  0	 59	  1	  1	  3	  5	  3	  1	  2	  0	0.50682	  0	0.90000	  0	 13	 42	 43	  0	
16-Apr-2013	sub2313	2313	  2	  0	 60	  1	  1	  2	  6	  5	  1	  2	  1	0.62590	  1	0.90000	  0	 12	 30	 31	  0	
16-Apr-2013	sub2313	2313	  2	  0	 61	  1	  1	  3	  5	  3	  1	  1	  1	0.60513	  1	0.90000	  0	 13	 32	 33	  0	
16-Apr-2013	sub2313	2313	  2	  0	 62	  1	  1	  2	  6	  5	  1	  2	  1	0.67985	  1	0.90000	  0	 12	 30	 31	  0	
16-Apr-2013	sub2313	2313	  2	  0	 63	  1	  1	  1	  1	  5	  1	  1	  1	0.55404	  1	0.90000	  0	 11	 30	 31	  0	
16-Apr-2013	sub2313	2313	  2	  0	 64	  1	  1	  5	  4	  3	  0	  1	  0	0.70268	  1	0.90000	  0	 15	 37	 48	  0	
16-Apr-2013	sub2313	2313	  2	  0	 65	  1	  1	  4	  2	  6	  1	  2	  1	0.49459	  1	0.90000	  0	 14	 32	 33	  1	
16-Apr-2013	sub2313	2313	  2	  0	 66	  1	  1	  5	  4	  3	  1	  1	  1	0.66735	  1	0.90000	  0	 15	 35	 36	  0	
16-Apr-2013	sub2313	2313	  2	  0	 67	  1	  1	  5	  4	  3	  1	  2	  0	0.73863	  0	0.90000	  0	 15	 45	 46	  0	
16-Apr-2013	sub2313	2313	  2	  0	 68	  1	  1	  1	  1	  5	  1	  1	  1	0.60041	  1	0.90000	  0	 11	 30	 31	  0	
16-Apr-2013	sub2313	2313	  2	  0	 69	  1	  1	  2	  6	  5	  1	  2	  1	0.58248	  1	0.90000	  0	 12	 30	 31	  0	
16-Apr-2013	sub2313	2313	  2	  0	 70	  1	  1	  6	  3	  6	  1	  2	  1	0.60139	  1	0.90000	  0	 16	 35	 36	  0	
16-Apr-2013	sub2313	2313	  2	  0	 71	  1	  1	  6	  3	  6	  0	  2	  0	0.36808	  1	0.90000	  0	 16	 37	 48	  1	
16-Apr-2013	sub2313	2313	  2	  0	 72	  1	  1	  1	  1	  5	  1	  1	  1	0.69165	  1	0.90000	  0	 11	 30	 31	  0	
16-Apr-2013	sub2313	2313	  2	  0	 73	  1	  1	  4	  2	  6	  1	  2	  1	0.78621	  1	0.90000	  0	 14	 32	 33	  0	
16-Apr-2013	sub2313	2313	  2	  0	 74	  1	  1	  1	  1	  5	  1	  2	  0	0.50327	  0	0.90000	  0	 11	 40	 41	  0	
16-Apr-2013	sub2313	2313	  2	  0	 75	  1	  1	  5	  4	  3	  0	  2	  1	0.51712	  0	0.90000	  0	 15	 47	 38	  0	
16-Apr-2013	sub2313	2313	  2	  0	  1	  2	  1	  5	  1	  4	  0	  1	  0	0.62448	  1	0.60000	  1	 15	 37	 51	  0	
16-Apr-2013	sub2313	2313	  2	  0	  2	  2	  1	  5	  1	  4	  0	  1	  0	0.56205	  1	0.90000	  0	 15	 37	 48	  0	
16-Apr-2013	sub2313	2313	  2	  0	  3	  2	  1	  6	  3	  2	  0	  2	  0	0.62983	  1	0.90000	  0	 16	 37	 48	  0	
16-Apr-2013	sub2313	2313	  2	  0	  4	  2	  1	  4	  4	  1	  1	  2	  1	0.62055	  1	0.90000	  0	 14	 32	 33	  0	
16-Apr-2013	sub2313	2313	  2	  0	  5	  2	  1	  3	  6	  6	  1	  2	  0	0.78443	  0	0.90000	  0	 13	 42	 43	  0	
16-Apr-2013	sub2313	2313	  2	  0	  6	  2	  1	  3	  6	  6	  1	  1	  1	0.61976	  1	0.90000	  0	 13	 32	 33	  0	
16-Apr-2013	sub2313	2313	  2	  0	  7	  2	  1	  1	  2	  2	  1	  1	  1	0.84241	  1	0.90000	  0	 11	 30	 31	  0	
16-Apr-2013	sub2313	2313	  2	  0	  8	  2	  1	  3	  6	  6	  1	  1	  1	0.80877	  1	0.90000	  0	 13	 32	 33	  0	
16-Apr-2013	sub2313	2313	  2	  0	  9	  2	  1	  1	  2	  2	  1	  1	  1	0.59989	  1	0.90000	  0	 11	 30	 31	  0	
16-Apr-2013	sub2313	2313	  2	  0	 10	  2	  1	  2	  5	  1	  1	  1	  0	0.74526	  0	0.90000	  0	 12	 40	 41	  0	
16-Apr-2013	sub2313	2313	  2	  0	 11	  2	  1	  1	  2	  2	  1	  1	  1	0.55879	  1	0.90000	  0	 11	 30	 31	  0	
16-Apr-2013	sub2313	2313	  2	  0	 12	  2	  1	  6	  3	  2	  1	  2	  1	0.36073	  1	0.90000	  0	 16	 35	 36	  1	
16-Apr-2013	sub2313	2313	  2	  0	 13	  2	  1	  3	  6	  6	  0	  1	  0	0.92517	  1	0.90000	  1	 13	 34	 51	  0	
16-Apr-2013	sub2313	2313	  2	  0	 14	  2	  1	  2	  5	  1	  1	  1	  0	0.58798	  0	0.90000	  0	 12	 40	 41	  0	
16-Apr-2013	sub2313	2313	  2	  0	 15	  2	  1	  5	  1	  4	  1	  1	  1	0.54283	  1	0.90000	  0	 15	 35	 36	  0	
16-Apr-2013	sub2313	2313	  2	  0	 16	  2	  1	  5	  1	  4	  0	  1	  0	0.51679	  1	0.90000	  0	 15	 37	 48	  0	
16-Apr-2013	sub2313	2313	  2	  0	 17	  2	  1	  4	  4	  1	  1	  2	  1	0.54537	  1	0.90000	  0	 14	 32	 33	  0	
16-Apr-2013	sub2313	2313	  2	  0	 18	  2	  1	  4	  4	  1	  1	  2	  1	0.45972	  1	0.90000	  0	 14	 32	 33	  1	
16-Apr-2013	sub2313	2313	  2	  0	 19	  2	  1	  4	  4	  1	  1	  2	  1	0.41131	  1	0.90000	  0	 14	 32	 33	  1	
16-Apr-2013	sub2313	2313	  2	  0	 20	  2	  1	  2	  5	  1	  1	  2	  1	0.58640	  1	0.90000	  0	 12	 30	 31	  0	
16-Apr-2013	sub2313	2313	  2	  0	 21	  2	  1	  3	  6	  6	  0	  1	  0	0.57505	  1	0.90000	  0	 13	 34	 49	  0	
16-Apr-2013	sub2313	2313	  2	  0	 22	  2	  1	  2	  5	  1	  1	  2	  1	0.85515	  1	0.90000	  0	 12	 30	 31	  0	
16-Apr-2013	sub2313	2313	  2	  0	 23	  2	  1	  6	  3	  2	  1	  2	  1	0.74455	  1	0.90000	  0	 16	 35	 36	  0	
16-Apr-2013	sub2313	2313	  2	  0	 24	  2	  1	  1	  2	  2	  1	  2	  0	0.58678	  0	0.90000	  0	 11	 40	 41	  0	
16-Apr-2013	sub2313	2313	  2	  0	 25	  2	  1	  5	  1	  4	  0	  1	  0	0.58497	  1	0.90000	  0	 15	 37	 48	  0	
16-Apr-2013	sub2313	2313	  2	  0	 26	  2	  1	  1	  2	  2	  1	  1	  1	0.40523	  1	0.90000	  0	 11	 30	 31	  1	
16-Apr-2013	sub2313	2313	  2	  0	 27	  2	  1	  1	  2	  2	  1	  1	  1	0.69235	  1	0.90000	  0	 11	 30	 31	  0	
16-Apr-2013	sub2313	2313	  2	  0	 28	  2	  1	  6	  3	  2	  0	  2	  0	0.58441	  1	0.90000	  0	 16	 37	 48	  0	
16-Apr-2013	sub2313	2313	  2	  0	 29	  2	  1	  1	  2	  2	  1	  1	  1	0.60549	  1	0.90000	  0	 11	 30	 31	  0	
16-Apr-2013	sub2313	2313	  2	  0	 30	  2	  1	  2	  5	  1	  1	  1	  0	0.63470	  0	0.80000	  0	 12	 40	 41	  0	
16-Apr-2013	sub2313	2313	  2	  0	 31	  2	  1	  5	  1	  4	  1	  1	  1	0.65467	  1	0.80000	  0	 15	 35	 36	  0	
16-Apr-2013	sub2313	2313	  2	  0	 32	  2	  1	  5	  1	  4	  1	  2	  0	0.47548	  0	0.80000	  0	 15	 45	 46	  1	
16-Apr-2013	sub2313	2313	  2	  0	 33	  2	  1	  6	  3	  2	  0	  2	  0	0.54693	  1	0.80000	  0	 16	 37	 48	  0	
16-Apr-2013	sub2313	2313	  2	  0	 34	  2	  1	  2	  5	  1	  1	  1	  0	0.49643	  0	0.80000	  0	 12	 40	 41	  1	
16-Apr-2013	sub2313	2313	  2	  0	 35	  2	  1	  3	  6	  6	  1	  2	  0	0.52962	  0	0.70000	  0	 13	 42	 43	  0	
16-Apr-2013	sub2313	2313	  2	  0	 36	  2	  1	  6	  3	  2	  0	  2	  0	0.55638	  1	0.70000	  0	 16	 37	 48	  0	
16-Apr-2013	sub2313	2313	  2	  0	 37	  2	  1	  6	  3	  2	  1	  1	  0	0.35412	  0	0.70000	  0	 16	 45	 46	  1	
16-Apr-2013	sub2313	2313	  2	  0	 38	  2	  1	  3	  6	  6	  1	  1	  1	0.57507	  1	0.70000	  0	 13	 32	 33	  0	
16-Apr-2013	sub2313	2313	  2	  0	 39	  2	  1	  6	  3	  2	  0	  2	  0	0.53994	  1	0.70000	  0	 16	 37	 48	  0	
16-Apr-2013	sub2313	2313	  2	  0	 40	  2	  1	  6	  3	  2	  1	  1	  0	0.42974	  0	0.70000	  0	 16	 45	 46	  1	
16-Apr-2013	sub2313	2313	  2	  0	 41	  2	  1	  2	  5	  1	  1	  1	  0	0.65711	  0	0.60000	  1	 12	 40	 51	  0	
16-Apr-2013	sub2313	2313	  2	  0	 42	  2	  1	  6	  3	  2	  1	  1	  0	0.57493	  0	0.90000	  0	 16	 45	 46	  0	
16-Apr-2013	sub2313	2313	  2	  0	 43	  2	  1	  3	  6	  6	  1	  2	  0	0.35594	  0	0.90000	  0	 13	 42	 43	  1	
16-Apr-2013	sub2313	2313	  2	  0	 44	  2	  1	  3	  6	  6	  0	  2	  1	0.79004	  0	0.80000	  0	 13	 44	 39	  0	
16-Apr-2013	sub2313	2313	  2	  0	 45	  2	  1	  4	  4	  1	  1	  2	  1	0.53924	  1	0.80000	  0	 14	 32	 33	  0	
16-Apr-2013	sub2313	2313	  2	  0	 46	  2	  1	  3	  6	  6	  1	  2	  0	0.51547	  0	0.80000	  0	 13	 42	 43	  0	
16-Apr-2013	sub2313	2313	  2	  0	 47	  2	  1	  2	  5	  1	  1	  2	  1	0.48650	  1	0.80000	  0	 12	 30	 31	  1	
16-Apr-2013	sub2313	2313	  2	  0	 48	  2	  1	  6	  3	  2	  0	  2	  0	0.42904	  1	0.80000	  0	 16	 37	 48	  1	
16-Apr-2013	sub2313	2313	  2	  0	 49	  2	  1	  5	  1	  4	  1	  2	  0	0.48100	  0	0.80000	  0	 15	 45	 46	  1	
16-Apr-2013	sub2313	2313	  2	  0	 50	  2	  1	  2	  5	  1	  1	  1	  0	0.32182	  0	0.80000	  0	 12	 40	 41	  1	
16-Apr-2013	sub2313	2313	  2	  0	 51	  2	  1	  1	  2	  2	  1	  2	  0	0.93486	  0	0.70000	  1	 11	 40	 51	  0	
16-Apr-2013	sub2313	2313	  2	  0	 52	  2	  1	  2	  5	  1	  1	  2	  1	0.40701	  1	0.90000	  0	 12	 30	 31	  1	
16-Apr-2013	sub2313	2313	  2	  0	 53	  2	  1	  4	  4	  1	  1	  2	  1	0.52305	  1	0.90000	  0	 14	 32	 33	  0	
16-Apr-2013	sub2313	2313	  2	  0	 54	  2	  1	  3	  6	  6	  1	  1	  1	0.68931	  1	0.90000	  0	 13	 32	 33	  0	
16-Apr-2013	sub2313	2313	  2	  0	 55	  2	  1	  5	  1	  4	  0	  1	  0	0.58475	  1	0.90000	  0	 15	 37	 48	  0	
16-Apr-2013	sub2313	2313	  2	  0	 56	  2	  1	  2	  5	  1	  1	  2	  1	0.38152	  1	0.90000	  0	 12	 30	 31	  1	
16-Apr-2013	sub2313	2313	  2	  0	 57	  2	  1	  1	  2	  2	  1	  2	  0	0.57304	  0	0.90000	  0	 11	 40	 41	  0	
16-Apr-2013	sub2313	2313	  2	  0	 58	  2	  1	  5	  1	  4	  1	  2	  0	0.52039	  0	0.90000	  0	 15	 45	 46	  0	
16-Apr-2013	sub2313	2313	  2	  0	 59	  2	  1	  1	  2	  2	  1	  1	  1	0.33958	  1	0.80000	  0	 11	 30	 31	  1	
16-Apr-2013	sub2313	2313	  2	  0	 60	  2	  1	  4	  4	  1	  1	  1	  0	0.57564	  0	0.80000	  0	 14	 42	 43	  0	
16-Apr-2013	sub2313	2313	  2	  0	 61	  2	  1	  2	  5	  1	  1	  2	  1	0.72425	  1	0.80000	  0	 12	 30	 31	  0	
16-Apr-2013	sub2313	2313	  2	  0	 62	  2	  1	  6	  3	  2	  1	  2	  1	0.46417	  1	0.80000	  0	 16	 35	 36	  1	
16-Apr-2013	sub2313	2313	  2	  0	 63	  2	  1	  1	  2	  2	  1	  2	  0	0.54146	  0	0.80000	  0	 11	 40	 41	  0	
16-Apr-2013	sub2313	2313	  2	  0	 64	  2	  1	  4	  4	  1	  0	  2	  0	0.36976	  1	0.80000	  0	 14	 34	 49	  1	
16-Apr-2013	sub2313	2313	  2	  0	 65	  2	  1	  3	  6	  6	  1	  1	  1	0.27529	  1	0.80000	  0	 13	 32	 33	  1	
16-Apr-2013	sub2313	2313	  2	  0	 66	  2	  1	  4	  4	  1	  1	  1	  0	0.53649	  0	0.80000	  0	 14	 42	 43	  0	
16-Apr-2013	sub2313	2313	  2	  0	 67	  2	  1	  5	  1	  4	  1	  2	  0	0.34567	  0	0.80000	  0	 15	 45	 46	  1	
16-Apr-2013	sub2313	2313	  2	  0	 68	  2	  1	  4	  4	  1	  0	  2	  0	0.44739	  1	0.70000	  0	 14	 34	 49	  1	
16-Apr-2013	sub2313	2313	  2	  0	 69	  2	  1	  4	  4	  1	  1	  1	  0	0.32694	  0	0.70000	  0	 14	 42	 43	  1	
16-Apr-2013	sub2313	2313	  2	  0	 70	  2	  1	  4	  4	  1	  1	  2	  1	0.43757	  1	0.70000	  0	 14	 32	 33	  1	
16-Apr-2013	sub2313	2313	  2	  0	 71	  2	  1	  6	  3	  2	  0	  2	  0	0.43333	  1	0.70000	  0	 16	 37	 48	  1	
16-Apr-2013	sub2313	2313	  2	  0	 72	  2	  1	  1	  2	  2	  1	  1	  1	0.19319	  1	0.70000	  0	 11	 30	 31	  1	
16-Apr-2013	sub2313	2313	  2	  0	 73	  2	  1	  3	  6	  6	  1	  1	  1	0.37575	  1	0.70000	  0	 13	 32	 33	  1	
16-Apr-2013	sub2313	2313	  2	  0	 74	  2	  1	  5	  1	  4	  1	  1	  1	0.49809	  1	0.70000	  0	 15	 35	 36	  1	
16-Apr-2013	sub2313	2313	  2	  0	 75	  2	  1	  2	  5	  1	  1	  1	  0	0.58930	  0	0.70000	  0	 12	 40	 41	  0	
16-Apr-2013	sub2313	2313	  2	  0	 76	  2	  2	  6	  3	  2	  1	  1	  0	0.49918	  0	0.70000	  0	 26	 85	 86	  1	
16-Apr-2013	sub2313	2313	  2	  0	 77	  2	  2	  6	  3	  2	  0	  2	  0	0.39257	  1	0.70000	  0	 26	 67	 88	  1	
16-Apr-2013	sub2313	2313	  2	  0	 78	  2	  2	  5	  1	  4	  0	  2	  1	0.31877	  0	0.70000	  0	 25	 87	 68	  1	
16-Apr-2013	sub2313	2313	  2	  0	 79	  2	  2	  2	  5	  1	  1	  2	  1	0.46583	  1	0.70000	  0	 22	 60	 61	  1	
16-Apr-2013	sub2313	2313	  2	  0	 80	  2	  2	  4	  4	  1	  0	  2	  0	0.41472	  1	0.70000	  0	 24	 64	 89	  1	
16-Apr-2013	sub2313	2313	  2	  0	 81	  2	  2	  5	  1	  4	  0	  1	  0	0.42290	  1	0.60000	  0	 25	 67	 88	  1	
16-Apr-2013	sub2313	2313	  2	  0	 82	  2	  2	  4	  4	  1	  1	  2	  1	0.53532	  1	0.60000	  0	 24	 62	 63	  0	
16-Apr-2013	sub2313	2313	  2	  0	 83	  2	  2	  3	  6	  6	  1	  2	  0	0.56476	  0	0.60000	  0	 23	 82	 83	  0	
16-Apr-2013	sub2313	2313	  2	  0	 84	  2	  2	  5	  1	  4	  0	  2	  1	0.42030	  0	0.60000	  0	 25	 87	 68	  1	
16-Apr-2013	sub2313	2313	  2	  0	 85	  2	  2	  3	  6	  6	  1	  2	  0	0.57916	  0	0.60000	  0	 23	 82	 83	  0	
16-Apr-2013	sub2313	2313	  2	  0	 86	  2	  2	  1	  2	  2	  1	  2	  0	0.52631	  0	0.60000	  0	 21	 80	 81	  0	
16-Apr-2013	sub2313	2313	  2	  0	 87	  2	  2	  1	  2	  2	  1	  1	  1	0.46595	  1	0.60000	  0	 21	 60	 61	  1	
16-Apr-2013	sub2313	2313	  2	  0	 88	  2	  2	  1	  2	  2	  1	  1	  1	0.49285	  1	0.60000	  0	 21	 60	 61	  1	
16-Apr-2013	sub2313	2313	  2	  0	 89	  2	  2	  1	  2	  2	  1	  1	  1	0.40475	  1	0.60000	  0	 21	 60	 61	  1	
16-Apr-2013	sub2313	2313	  2	  0	 90	  2	  2	  3	  6	  6	  1	  1	  1	0.41297	  1	0.60000	  0	 23	 62	 63	  1	
16-Apr-2013	sub2313	2313	  2	  0	 91	  2	  2	  3	  6	  6	  1	  1	  1	0.48215	  1	0.60000	  0	 23	 62	 63	  1	
16-Apr-2013	sub2313	2313	  2	  0	 92	  2	  2	  4	  4	  1	  1	  1	  0	0.24011	  0	0.60000	  0	 24	 82	 83	  1	
16-Apr-2013	sub2313	2313	  2	  0	 93	  2	  2	  1	  2	  2	  1	  1	  1	0.43442	  1	0.60000	  0	 21	 60	 61	  1	
16-Apr-2013	sub2313	2313	  2	  0	 94	  2	  2	  5	  1	  4	  0	  1	  0	0.48452	  1	0.60000	  0	 25	 67	 88	  1	
16-Apr-2013	sub2313	2313	  2	  0	 95	  2	  2	  2	  5	  1	  1	  1	  0	0.71681	  0	0.60000	  1	 22	 80	 51	  0	
16-Apr-2013	sub2313	2313	  2	  0	 96	  2	  2	  2	  5	  1	  1	  1	  0	0.32105	  0	0.70000	  0	 22	 80	 81	  1	
16-Apr-2013	sub2313	2313	  2	  0	 97	  2	  2	  4	  4	  1	  1	  2	  1	1.30976	  1	0.70000	  1	 24	 62	 51	  0	
16-Apr-2013	sub2313	2313	  2	  0	 98	  2	  2	  6	  3	  2	  0	  2	  0	0.41371	  1	0.80000	  0	 26	 67	 88	  1	
16-Apr-2013	sub2313	2313	  2	  0	 99	  2	  2	  4	  4	  1	  0	  1	  1	0.09321	  0	0.80000	  0	 24	 84	 69	  1	
16-Apr-2013	sub2313	2313	  2	  0	100	  2	  2	  6	  3	  2	  1	  1	  0	0.33655	  0	0.80000	  0	 26	 85	 86	  1	
16-Apr-2013	sub2313	2313	  2	  0	101	  2	  2	  1	  2	  2	  1	  2	  0	0.68212	  0	0.70000	  0	 21	 80	 81	  0	
16-Apr-2013	sub2313	2313	  2	  0	102	  2	  2	  2	  5	  1	  1	  2	  1	0.14759	  1	0.70000	  0	 22	 60	 61	  1	
16-Apr-2013	sub2313	2313	  2	  0	103	  2	  2	  5	  1	  4	  0	  1	  0	0.00009	  1	0.70000	  0	 25	 67	 88	  1	
16-Apr-2013	sub2313	2313	  2	  0	104	  2	  2	  5	  1	  4	  0	  1	  0	0.00009	  1	0.70000	  0	 25	 67	 88	  1	
16-Apr-2013	sub2313	2313	  2	  0	105	  2	  2	  5	  1	  4	  0	  1	  0	0.03735	  1	0.70000	  0	 25	 67	 88	  1	
16-Apr-2013	sub2313	2313	  2	  0	106	  2	  2	  3	  6	  6	  1	  2	  0	0.01503	  0	0.70000	  0	 23	 82	 83	  1	
16-Apr-2013	sub2313	2313	  2	  0	107	  2	  2	  3	  6	  6	  1	  1	  1	0.49821	  1	0.70000	  0	 23	 62	 63	  1	
16-Apr-2013	sub2313	2313	  2	  0	108	  2	  2	  4	  4	  1	  1	  2	  1	0.58301	  1	0.70000	  0	 24	 62	 63	  0	
16-Apr-2013	sub2313	2313	  2	  0	109	  2	  2	  1	  2	  2	  1	  1	  1	0.56694	  1	0.70000	  0	 21	 60	 61	  0	
16-Apr-2013	sub2313	2313	  2	  0	110	  2	  2	  5	  1	  4	  0	  2	  1	0.69688	  0	0.70000	  0	 25	 87	 68	  0	
16-Apr-2013	sub2313	2313	  2	  0	111	  2	  2	  6	  3	  2	  1	  2	  1	0.53086	  1	0.70000	  0	 26	 65	 66	  0	
16-Apr-2013	sub2313	2313	  2	  0	112	  2	  2	  3	  6	  6	  0	  1	  0	0.57584	  1	0.70000	  0	 23	 64	 89	  0	
16-Apr-2013	sub2313	2313	  2	  0	113	  2	  2	  6	  3	  2	  1	  2	  1	0.45074	  1	0.70000	  0	 26	 65	 66	  1	
16-Apr-2013	sub2313	2313	  2	  0	114	  2	  2	  1	  2	  2	  1	  2	  0	0.40310	  0	0.70000	  0	 21	 80	 81	  1	
16-Apr-2013	sub2313	2313	  2	  0	115	  2	  2	  5	  1	  4	  0	  2	  1	0.58730	  0	0.70000	  0	 25	 87	 68	  0	
16-Apr-2013	sub2313	2313	  2	  0	116	  2	  2	  4	  4	  1	  1	  1	  0	0.51111	  0	0.70000	  0	 24	 82	 83	  0	
16-Apr-2013	sub2313	2313	  2	  0	117	  2	  2	  4	  4	  1	  0	  2	  0	0.40092	  1	0.70000	  0	 24	 64	 89	  1	
16-Apr-2013	sub2313	2313	  2	  0	118	  2	  2	  5	  1	  4	  0	  2	  1	0.44539	  0	0.70000	  0	 25	 87	 68	  1	
16-Apr-2013	sub2313	2313	  2	  0	119	  2	  2	  2	  5	  1	  1	  2	  1	0.53230	  1	0.70000	  0	 22	 60	 61	  0	
16-Apr-2013	sub2313	2313	  2	  0	120	  2	  2	  1	  2	  2	  1	  2	  0	0.33615	  0	0.70000	  0	 21	 80	 81	  1	
16-Apr-2013	sub2313	2313	  2	  0	121	  2	  2	  2	  5	  1	  1	  2	  1	0.62804	  1	0.60000	  1	 22	 60	 51	  0	
16-Apr-2013	sub2313	2313	  2	  0	122	  2	  2	  2	  5	  1	  1	  2	  1	0.46654	  1	0.70000	  0	 22	 60	 61	  1	
16-Apr-2013	sub2313	2313	  2	  0	123	  2	  2	  1	  2	  2	  1	  1	  1	0.51175	  1	0.70000	  0	 21	 60	 61	  0	
16-Apr-2013	sub2313	2313	  2	  0	124	  2	  2	  3	  6	  6	  1	  1	  1	0.94075	  1	0.70000	  1	 23	 62	 51	  0	
16-Apr-2013	sub2313	2313	  2	  0	125	  2	  2	  6	  3	  2	  0	  2	  0	0.44350	  1	0.80000	  0	 26	 67	 88	  1	
16-Apr-2013	sub2313	2313	  2	  0	126	  2	  2	  4	  4	  1	  1	  2	  1	0.51103	  1	0.80000	  0	 24	 62	 63	  0	
16-Apr-2013	sub2313	2313	  2	  0	127	  2	  2	  2	  5	  1	  1	  2	  1	0.51247	  1	0.80000	  0	 22	 60	 61	  0	
16-Apr-2013	sub2313	2313	  2	  0	128	  2	  2	  4	  4	  1	  1	  2	  1	0.39615	  1	0.80000	  0	 24	 62	 63	  1	
16-Apr-2013	sub2313	2313	  2	  0	129	  2	  2	  2	  5	  1	  1	  2	  1	0.30808	  1	0.80000	  0	 22	 60	 61	  1	
16-Apr-2013	sub2313	2313	  2	  0	130	  2	  2	  5	  1	  4	  0	  2	  1	0.34172	  0	0.80000	  0	 25	 87	 68	  1	
16-Apr-2013	sub2313	2313	  2	  0	131	  2	  2	  4	  4	  1	  1	  2	  1	0.44354	  1	0.80000	  0	 24	 62	 63	  1	
16-Apr-2013	sub2313	2313	  2	  0	132	  2	  2	  5	  1	  4	  0	  2	  1	0.53167	  0	0.80000	  0	 25	 87	 68	  0	
16-Apr-2013	sub2313	2313	  2	  0	133	  2	  2	  2	  5	  1	  1	  2	  1	0.34689	  1	0.80000	  0	 22	 60	 61	  1	
16-Apr-2013	sub2313	2313	  2	  0	134	  2	  2	  5	  1	  4	  0	  2	  1	0.53669	  0	0.80000	  0	 25	 87	 68	  0	
16-Apr-2013	sub2313	2313	  2	  0	135	  2	  2	  3	  6	  6	  1	  1	  1	0.68869	  1	0.70000	  0	 23	 62	 63	  0	
16-Apr-2013	sub2313	2313	  2	  0	136	  2	  2	  6	  3	  2	  0	  1	  1	0.48437	  0	0.70000	  0	 26	 87	 68	  1	
16-Apr-2013	sub2313	2313	  2	  0	137	  2	  2	  1	  2	  2	  1	  2	  0	0.81989	  0	0.70000	  1	 21	 80	 51	  0	
16-Apr-2013	sub2313	2313	  2	  0	138	  2	  2	  4	  4	  1	  1	  2	  1	0.45217	  1	0.80000	  0	 24	 62	 63	  1	
16-Apr-2013	sub2313	2313	  2	  0	139	  2	  2	  1	  2	  2	  1	  2	  0	0.48653	  0	0.80000	  0	 21	 80	 81	  1	
16-Apr-2013	sub2313	2313	  2	  0	140	  2	  2	  3	  6	  6	  1	  2	  0	0.37046	  0	0.80000	  0	 23	 82	 83	  1	
16-Apr-2013	sub2313	2313	  2	  0	141	  2	  2	  6	  3	  2	  1	  2	  1	0.29597	  1	0.80000	  0	 26	 65	 66	  1	
16-Apr-2013	sub2313	2313	  2	  0	142	  2	  2	  2	  5	  1	  1	  2	  1	0.44988	  1	0.80000	  0	 22	 60	 61	  1	
16-Apr-2013	sub2313	2313	  2	  0	143	  2	  2	  6	  3	  2	  0	  2	  0	0.41160	  1	0.80000	  0	 26	 67	 88	  1	
16-Apr-2013	sub2313	2313	  2	  0	144	  2	  2	  2	  5	  1	  1	  2	  1	0.54704	  1	0.80000	  0	 22	 60	 61	  0	
16-Apr-2013	sub2313	2313	  2	  0	145	  2	  2	  3	  6	  6	  1	  1	  1	1.04919	  1	0.80000	  1	 23	 62	 51	  0	
16-Apr-2013	sub2313	2313	  2	  0	146	  2	  2	  6	  3	  2	  1	  2	  1	0.36433	  1	0.80000	  0	 26	 65	 66	  1	
16-Apr-2013	sub2313	2313	  2	  0	147	  2	  2	  6	  3	  2	  0	  2	  0	0.48051	  1	0.80000	  0	 26	 67	 88	  1	
16-Apr-2013	sub2313	2313	  2	  0	148	  2	  2	  4	  4	  1	  1	  2	  1	0.56992	  1	0.80000	  0	 24	 62	 63	  0	
16-Apr-2013	sub2313	2313	  2	  0	149	  2	  2	  3	  6	  6	  0	  1	  0	0.62317	  1	0.80000	  0	 23	 64	 89	  0	
16-Apr-2013	sub2313	2313	  2	  0	150	  2	  2	  1	  2	  2	  1	  2	  0	0.59053	  0	0.80000	  0	 21	 80	 81	  0	
16-Apr-2013	sub2313	2313	  2	  0	  1	  3	  1	  4	  6	  3	  1	  1	  0	0.57937	  0	0.60000	  0	 14	 42	 43	  0	
16-Apr-2013	sub2313	2313	  2	  0	  2	  3	  1	  6	  5	  6	  0	  1	  1	0.47356	  0	0.30000	  1	 16	 47	 51	  1	
16-Apr-2013	sub2313	2313	  2	  0	  3	  3	  1	  2	  3	  3	  1	  1	  0	0.29457	  0	0.90000	  0	 12	 40	 41	  1	
16-Apr-2013	sub2313	2313	  2	  0	  4	  3	  1	  6	  5	  6	  1	  2	  1	0.27356	  1	0.90000	  0	 16	 35	 36	  1	
16-Apr-2013	sub2313	2313	  2	  0	  5	  3	  1	  1	  2	  3	  1	  2	  0	0.54740	  0	0.90000	  0	 11	 40	 41	  0	
16-Apr-2013	sub2313	2313	  2	  0	  6	  3	  1	  4	  6	  3	  1	  2	  1	0.47807	  1	0.90000	  0	 14	 32	 33	  1	
16-Apr-2013	sub2313	2313	  2	  0	  7	  3	  1	  5	  1	  3	  0	  2	  1	0.69259	  0	0.90000	  0	 15	 47	 38	  0	
16-Apr-2013	sub2313	2313	  2	  0	  8	  3	  1	  2	  3	  3	  1	  1	  0	0.86554	  0	0.90000	  0	 12	 40	 41	  0	
16-Apr-2013	sub2313	2313	  2	  0	  9	  3	  1	  4	  6	  3	  0	  2	  0	0.55477	  1	0.90000	  0	 14	 34	 49	  0	
16-Apr-2013	sub2313	2313	  2	  0	 10	  3	  1	  6	  5	  6	  0	  2	  0	0.49356	  1	0.90000	  0	 16	 37	 48	  1	
16-Apr-2013	sub2313	2313	  2	  0	 11	  3	  1	  3	  4	  6	  1	  2	  0	0.60771	  0	0.90000	  0	 13	 42	 43	  0	
16-Apr-2013	sub2313	2313	  2	  0	 12	  3	  1	  2	  3	  3	  1	  1	  0	0.35613	  0	0.90000	  0	 12	 40	 41	  1	
16-Apr-2013	sub2313	2313	  2	  0	 13	  3	  1	  2	  3	  3	  1	  1	  0	0.52188	  0	0.90000	  0	 12	 40	 41	  0	
16-Apr-2013	sub2313	2313	  2	  0	 14	  3	  1	  6	  5	  6	  0	  2	  0	0.63901	  1	0.90000	  0	 16	 37	 48	  0	
16-Apr-2013	sub2313	2313	  2	  0	 15	  3	  1	  2	  3	  3	  1	  2	  1	0.92063	  1	0.90000	  1	 12	 30	 51	  0	
16-Apr-2013	sub2313	2313	  2	  0	 16	  3	  1	  3	  4	  6	  0	  2	  1	0.55757	  0	0.90000	  0	 13	 44	 39	  0	
16-Apr-2013	sub2313	2313	  2	  0	 17	  3	  1	  4	  6	  3	  1	  2	  1	0.63377	  1	0.90000	  0	 14	 32	 33	  0	
16-Apr-2013	sub2313	2313	  2	  0	 18	  3	  1	  6	  5	  6	  1	  2	  1	0.65018	  1	0.90000	  0	 16	 35	 36	  0	
16-Apr-2013	sub2313	2313	  2	  0	 19	  3	  1	  1	  2	  3	  1	  2	  0	0.39043	  0	0.90000	  0	 11	 40	 41	  1	
16-Apr-2013	sub2313	2313	  2	  0	 20	  3	  1	  4	  6	  3	  1	  2	  1	0.44076	  1	0.90000	  0	 14	 32	 33	  1	
16-Apr-2013	sub2313	2313	  2	  0	 21	  3	  1	  3	  4	  6	  1	  1	  1	0.61925	  1	0.90000	  0	 13	 32	 33	  0	
16-Apr-2013	sub2313	2313	  2	  0	 22	  3	  1	  3	  4	  6	  1	  2	  0	0.50183	  0	0.90000	  0	 13	 42	 43	  0	
16-Apr-2013	sub2313	2313	  2	  0	 23	  3	  1	  3	  4	  6	  0	  1	  0	0.35090	  1	0.90000	  0	 13	 34	 49	  1	
16-Apr-2013	sub2313	2313	  2	  0	 24	  3	  1	  4	  6	  3	  0	  2	  0	0.35027	  1	0.90000	  0	 14	 34	 49	  1	
16-Apr-2013	sub2313	2313	  2	  0	 25	  3	  1	  5	  1	  3	  0	  2	  1	0.65386	  0	0.90000	  0	 15	 47	 38	  0	
16-Apr-2013	sub2313	2313	  2	  0	 26	  3	  1	  5	  1	  3	  0	  2	  1	0.41140	  0	0.90000	  0	 15	 47	 38	  1	
16-Apr-2013	sub2313	2313	  2	  0	 27	  3	  1	  1	  2	  3	  1	  2	  0	0.47912	  0	0.90000	  0	 11	 40	 41	  1	
16-Apr-2013	sub2313	2313	  2	  0	 28	  3	  1	  6	  5	  6	  0	  2	  0	0.90582	  1	0.90000	  1	 16	 37	 51	  0	
16-Apr-2013	sub2313	2313	  2	  0	 29	  3	  1	  2	  3	  3	  1	  2	  1	0.74320	  1	0.90000	  0	 12	 30	 31	  0	
16-Apr-2013	sub2313	2313	  2	  0	 30	  3	  1	  2	  3	  3	  1	  2	  1	0.38968	  1	0.90000	  0	 12	 30	 31	  1	
16-Apr-2013	sub2313	2313	  2	  0	 31	  3	  1	  5	  1	  3	  1	  2	  0	0.70659	  0	0.90000	  0	 15	 45	 46	  0	
16-Apr-2013	sub2313	2313	  2	  0	 32	  3	  1	  3	  4	  6	  1	  2	  0	0.59498	  0	0.90000	  0	 13	 42	 43	  0	
16-Apr-2013	sub2313	2313	  2	  0	 33	  3	  1	  1	  2	  3	  1	  2	  0	0.58593	  0	0.90000	  0	 11	 40	 41	  0	
16-Apr-2013	sub2313	2313	  2	  0	 34	  3	  1	  4	  6	  3	  1	  2	  1	0.62454	  1	0.90000	  0	 14	 32	 33	  0	
16-Apr-2013	sub2313	2313	  2	  0	 35	  3	  1	  3	  4	  6	  1	  1	  1	0.54874	  1	0.90000	  0	 13	 32	 33	  0	
16-Apr-2013	sub2313	2313	  2	  0	 36	  3	  1	  2	  3	  3	  1	  1	  0	0.36696	  0	0.90000	  0	 12	 40	 41	  1	
16-Apr-2013	sub2313	2313	  2	  0	 37	  3	  1	  5	  1	  3	  1	  2	  0	0.64904	  0	0.90000	  0	 15	 45	 46	  0	
16-Apr-2013	sub2313	2313	  2	  0	 38	  3	  1	  1	  2	  3	  1	  2	  0	0.74590	  0	0.90000	  0	 11	 40	 41	  0	
16-Apr-2013	sub2313	2313	  2	  0	 39	  3	  1	  6	  5	  6	  1	  1	  0	0.46411	  0	0.90000	  0	 16	 45	 46	  1	
16-Apr-2013	sub2313	2313	  2	  0	 40	  3	  1	  5	  1	  3	  0	  2	  1	0.32189	  0	0.90000	  0	 15	 47	 38	  1	
16-Apr-2013	sub2313	2313	  2	  0	 41	  3	  1	  3	  4	  6	  1	  2	  0	0.32809	  0	0.90000	  0	 13	 42	 43	  1	
16-Apr-2013	sub2313	2313	  2	  0	 42	  3	  1	  3	  4	  6	  1	  1	  1	0.42725	  1	0.90000	  0	 13	 32	 33	  1	
16-Apr-2013	sub2313	2313	  2	  0	 43	  3	  1	  1	  2	  3	  1	  1	  1	0.52964	  1	0.90000	  0	 11	 30	 31	  0	
16-Apr-2013	sub2313	2313	  2	  0	 44	  3	  1	  1	  2	  3	  1	  1	  1	0.51248	  1	0.80000	  0	 11	 30	 31	  0	
16-Apr-2013	sub2313	2313	  2	  0	 45	  3	  1	  3	  4	  6	  1	  1	  1	0.55845	  1	0.80000	  0	 13	 32	 33	  0	
16-Apr-2013	sub2313	2313	  2	  0	 46	  3	  1	  5	  1	  3	  0	  1	  0	0.46672	  1	0.80000	  0	 15	 37	 48	  1	
16-Apr-2013	sub2313	2313	  2	  0	 47	  3	  1	  2	  3	  3	  1	  1	  0	0.58514	  0	0.80000	  0	 12	 40	 41	  0	
16-Apr-2013	sub2313	2313	  2	  0	 48	  3	  1	  4	  6	  3	  1	  1	  0	0.61771	  0	0.80000	  0	 14	 42	 43	  0	
16-Apr-2013	sub2313	2313	  2	  0	 49	  3	  1	  3	  4	  6	  1	  2	  0	0.29302	  0	0.80000	  0	 13	 42	 43	  1	
16-Apr-2013	sub2313	2313	  2	  0	 50	  3	  1	  1	  2	  3	  1	  2	  0	0.54243	  0	0.80000	  0	 11	 40	 41	  0	
16-Apr-2013	sub2313	2313	  2	  0	 51	  3	  1	  1	  2	  3	  1	  2	  0	0.55202	  0	0.70000	  0	 11	 40	 41	  0	
16-Apr-2013	sub2313	2313	  2	  0	 52	  3	  1	  1	  2	  3	  1	  1	  1	0.62308	  1	0.70000	  0	 11	 30	 31	  0	
16-Apr-2013	sub2313	2313	  2	  0	 53	  3	  1	  5	  1	  3	  1	  2	  0	0.58976	  0	0.70000	  0	 15	 45	 46	  0	
16-Apr-2013	sub2313	2313	  2	  0	 54	  3	  1	  6	  5	  6	  1	  1	  0	0.49235	  0	0.70000	  0	 16	 45	 46	  1	
16-Apr-2013	sub2313	2313	  2	  0	 55	  3	  1	  6	  5	  6	  0	  2	  0	0.41286	  1	0.70000	  0	 16	 37	 48	  1	
16-Apr-2013	sub2313	2313	  2	  0	 56	  3	  1	  4	  6	  3	  1	  2	  1	0.72351	  1	0.70000	  1	 14	 32	 51	  0	
16-Apr-2013	sub2313	2313	  2	  0	 57	  3	  1	  3	  4	  6	  1	  2	  0	1.05712	  0	0.90000	  1	 13	 42	 51	  0	
16-Apr-2013	sub2313	2313	  2	  0	 58	  3	  1	  6	  5	  6	  0	  2	  0	0.28143	  1	0.90000	  0	 16	 37	 48	  1	
16-Apr-2013	sub2313	2313	  2	  0	 59	  3	  1	  2	  3	  3	  1	  2	  1	0.33871	  1	0.90000	  0	 12	 30	 31	  1	
16-Apr-2013	sub2313	2313	  2	  0	 60	  3	  1	  3	  4	  6	  0	  1	  0	0.42056	  1	0.90000	  0	 13	 34	 49	  1	
16-Apr-2013	sub2313	2313	  2	  0	 61	  3	  1	  1	  2	  3	  1	  2	  0	0.43705	  0	0.90000	  0	 11	 40	 41	  1	
16-Apr-2013	sub2313	2313	  2	  0	 62	  3	  1	  2	  3	  3	  1	  2	  1	0.44676	  1	0.90000	  0	 12	 30	 31	  1	
16-Apr-2013	sub2313	2313	  2	  0	 63	  3	  1	  2	  3	  3	  1	  2	  1	0.33777	  1	0.90000	  0	 12	 30	 31	  1	
16-Apr-2013	sub2313	2313	  2	  0	 64	  3	  1	  4	  6	  3	  1	  2	  1	0.59571	  1	0.90000	  0	 14	 32	 33	  0	
16-Apr-2013	sub2313	2313	  2	  0	 65	  3	  1	  6	  5	  6	  1	  2	  1	0.49671	  1	0.90000	  0	 16	 35	 36	  1	
16-Apr-2013	sub2313	2313	  2	  0	 66	  3	  1	  5	  1	  3	  0	  2	  1	0.56755	  0	0.90000	  0	 15	 47	 38	  0	
16-Apr-2013	sub2313	2313	  2	  0	 67	  3	  1	  6	  5	  6	  1	  1	  0	0.38784	  0	0.90000	  0	 16	 45	 46	  1	
16-Apr-2013	sub2313	2313	  2	  0	 68	  3	  1	  5	  1	  3	  1	  2	  0	0.47232	  0	0.90000	  0	 15	 45	 46	  1	
16-Apr-2013	sub2313	2313	  2	  0	 69	  3	  1	  2	  3	  3	  1	  2	  1	0.61045	  1	0.90000	  0	 12	 30	 31	  0	
16-Apr-2013	sub2313	2313	  2	  0	 70	  3	  1	  1	  2	  3	  1	  2	  0	0.36799	  0	0.90000	  0	 11	 40	 41	  1	
16-Apr-2013	sub2313	2313	  2	  0	 71	  3	  1	  4	  6	  3	  1	  1	  0	0.44892	  0	0.90000	  0	 14	 42	 43	  1	
16-Apr-2013	sub2313	2313	  2	  0	 72	  3	  1	  6	  5	  6	  0	  2	  0	0.42297	  1	0.90000	  0	 16	 37	 48	  1	
16-Apr-2013	sub2313	2313	  2	  0	 73	  3	  1	  5	  1	  3	  1	  2	  0	0.48245	  0	0.80000	  0	 15	 45	 46	  1	
16-Apr-2013	sub2313	2313	  2	  0	 74	  3	  1	  4	  6	  3	  1	  2	  1	0.49450	  1	0.80000	  0	 14	 32	 33	  1	
16-Apr-2013	sub2313	2313	  2	  0	 75	  3	  1	  5	  1	  3	  1	  1	  1	0.72011	  1	0.80000	  0	 15	 35	 36	  0	
16-Apr-2013	sub2313	2313	  2	  0	 76	  3	  2	  4	  6	  3	  1	  2	  1	0.55028	  1	0.80000	  0	 24	 62	 63	  0	
16-Apr-2013	sub2313	2313	  2	  0	 77	  3	  2	  2	  3	  3	  1	  1	  0	0.48698	  0	0.80000	  0	 22	 80	 81	  1	
16-Apr-2013	sub2313	2313	  2	  0	 78	  3	  2	  3	  4	  6	  1	  1	  1	0.57992	  1	0.80000	  0	 23	 62	 63	  0	
16-Apr-2013	sub2313	2313	  2	  0	 79	  3	  2	  4	  6	  3	  1	  2	  1	0.61851	  1	0.80000	  0	 24	 62	 63	  0	
16-Apr-2013	sub2313	2313	  2	  0	 80	  3	  2	  6	  5	  6	  1	  1	  0	0.61924	  0	0.80000	  0	 26	 85	 86	  0	
16-Apr-2013	sub2313	2313	  2	  0	 81	  3	  2	  3	  4	  6	  1	  2	  0	0.52135	  0	0.80000	  0	 23	 82	 83	  0	
16-Apr-2013	sub2313	2313	  2	  0	 82	  3	  2	  1	  2	  3	  1	  2	  0	0.59852	  0	0.80000	  0	 21	 80	 81	  0	
16-Apr-2013	sub2313	2313	  2	  0	 83	  3	  2	  1	  2	  3	  1	  1	  1	0.54125	  1	0.80000	  0	 21	 60	 61	  0	
16-Apr-2013	sub2313	2313	  2	  0	 84	  3	  2	  3	  4	  6	  1	  1	  1	0.36314	  1	0.80000	  0	 23	 62	 63	  1	
16-Apr-2013	sub2313	2313	  2	  0	 85	  3	  2	  3	  4	  6	  1	  1	  1	0.42768	  1	0.70000	  0	 23	 62	 63	  1	
16-Apr-2013	sub2313	2313	  2	  0	 86	  3	  2	  3	  4	  6	  0	  1	  0	0.42929	  1	0.70000	  0	 23	 64	 89	  1	
16-Apr-2013	sub2313	2313	  2	  0	 87	  3	  2	  5	  1	  3	  0	  1	  0	0.58088	  1	0.70000	  0	 25	 67	 88	  0	
16-Apr-2013	sub2313	2313	  2	  0	 88	  3	  2	  5	  1	  3	  0	  2	  1	0.22089	  0	0.70000	  0	 25	 87	 68	  1	
16-Apr-2013	sub2313	2313	  2	  0	 89	  3	  2	  5	  1	  3	  0	  2	  1	0.38717	  0	0.70000	  0	 25	 87	 68	  1	
16-Apr-2013	sub2313	2313	  2	  0	 90	  3	  2	  1	  2	  3	  1	  2	  0	0.57622	  0	0.70000	  0	 21	 80	 81	  0	
16-Apr-2013	sub2313	2313	  2	  0	 91	  3	  2	  3	  4	  6	  1	  2	  0	0.86756	  0	0.70000	  1	 23	 82	 51	  0	
16-Apr-2013	sub2313	2313	  2	  0	 92	  3	  2	  6	  5	  6	  1	  1	  0	0.59796	  0	0.80000	  0	 26	 85	 86	  0	
16-Apr-2013	sub2313	2313	  2	  0	 93	  3	  2	  6	  5	  6	  0	  2	  0	0.64378	  1	0.80000	  0	 26	 67	 88	  0	
16-Apr-2013	sub2313	2313	  2	  0	 94	  3	  2	  4	  6	  3	  0	  2	  0	0.72065	  1	0.80000	  0	 24	 64	 89	  0	
16-Apr-2013	sub2313	2313	  2	  0	 95	  3	  2	  5	  1	  3	  0	  1	  0	0.00009	  1	0.80000	  0	 25	 67	 88	  1	
16-Apr-2013	sub2313	2313	  2	  0	 96	  3	  2	  3	  4	  6	  1	  2	  0	8.42974	  0	0.80000	  1	 23	 82	 51	  0	
16-Apr-2013	sub2313	2313	  2	  0	 97	  3	  2	  2	  3	  3	  1	  2	  1	0.49757	  1	0.90000	  0	 22	 60	 61	  1	
16-Apr-2013	sub2313	2313	  2	  0	 98	  3	  2	  3	  4	  6	  1	  2	  0	0.67914	  0	0.90000	  0	 23	 82	 83	  0	
16-Apr-2013	sub2313	2313	  2	  0	 99	  3	  2	  2	  3	  3	  1	  2	  1	0.57030	  1	0.90000	  0	 22	 60	 61	  0	
16-Apr-2013	sub2313	2313	  2	  0	100	  3	  2	  3	  4	  6	  1	  1	  1	0.46478	  1	0.90000	  0	 23	 62	 63	  1	
16-Apr-2013	sub2313	2313	  2	  0	101	  3	  2	  3	  4	  6	  0	  1	  0	0.49266	  1	0.80000	  0	 23	 64	 89	  1	
16-Apr-2013	sub2313	2313	  2	  0	102	  3	  2	  2	  3	  3	  1	  2	  1	0.58984	  1	0.80000	  0	 22	 60	 61	  0	
16-Apr-2013	sub2313	2313	  2	  0	103	  3	  2	  6	  5	  6	  1	  1	  0	0.66794	  0	0.80000	  0	 26	 85	 86	  0	
16-Apr-2013	sub2313	2313	  2	  0	104	  3	  2	  3	  4	  6	  1	  2	  0	0.46255	  0	0.80000	  0	 23	 82	 83	  1	
16-Apr-2013	sub2313	2313	  2	  0	105	  3	  2	  5	  1	  3	  0	  2	  1	0.56030	  0	0.80000	  0	 25	 87	 68	  0	
16-Apr-2013	sub2313	2313	  2	  0	106	  3	  2	  5	  1	  3	  0	  1	  0	0.43182	  1	0.80000	  0	 25	 67	 88	  1	
16-Apr-2013	sub2313	2313	  2	  0	107	  3	  2	  4	  6	  3	  1	  2	  1	0.50535	  1	0.80000	  0	 24	 62	 63	  0	
16-Apr-2013	sub2313	2313	  2	  0	108	  3	  2	  1	  2	  3	  1	  2	  0	1.18637	  0	0.80000	  1	 21	 80	 51	  0	
16-Apr-2013	sub2313	2313	  2	  0	109	  3	  2	  4	  6	  3	  0	  2	  0	0.47890	  1	0.90000	  0	 24	 64	 89	  1	
16-Apr-2013	sub2313	2313	  2	  0	110	  3	  2	  6	  5	  6	  1	  1	  0	0.30595	  0	0.90000	  0	 26	 85	 86	  1	
16-Apr-2013	sub2313	2313	  2	  0	111	  3	  2	  4	  6	  3	  1	  2	  1	0.70836	  1	0.90000	  0	 24	 62	 63	  0	
16-Apr-2013	sub2313	2313	  2	  0	112	  3	  2	  1	  2	  3	  1	  2	  0	0.47629	  0	0.90000	  0	 21	 80	 81	  1	
16-Apr-2013	sub2313	2313	  2	  0	113	  3	  2	  2	  3	  3	  1	  2	  1	0.51479	  1	0.90000	  0	 22	 60	 61	  0	
16-Apr-2013	sub2313	2313	  2	  0	114	  3	  2	  6	  5	  6	  1	  2	  1	0.58001	  1	0.90000	  0	 26	 65	 66	  0	
16-Apr-2013	sub2313	2313	  2	  0	115	  3	  2	  6	  5	  6	  0	  2	  0	0.44262	  1	0.90000	  0	 26	 67	 88	  1	
16-Apr-2013	sub2313	2313	  2	  0	116	  3	  2	  2	  3	  3	  1	  1	  0	0.25670	  0	0.80000	  0	 22	 80	 81	  1	
16-Apr-2013	sub2313	2313	  2	  0	117	  3	  2	  1	  2	  3	  1	  2	  0	0.53272	  0	0.80000	  0	 21	 80	 81	  0	
16-Apr-2013	sub2313	2313	  2	  0	118	  3	  2	  5	  1	  3	  0	  2	  1	0.53465	  0	0.80000	  0	 25	 87	 68	  0	
16-Apr-2013	sub2313	2313	  2	  0	119	  3	  2	  2	  3	  3	  1	  2	  1	0.31052	  1	0.80000	  0	 22	 60	 61	  1	
16-Apr-2013	sub2313	2313	  2	  0	120	  3	  2	  5	  1	  3	  0	  1	  0	0.49687	  1	0.80000	  0	 25	 67	 88	  1	
16-Apr-2013	sub2313	2313	  2	  0	121	  3	  2	  5	  1	  3	  0	  2	  1	0.44819	  0	0.80000	  0	 25	 87	 68	  1	
16-Apr-2013	sub2313	2313	  2	  0	122	  3	  2	  2	  3	  3	  1	  2	  1	0.45928	  1	0.80000	  0	 22	 60	 61	  1	
16-Apr-2013	sub2313	2313	  2	  0	123	  3	  2	  2	  3	  3	  1	  2	  1	0.39364	  1	0.80000	  0	 22	 60	 61	  1	
16-Apr-2013	sub2313	2313	  2	  0	124	  3	  2	  2	  3	  3	  1	  2	  1	0.42676	  1	0.80000	  0	 22	 60	 61	  1	
16-Apr-2013	sub2313	2313	  2	  0	125	  3	  2	  4	  6	  3	  1	  2	  1	0.54183	  1	0.80000	  0	 24	 62	 63	  0	
16-Apr-2013	sub2313	2313	  2	  0	126	  3	  2	  5	  1	  3	  0	  2	  1	0.66018	  0	0.80000	  0	 25	 87	 68	  0	
16-Apr-2013	sub2313	2313	  2	  0	127	  3	  2	  4	  6	  3	  1	  2	  1	0.41641	  1	0.80000	  0	 24	 62	 63	  1	
16-Apr-2013	sub2313	2313	  2	  0	128	  3	  2	  1	  2	  3	  1	  2	  0	0.92875	  0	0.80000	  1	 21	 80	 51	  0	
16-Apr-2013	sub2313	2313	  2	  0	129	  3	  2	  6	  5	  6	  0	  2	  0	0.56926	  1	0.90000	  0	 26	 67	 88	  0	
16-Apr-2013	sub2313	2313	  2	  0	130	  3	  2	  1	  2	  3	  1	  1	  1	0.34503	  1	0.80000	  0	 21	 60	 61	  1	
16-Apr-2013	sub2313	2313	  2	  0	131	  3	  2	  6	  5	  6	  0	  1	  1	0.58049	  0	0.80000	  0	 26	 87	 68	  0	
16-Apr-2013	sub2313	2313	  2	  0	132	  3	  2	  1	  2	  3	  1	  1	  1	0.37285	  1	0.80000	  0	 21	 60	 61	  1	
16-Apr-2013	sub2313	2313	  2	  0	133	  3	  2	  5	  1	  3	  0	  2	  1	0.58855	  0	0.80000	  0	 25	 87	 68	  0	
16-Apr-2013	sub2313	2313	  2	  0	134	  3	  2	  5	  1	  3	  0	  2	  1	0.54381	  0	0.80000	  0	 25	 87	 68	  0	
16-Apr-2013	sub2313	2313	  2	  0	135	  3	  2	  1	  2	  3	  1	  2	  0	0.56671	  0	0.80000	  0	 21	 80	 81	  0	
16-Apr-2013	sub2313	2313	  2	  0	136	  3	  2	  6	  5	  6	  0	  1	  1	0.62012	  0	0.80000	  0	 26	 87	 68	  0	
16-Apr-2013	sub2313	2313	  2	  0	137	  3	  2	  6	  5	  6	  1	  1	  0	0.44858	  0	0.80000	  0	 26	 85	 86	  1	
16-Apr-2013	sub2313	2313	  2	  0	138	  3	  2	  4	  6	  3	  1	  1	  0	0.40950	  0	0.80000	  0	 24	 82	 83	  1	
16-Apr-2013	sub2313	2313	  2	  0	139	  3	  2	  1	  2	  3	  1	  1	  1	0.71819	  1	0.80000	  0	 21	 60	 61	  0	
16-Apr-2013	sub2313	2313	  2	  0	140	  3	  2	  6	  5	  6	  0	  2	  0	0.44230	  1	0.80000	  0	 26	 67	 88	  1	
16-Apr-2013	sub2313	2313	  2	  0	141	  3	  2	  3	  4	  6	  1	  1	  1	0.70500	  1	0.80000	  0	 23	 62	 63	  0	
16-Apr-2013	sub2313	2313	  2	  0	142	  3	  2	  1	  2	  3	  1	  1	  1	0.75019	  1	0.80000	  0	 21	 60	 61	  0	
16-Apr-2013	sub2313	2313	  2	  0	143	  3	  2	  4	  6	  3	  0	  2	  0	0.69926	  1	0.80000	  0	 24	 64	 89	  0	
16-Apr-2013	sub2313	2313	  2	  0	144	  3	  2	  1	  2	  3	  1	  1	  1	0.35251	  1	0.80000	  0	 21	 60	 61	  1	
16-Apr-2013	sub2313	2313	  2	  0	145	  3	  2	  4	  6	  3	  1	  1	  0	0.40376	  0	0.80000	  0	 24	 82	 83	  1	
16-Apr-2013	sub2313	2313	  2	  0	146	  3	  2	  5	  1	  3	  0	  2	  1	0.65750	  0	0.80000	  0	 25	 87	 68	  0	
16-Apr-2013	sub2313	2313	  2	  0	147	  3	  2	  4	  6	  3	  1	  2	  1	0.51424	  1	0.80000	  0	 24	 62	 63	  0	
16-Apr-2013	sub2313	2313	  2	  0	148	  3	  2	  2	  3	  3	  1	  2	  1	0.81834	  1	0.80000	  1	 22	 60	 51	  0	
16-Apr-2013	sub2313	2313	  2	  0	149	  3	  2	  2	  3	  3	  1	  2	  1	0.39593	  1	0.80000	  0	 22	 60	 61	  1	
16-Apr-2013	sub2313	2313	  2	  0	150	  3	  2	  4	  6	  3	  1	  2	  1	0.55681	  1	0.80000	  0	 24	 62	 63	  0	
16-Apr-2013	sub2313	2313	  2	  0	  1	  4	  1	  6	  5	  2	  0	  1	  1	0.56635	  0	0.60000	  0	 16	 47	 38	  0	
16-Apr-2013	sub2313	2313	  2	  0	  2	  4	  1	  4	  2	  4	  1	  1	  0	0.61710	  0	0.30000	  1	 14	 42	 51	  0	
16-Apr-2013	sub2313	2313	  2	  0	  3	  4	  1	  5	  6	  2	  0	  1	  0	0.42455	  1	0.90000	  0	 15	 37	 48	  1	
16-Apr-2013	sub2313	2313	  2	  0	  4	  4	  1	  1	  4	  2	  1	  1	  1	0.57101	  1	0.90000	  0	 11	 30	 31	  0	
16-Apr-2013	sub2313	2313	  2	  0	  5	  4	  1	  5	  6	  2	  1	  2	  0	0.67172	  0	0.90000	  0	 15	 45	 46	  0	
16-Apr-2013	sub2313	2313	  2	  0	  6	  4	  1	  2	  3	  4	  1	  1	  0	0.40167	  0	0.90000	  0	 12	 40	 41	  1	
16-Apr-2013	sub2313	2313	  2	  0	  7	  4	  1	  6	  5	  2	  1	  2	  1	0.29992	  1	0.90000	  0	 16	 35	 36	  1	
16-Apr-2013	sub2313	2313	  2	  0	  8	  4	  1	  3	  1	  6	  1	  2	  0	0.48375	  0	0.90000	  0	 13	 42	 43	  1	
16-Apr-2013	sub2313	2313	  2	  0	  9	  4	  1	  2	  3	  4	  1	  2	  1	0.37423	  1	0.90000	  0	 12	 30	 31	  1	
16-Apr-2013	sub2313	2313	  2	  0	 10	  4	  1	  2	  3	  4	  1	  1	  0	0.33879	  0	0.90000	  0	 12	 40	 41	  1	
16-Apr-2013	sub2313	2313	  2	  0	 11	  4	  1	  6	  5	  2	  0	  1	  1	0.63119	  0	0.90000	  0	 16	 47	 38	  0	
16-Apr-2013	sub2313	2313	  2	  0	 12	  4	  1	  1	  4	  2	  1	  1	  1	0.56637	  1	0.90000	  0	 11	 30	 31	  0	
16-Apr-2013	sub2313	2313	  2	  0	 13	  4	  1	  5	  6	  2	  1	  1	  1	0.83707	  1	0.90000	  0	 15	 35	 36	  0	
16-Apr-2013	sub2313	2313	  2	  0	 14	  4	  1	  6	  5	  2	  1	  2	  1	0.48291	  1	0.90000	  0	 16	 35	 36	  1	
16-Apr-2013	sub2313	2313	  2	  0	 15	  4	  1	  3	  1	  6	  0	  1	  0	0.48064	  1	0.90000	  0	 13	 34	 49	  1	
16-Apr-2013	sub2313	2313	  2	  0	 16	  4	  1	  6	  5	  2	  0	  2	  0	0.33725	  1	0.80000	  0	 16	 37	 48	  1	
16-Apr-2013	sub2313	2313	  2	  0	 17	  4	  1	  1	  4	  2	  1	  2	  0	0.46204	  0	0.80000	  0	 11	 40	 41	  1	
16-Apr-2013	sub2313	2313	  2	  0	 18	  4	  1	  2	  3	  4	  1	  2	  1	0.40994	  1	0.70000	  0	 12	 30	 31	  1	
16-Apr-2013	sub2313	2313	  2	  0	 19	  4	  1	  4	  2	  4	  0	  1	  1	0.32158	  0	0.70000	  0	 14	 44	 39	  1	
16-Apr-2013	sub2313	2313	  2	  0	 20	  4	  1	  1	  4	  2	  1	  2	  0	0.43444	  0	0.70000	  0	 11	 40	 41	  1	
16-Apr-2013	sub2313	2313	  2	  0	 21	  4	  1	  2	  3	  4	  1	  2	  1	0.56203	  1	0.60000	  0	 12	 30	 31	  0	
16-Apr-2013	sub2313	2313	  2	  0	 22	  4	  1	  6	  5	  2	  1	  2	  1	0.56999	  1	0.60000	  0	 16	 35	 36	  0	
16-Apr-2013	sub2313	2313	  2	  0	 23	  4	  1	  6	  5	  2	  0	  2	  0	0.51272	  1	0.60000	  0	 16	 37	 48	  0	
16-Apr-2013	sub2313	2313	  2	  0	 24	  4	  1	  1	  4	  2	  1	  2	  0	0.48572	  0	0.60000	  0	 11	 40	 41	  1	
16-Apr-2013	sub2313	2313	  2	  0	 25	  4	  1	  3	  1	  6	  1	  2	  0	0.51307	  0	0.60000	  0	 13	 42	 43	  0	
16-Apr-2013	sub2313	2313	  2	  0	 26	  4	  1	  1	  4	  2	  1	  2	  0	0.84538	  0	0.50000	  1	 11	 40	 51	  0	
16-Apr-2013	sub2313	2313	  2	  0	 27	  4	  1	  5	  6	  2	  0	  1	  0	0.48196	  1	0.90000	  0	 15	 37	 48	  1	
16-Apr-2013	sub2313	2313	  2	  0	 28	  4	  1	  3	  1	  6	  1	  1	  1	0.34220	  1	0.90000	  0	 13	 32	 33	  1	
16-Apr-2013	sub2313	2313	  2	  0	 29	  4	  1	  4	  2	  4	  1	  1	  0	0.53892	  0	0.90000	  0	 14	 42	 43	  0	
16-Apr-2013	sub2313	2313	  2	  0	 30	  4	  1	  2	  3	  4	  1	  1	  0	0.48467	  0	0.80000	  0	 12	 40	 41	  1	
16-Apr-2013	sub2313	2313	  2	  0	 31	  4	  1	  3	  1	  6	  1	  2	  0	0.66438	  0	0.80000	  0	 13	 42	 43	  0	
16-Apr-2013	sub2313	2313	  2	  0	 32	  4	  1	  1	  4	  2	  1	  2	  0	0.64006	  0	0.80000	  0	 11	 40	 41	  0	
16-Apr-2013	sub2313	2313	  2	  0	 33	  4	  1	  1	  4	  2	  1	  1	  1	0.50607	  1	0.80000	  0	 11	 30	 31	  0	
16-Apr-2013	sub2313	2313	  2	  0	 34	  4	  1	  3	  1	  6	  1	  1	  1	0.40289	  1	0.80000	  0	 13	 32	 33	  1	
16-Apr-2013	sub2313	2313	  2	  0	 35	  4	  1	  6	  5	  2	  0	  1	  1	0.47475	  0	0.70000	  0	 16	 47	 38	  1	
16-Apr-2013	sub2313	2313	  2	  0	 36	  4	  1	  6	  5	  2	  1	  1	  0	0.50476	  0	0.70000	  0	 16	 45	 46	  0	
16-Apr-2013	sub2313	2313	  2	  0	 37	  4	  1	  3	  1	  6	  1	  1	  1	0.48017	  1	0.70000	  0	 13	 32	 33	  1	
16-Apr-2013	sub2313	2313	  2	  0	 38	  4	  1	  2	  3	  4	  1	  2	  1	0.69521	  1	0.70000	  0	 12	 30	 31	  0	
16-Apr-2013	sub2313	2313	  2	  0	 39	  4	  1	  4	  2	  4	  1	  1	  0	0.57826	  0	0.70000	  0	 14	 42	 43	  0	
16-Apr-2013	sub2313	2313	  2	  0	 40	  4	  1	  1	  4	  2	  1	  1	  1	1.22191	  1	0.70000	  1	 11	 30	 51	  0	
16-Apr-2013	sub2313	2313	  2	  0	 41	  4	  1	  3	  1	  6	  1	  1	  1	0.36540	  1	0.90000	  0	 13	 32	 33	  1	
16-Apr-2013	sub2313	2313	  2	  0	 42	  4	  1	  5	  6	  2	  1	  2	  0	0.72819	  0	0.90000	  0	 15	 45	 46	  0	
16-Apr-2013	sub2313	2313	  2	  0	 43	  4	  1	  5	  6	  2	  1	  1	  1	0.31916	  1	0.90000	  0	 15	 35	 36	  1	
16-Apr-2013	sub2313	2313	  2	  0	 44	  4	  1	  4	  2	  4	  1	  1	  0	0.46170	  0	0.80000	  0	 14	 42	 43	  1	
16-Apr-2013	sub2313	2313	  2	  0	 45	  4	  1	  6	  5	  2	  0	  2	  0	0.58680	  1	0.80000	  0	 16	 37	 48	  0	
16-Apr-2013	sub2313	2313	  2	  0	 46	  4	  1	  5	  6	  2	  1	  2	  0	0.60581	  0	0.80000	  0	 15	 45	 46	  0	
16-Apr-2013	sub2313	2313	  2	  0	 47	  4	  1	  3	  1	  6	  0	  2	  1	0.28704	  0	0.80000	  0	 13	 44	 39	  1	
16-Apr-2013	sub2313	2313	  2	  0	 48	  4	  1	  5	  6	  2	  0	  2	  1	0.52853	  0	0.80000	  0	 15	 47	 38	  0	
16-Apr-2013	sub2313	2313	  2	  0	 49	  4	  1	  5	  6	  2	  0	  2	  1	0.43057	  0	0.80000	  0	 15	 47	 38	  1	
16-Apr-2013	sub2313	2313	  2	  0	 50	  4	  1	  6	  5	  2	  0	  2	  0	0.30626	  1	0.80000	  0	 16	 37	 48	  1	
16-Apr-2013	sub2313	2313	  2	  0	 51	  4	  1	  1	  4	  2	  1	  2	  0	0.32423	  0	0.70000	  0	 11	 40	 41	  1	
16-Apr-2013	sub2313	2313	  2	  0	 52	  4	  1	  5	  6	  2	  0	  2	  1	0.29712	  0	0.70000	  0	 15	 47	 38	  1	
16-Apr-2013	sub2313	2313	  2	  0	 53	  4	  1	  3	  1	  6	  0	  1	  0	0.63954	  1	0.70000	  0	 13	 34	 49	  0	
16-Apr-2013	sub2313	2313	  2	  0	 54	  4	  1	  3	  1	  6	  1	  2	  0	0.39244	  0	0.70000	  0	 13	 42	 43	  1	
16-Apr-2013	sub2313	2313	  2	  0	 55	  4	  1	  3	  1	  6	  1	  2	  0	0.37948	  0	0.70000	  0	 13	 42	 43	  1	
16-Apr-2013	sub2313	2313	  2	  0	 56	  4	  1	  4	  2	  4	  1	  2	  1	0.63065	  1	0.70000	  0	 14	 32	 33	  0	
16-Apr-2013	sub2313	2313	  2	  0	 57	  4	  1	  4	  2	  4	  1	  2	  1	0.57925	  1	0.70000	  0	 14	 32	 33	  0	
16-Apr-2013	sub2313	2313	  2	  0	 58	  4	  1	  3	  1	  6	  1	  1	  1	0.69391	  1	0.70000	  0	 13	 32	 33	  0	
16-Apr-2013	sub2313	2313	  2	  0	 59	  4	  1	  2	  3	  4	  1	  1	  0	0.50179	  0	0.70000	  0	 12	 40	 41	  0	
16-Apr-2013	sub2313	2313	  2	  0	 60	  4	  1	  2	  3	  4	  1	  2	  1	0.34543	  1	0.70000	  0	 12	 30	 31	  1	
16-Apr-2013	sub2313	2313	  2	  0	 61	  4	  1	  5	  6	  2	  1	  2	  0	0.35027	  0	0.60000	  0	 15	 45	 46	  1	
16-Apr-2013	sub2313	2313	  2	  0	 62	  4	  1	  5	  6	  2	  1	  1	  1	0.72410	  1	0.60000	  1	 15	 35	 51	  0	
16-Apr-2013	sub2313	2313	  2	  0	 63	  4	  1	  1	  4	  2	  1	  2	  0	0.36608	  0	0.80000	  0	 11	 40	 41	  1	
16-Apr-2013	sub2313	2313	  2	  0	 64	  4	  1	  4	  2	  4	  1	  2	  1	0.57731	  1	0.80000	  0	 14	 32	 33	  0	
16-Apr-2013	sub2313	2313	  2	  0	 65	  4	  1	  2	  3	  4	  1	  2	  1	0.50188	  1	0.80000	  0	 12	 30	 31	  0	
16-Apr-2013	sub2313	2313	  2	  0	 66	  4	  1	  6	  5	  2	  1	  2	  1	0.34921	  1	0.80000	  0	 16	 35	 36	  1	
16-Apr-2013	sub2313	2313	  2	  0	 67	  4	  1	  4	  2	  4	  1	  1	  0	0.35397	  0	0.80000	  0	 14	 42	 43	  1	
16-Apr-2013	sub2313	2313	  2	  0	 68	  4	  1	  4	  2	  4	  1	  2	  1	0.49458	  1	0.70000	  0	 14	 32	 33	  1	
16-Apr-2013	sub2313	2313	  2	  0	 69	  4	  1	  4	  2	  4	  1	  2	  1	0.48366	  1	0.70000	  0	 14	 32	 33	  1	
16-Apr-2013	sub2313	2313	  2	  0	 70	  4	  1	  6	  5	  2	  0	  2	  0	0.62589	  1	0.70000	  0	 16	 37	 48	  0	
16-Apr-2013	sub2313	2313	  2	  0	 71	  4	  1	  2	  3	  4	  1	  2	  1	0.58072	  1	0.70000	  0	 12	 30	 31	  0	
16-Apr-2013	sub2313	2313	  2	  0	 72	  4	  1	  4	  2	  4	  0	  2	  0	0.42838	  1	0.70000	  0	 14	 34	 49	  1	
16-Apr-2013	sub2313	2313	  2	  0	 73	  4	  1	  1	  4	  2	  1	  2	  0	0.54861	  0	0.70000	  0	 11	 40	 41	  0	
16-Apr-2013	sub2313	2313	  2	  0	 74	  4	  1	  2	  3	  4	  1	  2	  1	0.64494	  1	0.70000	  0	 12	 30	 31	  0	
16-Apr-2013	sub2313	2313	  2	  0	 75	  4	  1	  2	  3	  4	  1	  2	  1	0.45176	  1	0.70000	  0	 12	 30	 31	  1	
16-Apr-2013	sub2313	2313	  2	  0	 76	  4	  2	  1	  4	  2	  1	  1	  1	0.67544	  1	0.70000	  0	 21	 60	 61	  0	
16-Apr-2013	sub2313	2313	  2	  0	 77	  4	  2	  4	  2	  4	  1	  2	  1	0.58385	  1	0.70000	  0	 24	 62	 63	  0	
16-Apr-2013	sub2313	2313	  2	  0	 78	  4	  2	  6	  5	  2	  0	  2	  0	0.63680	  1	0.70000	  0	 26	 67	 88	  0	
16-Apr-2013	sub2313	2313	  2	  0	 79	  4	  2	  3	  1	  6	  1	  1	  1	0.60014	  1	0.70000	  0	 23	 62	 63	  0	
16-Apr-2013	sub2313	2313	  2	  0	 80	  4	  2	  3	  1	  6	  0	  1	  0	0.43976	  1	0.70000	  0	 23	 64	 89	  1	
16-Apr-2013	sub2313	2313	  2	  0	 81	  4	  2	  4	  2	  4	  1	  1	  0	0.51919	  0	0.60000	  0	 24	 82	 83	  0	
16-Apr-2013	sub2313	2313	  2	  0	 82	  4	  2	  1	  4	  2	  1	  2	  0	0.36282	  0	0.60000	  0	 21	 80	 81	  1	
16-Apr-2013	sub2313	2313	  2	  0	 83	  4	  2	  1	  4	  2	  1	  1	  1	0.54759	  1	0.60000	  0	 21	 60	 61	  0	
16-Apr-2013	sub2313	2313	  2	  0	 84	  4	  2	  6	  5	  2	  1	  2	  1	0.57663	  1	0.60000	  0	 26	 65	 66	  0	
16-Apr-2013	sub2313	2313	  2	  0	 85	  4	  2	  1	  4	  2	  1	  1	  1	0.88899	  1	0.60000	  1	 21	 60	 51	  0	
16-Apr-2013	sub2313	2313	  2	  0	 86	  4	  2	  1	  4	  2	  1	  1	  1	0.44130	  1	0.70000	  0	 21	 60	 61	  1	
16-Apr-2013	sub2313	2313	  2	  0	 87	  4	  2	  5	  6	  2	  0	  2	  1	0.57521	  0	0.70000	  0	 25	 87	 68	  0	
16-Apr-2013	sub2313	2313	  2	  0	 88	  4	  2	  4	  2	  4	  1	  2	  1	0.69492	  1	0.70000	  0	 24	 62	 63	  0	
16-Apr-2013	sub2313	2313	  2	  0	 89	  4	  2	  3	  1	  6	  1	  2	  0	0.71268	  0	0.70000	  1	 23	 82	 51	  0	
16-Apr-2013	sub2313	2313	  2	  0	 90	  4	  2	  1	  4	  2	  1	  1	  1	0.34112	  1	0.80000	  0	 21	 60	 61	  1	
16-Apr-2013	sub2313	2313	  2	  0	 91	  4	  2	  4	  2	  4	  0	  2	  0	0.62888	  1	0.80000	  0	 24	 64	 89	  0	
16-Apr-2013	sub2313	2313	  2	  0	 92	  4	  2	  2	  3	  4	  1	  1	  0	0.49771	  0	0.80000	  0	 22	 80	 81	  1	
16-Apr-2013	sub2313	2313	  2	  0	 93	  4	  2	  4	  2	  4	  1	  2	  1	0.75688	  1	0.80000	  0	 24	 62	 63	  0	
16-Apr-2013	sub2313	2313	  2	  0	 94	  4	  2	  6	  5	  2	  1	  2	  1	0.45600	  1	0.80000	  0	 26	 65	 66	  1	
16-Apr-2013	sub2313	2313	  2	  0	 95	  4	  2	  4	  2	  4	  0	  2	  0	0.54405	  1	0.80000	  0	 24	 64	 89	  0	
16-Apr-2013	sub2313	2313	  2	  0	 96	  4	  2	  3	  1	  6	  1	  1	  1	0.66667	  1	0.80000	  0	 23	 62	 63	  0	
16-Apr-2013	sub2313	2313	  2	  0	 97	  4	  2	  5	  6	  2	  0	  2	  1	0.70442	  0	0.80000	  0	 25	 87	 68	  0	
16-Apr-2013	sub2313	2313	  2	  0	 98	  4	  2	  5	  6	  2	  0	  2	  1	0.41889	  0	0.80000	  0	 25	 87	 68	  1	
16-Apr-2013	sub2313	2313	  2	  0	 99	  4	  2	  2	  3	  4	  1	  2	  1	0.64068	  1	0.80000	  0	 22	 60	 61	  0	
16-Apr-2013	sub2313	2313	  2	  0	100	  4	  2	  5	  6	  2	  0	  2	  1	0.52626	  0	0.80000	  0	 25	 87	 68	  0	
16-Apr-2013	sub2313	2313	  2	  0	101	  4	  2	  3	  1	  6	  1	  1	  1	0.59291	  1	0.70000	  0	 23	 62	 63	  0	
16-Apr-2013	sub2313	2313	  2	  0	102	  4	  2	  4	  2	  4	  0	  2	  0	0.53418	  1	0.70000	  0	 24	 64	 89	  0	
16-Apr-2013	sub2313	2313	  2	  0	103	  4	  2	  3	  1	  6	  0	  1	  0	0.63755	  1	0.70000	  0	 23	 64	 89	  0	
16-Apr-2013	sub2313	2313	  2	  0	104	  4	  2	  6	  5	  2	  0	  2	  0	0.69268	  1	0.70000	  0	 26	 67	 88	  0	
16-Apr-2013	sub2313	2313	  2	  0	105	  4	  2	  6	  5	  2	  0	  2	  0	0.28555	  1	0.70000	  0	 26	 67	 88	  1	
16-Apr-2013	sub2313	2313	  2	  0	106	  4	  2	  6	  5	  2	  1	  2	  1	0.66867	  1	0.70000	  0	 26	 65	 66	  0	
16-Apr-2013	sub2313	2313	  2	  0	107	  4	  2	  5	  6	  2	  0	  2	  1	0.60548	  0	0.70000	  0	 25	 87	 68	  0	
16-Apr-2013	sub2313	2313	  2	  0	108	  4	  2	  2	  3	  4	  1	  1	  0	0.74879	  0	0.70000	  1	 22	 80	 51	  0	
16-Apr-2013	sub2313	2313	  2	  0	109	  4	  2	  2	  3	  4	  1	  2	  1	0.44753	  1	0.80000	  0	 22	 60	 61	  1	
16-Apr-2013	sub2313	2313	  2	  0	110	  4	  2	  1	  4	  2	  1	  2	  0	0.52045	  0	0.80000	  0	 21	 80	 81	  0	
16-Apr-2013	sub2313	2313	  2	  0	111	  4	  2	  4	  2	  4	  1	  2	  1	0.58116	  1	0.80000	  0	 24	 62	 63	  0	
16-Apr-2013	sub2313	2313	  2	  0	112	  4	  2	  1	  4	  2	  1	  1	  1	0.46196	  1	0.80000	  0	 21	 60	 61	  1	
16-Apr-2013	sub2313	2313	  2	  0	113	  4	  2	  2	  3	  4	  1	  2	  1	0.62390	  1	0.80000	  0	 22	 60	 61	  0	
16-Apr-2013	sub2313	2313	  2	  0	114	  4	  2	  6	  5	  2	  1	  2	  1	0.40924	  1	0.80000	  0	 26	 65	 66	  1	
16-Apr-2013	sub2313	2313	  2	  0	115	  4	  2	  5	  6	  2	  0	  1	  0	0.29865	  1	0.80000	  0	 25	 67	 88	  1	
16-Apr-2013	sub2313	2313	  2	  0	116	  4	  2	  5	  6	  2	  0	  1	  0	0.52346	  1	0.80000	  0	 25	 67	 88	  0	
16-Apr-2013	sub2313	2313	  2	  0	117	  4	  2	  5	  6	  2	  0	  2	  1	0.37320	  0	0.80000	  0	 25	 87	 68	  1	
16-Apr-2013	sub2313	2313	  2	  0	118	  4	  2	  5	  6	  2	  0	  2	  1	0.53859	  0	0.70000	  0	 25	 87	 68	  0	
16-Apr-2013	sub2313	2313	  2	  0	119	  4	  2	  2	  3	  4	  1	  2	  1	0.68203	  1	0.70000	  0	 22	 60	 61	  0	
16-Apr-2013	sub2313	2313	  2	  0	120	  4	  2	  2	  3	  4	  1	  2	  1	0.47789	  1	0.70000	  0	 22	 60	 61	  1	
16-Apr-2013	sub2313	2313	  2	  0	121	  4	  2	  5	  6	  2	  0	  1	  0	0.37818	  1	0.70000	  0	 25	 67	 88	  1	
16-Apr-2013	sub2313	2313	  2	  0	122	  4	  2	  6	  5	  2	  1	  2	  1	0.37141	  1	0.70000	  0	 26	 65	 66	  1	
16-Apr-2013	sub2313	2313	  2	  0	123	  4	  2	  1	  4	  2	  1	  1	  1	0.57831	  1	0.70000	  0	 21	 60	 61	  0	
16-Apr-2013	sub2313	2313	  2	  0	124	  4	  2	  3	  1	  6	  1	  1	  1	0.51809	  1	0.70000	  0	 23	 62	 63	  0	
16-Apr-2013	sub2313	2313	  2	  0	125	  4	  2	  6	  5	  2	  0	  1	  1	0.76074	  0	0.70000	  1	 26	 87	 51	  0	
16-Apr-2013	sub2313	2313	  2	  0	126	  4	  2	  2	  3	  4	  1	  2	  1	0.35652	  1	0.80000	  0	 22	 60	 61	  1	
16-Apr-2013	sub2313	2313	  2	  0	127	  4	  2	  3	  1	  6	  1	  2	  0	0.71272	  0	0.80000	  0	 23	 82	 83	  0	
16-Apr-2013	sub2313	2313	  2	  0	128	  4	  2	  1	  4	  2	  1	  1	  1	0.55934	  1	0.80000	  0	 21	 60	 61	  0	
16-Apr-2013	sub2313	2313	  2	  0	129	  4	  2	  1	  4	  2	  1	  1	  1	0.28393	  1	0.80000	  0	 21	 60	 61	  1	
16-Apr-2013	sub2313	2313	  2	  0	130	  4	  2	  2	  3	  4	  1	  2	  1	0.49857	  1	0.80000	  0	 22	 60	 61	  1	
16-Apr-2013	sub2313	2313	  2	  0	131	  4	  2	  2	  3	  4	  1	  2	  1	0.43870	  1	0.80000	  0	 22	 60	 61	  1	
16-Apr-2013	sub2313	2313	  2	  0	132	  4	  2	  2	  3	  4	  1	  2	  1	0.56764	  1	0.80000	  0	 22	 60	 61	  0	
16-Apr-2013	sub2313	2313	  2	  0	133	  4	  2	  5	  6	  2	  0	  2	  1	0.55291	  0	0.80000	  0	 25	 87	 68	  0	
16-Apr-2013	sub2313	2313	  2	  0	134	  4	  2	  1	  4	  2	  1	  1	  1	0.64520	  1	0.80000	  0	 21	 60	 61	  0	
16-Apr-2013	sub2313	2313	  2	  0	135	  4	  2	  3	  1	  6	  1	  1	  1	0.55721	  1	0.70000	  0	 23	 62	 63	  0	
16-Apr-2013	sub2313	2313	  2	  0	136	  4	  2	  2	  3	  4	  1	  2	  1	0.52092	  1	0.70000	  0	 22	 60	 61	  0	
16-Apr-2013	sub2313	2313	  2	  0	137	  4	  2	  3	  1	  6	  1	  2	  0	0.67933	  0	0.70000	  0	 23	 82	 83	  0	
16-Apr-2013	sub2313	2313	  2	  0	138	  4	  2	  4	  2	  4	  1	  2	  1	0.57058	  1	0.70000	  0	 24	 62	 63	  0	
16-Apr-2013	sub2313	2313	  2	  0	139	  4	  2	  5	  6	  2	  0	  2	  1	0.45080	  0	0.70000	  0	 25	 87	 68	  1	
16-Apr-2013	sub2313	2313	  2	  0	140	  4	  2	  1	  4	  2	  1	  1	  1	0.57835	  1	0.70000	  0	 21	 60	 61	  0	
16-Apr-2013	sub2313	2313	  2	  0	141	  4	  2	  6	  5	  2	  0	  2	  0	0.58838	  1	0.70000	  0	 26	 67	 88	  0	
16-Apr-2013	sub2313	2313	  2	  0	142	  4	  2	  3	  1	  6	  1	  1	  1	0.68666	  1	0.70000	  0	 23	 62	 63	  0	
16-Apr-2013	sub2313	2313	  2	  0	143	  4	  2	  4	  2	  4	  1	  1	  0	0.60144	  0	0.70000	  0	 24	 82	 83	  0	
16-Apr-2013	sub2313	2313	  2	  0	144	  4	  2	  4	  2	  4	  1	  2	  1	0.48640	  1	0.70000	  0	 24	 62	 63	  1	
16-Apr-2013	sub2313	2313	  2	  0	145	  4	  2	  6	  5	  2	  0	  1	  1	0.79391	  0	0.70000	  1	 26	 87	 51	  0	
16-Apr-2013	sub2313	2313	  2	  0	146	  4	  2	  6	  5	  2	  1	  1	  0	0.39938	  0	0.80000	  0	 26	 85	 86	  1	
16-Apr-2013	sub2313	2313	  2	  0	147	  4	  2	  4	  2	  4	  1	  2	  1	0.51684	  1	0.80000	  0	 24	 62	 63	  0	
16-Apr-2013	sub2313	2313	  2	  0	148	  4	  2	  5	  6	  2	  0	  2	  1	0.54048	  0	0.80000	  0	 25	 87	 68	  0	
16-Apr-2013	sub2313	2313	  2	  0	149	  4	  2	  3	  1	  6	  1	  2	  0	0.36320	  0	0.80000	  0	 23	 82	 83	  1	
16-Apr-2013	sub2313	2313	  2	  0	150	  4	  2	  4	  2	  4	  1	  2	  1	0.46312	  1	0.80000	  0	 24	 62	 63	  1	
16-Apr-2013	sub2313	2313	  2	  0	  1	  5	  1	  3	  2	  1	  1	  2	  0	0.46064	  0	0.60000	  0	 13	 42	 43	  1	
16-Apr-2013	sub2313	2313	  2	  0	  2	  5	  1	  6	  3	  1	  1	  2	  1	0.49771	  1	0.30000	  1	 16	 35	 51	  1	
16-Apr-2013	sub2313	2313	  2	  0	  3	  5	  1	  6	  3	  1	  0	  1	  1	0.03632	  0	0.90000	  0	 16	 47	 38	  1	
16-Apr-2013	sub2313	2313	  2	  0	  4	  5	  1	  1	  4	  5	  1	  2	  0	0.51758	  0	0.90000	  0	 11	 40	 41	  0	
16-Apr-2013	sub2313	2313	  2	  0	  5	  5	  1	  4	  6	  1	  1	  1	  0	0.29740	  0	0.90000	  0	 14	 42	 43	  1	
16-Apr-2013	sub2313	2313	  2	  0	  6	  5	  1	  3	  2	  1	  1	  2	  0	0.27429	  0	0.90000	  0	 13	 42	 43	  1	
16-Apr-2013	sub2313	2313	  2	  0	  7	  5	  1	  5	  5	  5	  1	  1	  1	0.50605	  1	0.90000	  0	 15	 35	 36	  0	
16-Apr-2013	sub2313	2313	  2	  0	  8	  5	  1	  2	  1	  2	  1	  1	  0	0.55678	  0	0.90000	  0	 12	 40	 41	  0	
16-Apr-2013	sub2313	2313	  2	  0	  9	  5	  1	  6	  3	  1	  1	  1	  0	0.31149	  0	0.90000	  0	 16	 45	 46	  1	
16-Apr-2013	sub2313	2313	  2	  0	 10	  5	  1	  4	  6	  1	  1	  2	  1	0.34231	  1	0.90000	  0	 14	 32	 33	  1	
16-Apr-2013	sub2313	2313	  2	  0	 11	  5	  1	  2	  1	  2	  1	  2	  1	0.60844	  1	0.90000	  0	 12	 30	 31	  0	
16-Apr-2013	sub2313	2313	  2	  0	 12	  5	  1	  4	  6	  1	  1	  2	  1	0.47461	  1	0.90000	  0	 14	 32	 33	  1	
16-Apr-2013	sub2313	2313	  2	  0	 13	  5	  1	  3	  2	  1	  1	  2	  0	0.30839	  0	0.90000	  0	 13	 42	 43	  1	
16-Apr-2013	sub2313	2313	  2	  0	 14	  5	  1	  2	  1	  2	  1	  2	  1	0.41696	  1	0.90000	  0	 12	 30	 31	  1	
16-Apr-2013	sub2313	2313	  2	  0	 15	  5	  1	  1	  4	  5	  1	  1	  1	0.55466	  1	0.90000	  0	 11	 30	 31	  0	
16-Apr-2013	sub2313	2313	  2	  0	 16	  5	  1	  6	  3	  1	  1	  2	  1	0.56202	  1	0.80000	  0	 16	 35	 36	  0	
16-Apr-2013	sub2313	2313	  2	  0	 17	  5	  1	  2	  1	  2	  1	  2	  1	0.53282	  1	0.80000	  0	 12	 30	 31	  0	
16-Apr-2013	sub2313	2313	  2	  0	 18	  5	  1	  3	  2	  1	  0	  1	  0	0.72910	  1	0.70000	  1	 13	 34	 51	  0	
16-Apr-2013	sub2313	2313	  2	  0	 19	  5	  1	  2	  1	  2	  1	  2	  1	0.37919	  1	0.90000	  0	 12	 30	 31	  1	
16-Apr-2013	sub2313	2313	  2	  0	 20	  5	  1	  6	  3	  1	  0	  1	  1	0.45786	  0	0.90000	  0	 16	 47	 38	  1	
16-Apr-2013	sub2313	2313	  2	  0	 21	  5	  1	  1	  4	  5	  1	  1	  1	0.46215	  1	0.90000	  0	 11	 30	 31	  1	
16-Apr-2013	sub2313	2313	  2	  0	 22	  5	  1	  4	  6	  1	  0	  2	  0	0.41366	  1	0.90000	  0	 14	 34	 49	  1	
16-Apr-2013	sub2313	2313	  2	  0	 23	  5	  1	  5	  5	  5	  0	  2	  1	0.37498	  0	0.90000	  0	 15	 47	 38	  1	
16-Apr-2013	sub2313	2313	  2	  0	 24	  5	  1	  2	  1	  2	  1	  2	  1	0.52045	  1	0.90000	  0	 12	 30	 31	  0	
16-Apr-2013	sub2313	2313	  2	  0	 25	  5	  1	  2	  1	  2	  1	  1	  0	0.40153	  0	0.90000	  0	 12	 40	 41	  1	
16-Apr-2013	sub2313	2313	  2	  0	 26	  5	  1	  1	  4	  5	  1	  1	  1	0.57615	  1	0.90000	  0	 11	 30	 31	  0	
16-Apr-2013	sub2313	2313	  2	  0	 27	  5	  1	  5	  5	  5	  1	  1	  1	0.52727	  1	0.90000	  0	 15	 35	 36	  0	
16-Apr-2013	sub2313	2313	  2	  0	 28	  5	  1	  4	  6	  1	  1	  2	  1	0.53976	  1	0.90000	  0	 14	 32	 33	  0	
16-Apr-2013	sub2313	2313	  2	  0	 29	  5	  1	  5	  5	  5	  1	  2	  0	0.47677	  0	0.90000	  0	 15	 45	 46	  1	
16-Apr-2013	sub2313	2313	  2	  0	 30	  5	  1	  2	  1	  2	  1	  1	  0	0.33847	  0	0.80000	  0	 12	 40	 41	  1	
16-Apr-2013	sub2313	2313	  2	  0	 31	  5	  1	  1	  4	  5	  1	  1	  1	0.54532	  1	0.80000	  0	 11	 30	 31	  0	
16-Apr-2013	sub2313	2313	  2	  0	 32	  5	  1	  3	  2	  1	  1	  1	  1	0.74176	  1	0.80000	  0	 13	 32	 33	  0	
16-Apr-2013	sub2313	2313	  2	  0	 33	  5	  1	  6	  3	  1	  0	  2	  0	0.69992	  1	0.80000	  0	 16	 37	 48	  0	
16-Apr-2013	sub2313	2313	  2	  0	 34	  5	  1	  3	  2	  1	  1	  1	  1	0.61920	  1	0.80000	  0	 13	 32	 33	  0	
16-Apr-2013	sub2313	2313	  2	  0	 35	  5	  1	  3	  2	  1	  1	  1	  1	0.54124	  1	0.70000	  0	 13	 32	 33	  0	
16-Apr-2013	sub2313	2313	  2	  0	 36	  5	  1	  6	  3	  1	  0	  1	  1	0.43355	  0	0.70000	  0	 16	 47	 38	  1	
16-Apr-2013	sub2313	2313	  2	  0	 37	  5	  1	  6	  3	  1	  1	  1	  0	0.42839	  0	0.70000	  0	 16	 45	 46	  1	
16-Apr-2013	sub2313	2313	  2	  0	 38	  5	  1	  1	  4	  5	  1	  1	  1	0.84415	  1	0.70000	  1	 11	 30	 51	  0	
16-Apr-2013	sub2313	2313	  2	  0	 39	  5	  1	  5	  5	  5	  0	  2	  1	0.72501	  0	0.90000	  0	 15	 47	 38	  0	
16-Apr-2013	sub2313	2313	  2	  0	 40	  5	  1	  4	  6	  1	  1	  2	  1	0.63830	  1	0.90000	  0	 14	 32	 33	  0	
16-Apr-2013	sub2313	2313	  2	  0	 41	  5	  1	  6	  3	  1	  0	  2	  0	0.46875	  1	0.90000	  0	 16	 37	 48	  1	
16-Apr-2013	sub2313	2313	  2	  0	 42	  5	  1	  5	  5	  5	  0	  2	  1	0.46287	  0	0.90000	  0	 15	 47	 38	  1	
16-Apr-2013	sub2313	2313	  2	  0	 43	  5	  1	  3	  2	  1	  1	  2	  0	0.42801	  0	0.90000	  0	 13	 42	 43	  1	
16-Apr-2013	sub2313	2313	  2	  0	 44	  5	  1	  2	  1	  2	  1	  2	  1	0.62334	  1	0.80000	  0	 12	 30	 31	  0	
16-Apr-2013	sub2313	2313	  2	  0	 45	  5	  1	  1	  4	  5	  1	  1	  1	0.63237	  1	0.80000	  0	 11	 30	 31	  0	
16-Apr-2013	sub2313	2313	  2	  0	 46	  5	  1	  4	  6	  1	  1	  2	  1	0.72609	  1	0.80000	  0	 14	 32	 33	  0	
16-Apr-2013	sub2313	2313	  2	  0	 47	  5	  1	  3	  2	  1	  1	  1	  1	0.38341	  1	0.80000	  0	 13	 32	 33	  1	
16-Apr-2013	sub2313	2313	  2	  0	 48	  5	  1	  3	  2	  1	  0	  1	  0	0.55332	  1	0.80000	  0	 13	 34	 49	  0	
16-Apr-2013	sub2313	2313	  2	  0	 49	  5	  1	  4	  6	  1	  0	  2	  0	0.61971	  1	0.80000	  0	 14	 34	 49	  0	
16-Apr-2013	sub2313	2313	  2	  0	 50	  5	  1	  3	  2	  1	  1	  1	  1	0.61935	  1	0.80000	  0	 13	 32	 33	  0	
16-Apr-2013	sub2313	2313	  2	  0	 51	  5	  1	  1	  4	  5	  1	  1	  1	0.58192	  1	0.70000	  0	 11	 30	 31	  0	
16-Apr-2013	sub2313	2313	  2	  0	 52	  5	  1	  3	  2	  1	  1	  1	  1	0.52831	  1	0.70000	  0	 13	 32	 33	  0	
16-Apr-2013	sub2313	2313	  2	  0	 53	  5	  1	  4	  6	  1	  1	  2	  1	0.62075	  1	0.70000	  0	 14	 32	 33	  0	
16-Apr-2013	sub2313	2313	  2	  0	 54	  5	  1	  6	  3	  1	  0	  1	  1	0.49881	  0	0.70000	  0	 16	 47	 38	  1	
16-Apr-2013	sub2313	2313	  2	  0	 55	  5	  1	  5	  5	  5	  0	  1	  0	0.56742	  1	0.70000	  0	 15	 37	 48	  0	
16-Apr-2013	sub2313	2313	  2	  0	 56	  5	  1	  5	  5	  5	  1	  2	  0	0.58705	  0	0.70000	  0	 15	 45	 46	  0	
16-Apr-2013	sub2313	2313	  2	  0	 57	  5	  1	  2	  1	  2	  1	  2	  1	0.73803	  1	0.70000	  1	 12	 30	 51	  0	
16-Apr-2013	sub2313	2313	  2	  0	 58	  5	  1	  6	  3	  1	  1	  2	  1	0.64173	  1	0.90000	  0	 16	 35	 36	  0	
16-Apr-2013	sub2313	2313	  2	  0	 59	  5	  1	  1	  4	  5	  1	  2	  0	0.76071	  0	0.80000	  0	 11	 40	 41	  0	
16-Apr-2013	sub2313	2313	  2	  0	 60	  5	  1	  5	  5	  5	  1	  1	  1	0.33772	  1	0.80000	  0	 15	 35	 36	  1	
16-Apr-2013	sub2313	2313	  2	  0	 61	  5	  1	  5	  5	  5	  1	  1	  1	0.49158	  1	0.80000	  0	 15	 35	 36	  1	
16-Apr-2013	sub2313	2313	  2	  0	 62	  5	  1	  1	  4	  5	  1	  1	  1	0.63128	  1	0.80000	  0	 11	 30	 31	  0	
16-Apr-2013	sub2313	2313	  2	  0	 63	  5	  1	  1	  4	  5	  1	  1	  1	0.46891	  1	0.80000	  0	 11	 30	 31	  1	
16-Apr-2013	sub2313	2313	  2	  0	 64	  5	  1	  4	  6	  1	  1	  1	  0	0.78463	  0	0.80000	  0	 14	 42	 43	  0	
16-Apr-2013	sub2313	2313	  2	  0	 65	  5	  1	  6	  3	  1	  0	  2	  0	0.49013	  1	0.80000	  0	 16	 37	 48	  1	
16-Apr-2013	sub2313	2313	  2	  0	 66	  5	  1	  2	  1	  2	  1	  1	  0	0.43635	  0	0.80000	  0	 12	 40	 41	  1	
16-Apr-2013	sub2313	2313	  2	  0	 67	  5	  1	  5	  5	  5	  1	  2	  0	0.58661	  0	0.80000	  0	 15	 45	 46	  0	
16-Apr-2013	sub2313	2313	  2	  0	 68	  5	  1	  2	  1	  2	  1	  1	  0	0.49523	  0	0.70000	  0	 12	 40	 41	  1	
16-Apr-2013	sub2313	2313	  2	  0	 69	  5	  1	  2	  1	  2	  1	  2	  1	0.32158	  1	0.70000	  0	 12	 30	 31	  1	
16-Apr-2013	sub2313	2313	  2	  0	 70	  5	  1	  4	  6	  1	  1	  2	  1	0.57977	  1	0.70000	  0	 14	 32	 33	  0	
16-Apr-2013	sub2313	2313	  2	  0	 71	  5	  1	  1	  4	  5	  1	  1	  1	0.72253	  1	0.70000	  1	 11	 30	 51	  0	
16-Apr-2013	sub2313	2313	  2	  0	 72	  5	  1	  3	  2	  1	  0	  1	  0	0.57675	  1	0.90000	  0	 13	 34	 49	  0	
16-Apr-2013	sub2313	2313	  2	  0	 73	  5	  1	  4	  6	  1	  1	  2	  1	0.49665	  1	0.80000	  0	 14	 32	 33	  1	
16-Apr-2013	sub2313	2313	  2	  0	 74	  5	  1	  5	  5	  5	  0	  2	  1	0.56125	  0	0.80000	  0	 15	 47	 38	  0	
16-Apr-2013	sub2313	2313	  2	  0	 75	  5	  1	  6	  3	  1	  1	  2	  1	0.57771	  1	0.80000	  0	 16	 35	 36	  0	
16-Apr-2013	sub2313	2313	  2	  0	 76	  5	  2	  2	  1	  2	  1	  2	  1	0.45820	  1	0.80000	  0	 22	 60	 61	  1	
16-Apr-2013	sub2313	2313	  2	  0	 77	  5	  2	  3	  2	  1	  1	  2	  0	0.42082	  0	0.80000	  0	 23	 82	 83	  1	
16-Apr-2013	sub2313	2313	  2	  0	 78	  5	  2	  3	  2	  1	  1	  1	  1	0.45545	  1	0.80000	  0	 23	 62	 63	  1	
16-Apr-2013	sub2313	2313	  2	  0	 79	  5	  2	  4	  6	  1	  0	  2	  0	0.67342	  1	0.80000	  0	 24	 64	 89	  0	
16-Apr-2013	sub2313	2313	  2	  0	 80	  5	  2	  1	  4	  5	  1	  1	  1	0.45647	  1	0.80000	  0	 21	 60	 61	  1	
16-Apr-2013	sub2313	2313	  2	  0	 81	  5	  2	  4	  6	  1	  1	  1	  0	0.52493	  0	0.80000	  0	 24	 82	 83	  0	
16-Apr-2013	sub2313	2313	  2	  0	 82	  5	  2	  4	  6	  1	  1	  1	  0	0.34100	  0	0.80000	  0	 24	 82	 83	  1	
16-Apr-2013	sub2313	2313	  2	  0	 83	  5	  2	  6	  3	  1	  0	  1	  1	0.66421	  0	0.80000	  0	 26	 87	 68	  0	
16-Apr-2013	sub2313	2313	  2	  0	 84	  5	  2	  5	  5	  5	  0	  2	  1	0.63596	  0	0.80000	  0	 25	 87	 68	  0	
16-Apr-2013	sub2313	2313	  2	  0	 85	  5	  2	  2	  1	  2	  1	  1	  0	0.36097	  0	0.70000	  0	 22	 80	 81	  1	
16-Apr-2013	sub2313	2313	  2	  0	 86	  5	  2	  3	  2	  1	  1	  2	  0	0.05315	  0	0.70000	  0	 23	 82	 83	  1	
16-Apr-2013	sub2313	2313	  2	  0	 87	  5	  2	  1	  4	  5	  1	  2	  0	0.35738	  0	0.70000	  0	 21	 80	 81	  1	
16-Apr-2013	sub2313	2313	  2	  0	 88	  5	  2	  6	  3	  1	  0	  1	  1	0.36892	  0	0.70000	  0	 26	 87	 68	  1	
16-Apr-2013	sub2313	2313	  2	  0	 89	  5	  2	  4	  6	  1	  0	  1	  1	0.64014	  0	0.70000	  0	 24	 84	 69	  0	
16-Apr-2013	sub2313	2313	  2	  0	 90	  5	  2	  4	  6	  1	  1	  1	  0	0.42232	  0	0.70000	  0	 24	 82	 83	  1	
16-Apr-2013	sub2313	2313	  2	  0	 91	  5	  2	  3	  2	  1	  1	  1	  1	0.49091	  1	0.70000	  0	 23	 62	 63	  1	
16-Apr-2013	sub2313	2313	  2	  0	 92	  5	  2	  1	  4	  5	  1	  2	  0	0.30375	  0	0.70000	  0	 21	 80	 81	  1	
16-Apr-2013	sub2313	2313	  2	  0	 93	  5	  2	  2	  1	  2	  1	  1	  0	0.54132	  0	0.70000	  0	 22	 80	 81	  0	
16-Apr-2013	sub2313	2313	  2	  0	 94	  5	  2	  6	  3	  1	  1	  1	  0	0.59126	  0	0.70000	  0	 26	 85	 86	  0	
16-Apr-2013	sub2313	2313	  2	  0	 95	  5	  2	  1	  4	  5	  1	  2	  0	0.36790	  0	0.70000	  0	 21	 80	 81	  1	
16-Apr-2013	sub2313	2313	  2	  0	 96	  5	  2	  2	  1	  2	  1	  2	  1	0.54107	  1	0.70000	  0	 22	 60	 61	  0	
16-Apr-2013	sub2313	2313	  2	  0	 97	  5	  2	  6	  3	  1	  0	  2	  0	0.34020	  1	0.70000	  0	 26	 67	 88	  1	
16-Apr-2013	sub2313	2313	  2	  0	 98	  5	  2	  3	  2	  1	  1	  1	  1	0.64259	  1	0.70000	  0	 23	 62	 63	  0	
16-Apr-2013	sub2313	2313	  2	  0	 99	  5	  2	  3	  2	  1	  1	  1	  1	0.56093	  1	0.70000	  0	 23	 62	 63	  0	
16-Apr-2013	sub2313	2313	  2	  0	100	  5	  2	  5	  5	  5	  0	  1	  0	0.46231	  1	0.70000	  0	 25	 67	 88	  1	
16-Apr-2013	sub2313	2313	  2	  0	101	  5	  2	  3	  2	  1	  0	  1	  0	0.70241	  1	0.60000	  1	 23	 64	 51	  0	
16-Apr-2013	sub2313	2313	  2	  0	102	  5	  2	  6	  3	  1	  0	  1	  1	0.67269	  0	0.70000	  0	 26	 87	 68	  0	
16-Apr-2013	sub2313	2313	  2	  0	103	  5	  2	  3	  2	  1	  1	  1	  1	0.38580	  1	0.70000	  0	 23	 62	 63	  1	
16-Apr-2013	sub2313	2313	  2	  0	104	  5	  2	  1	  4	  5	  1	  2	  0	0.61744	  0	0.70000	  0	 21	 80	 81	  0	
16-Apr-2013	sub2313	2313	  2	  0	105	  5	  2	  5	  5	  5	  0	  1	  0	0.52012	  1	0.70000	  0	 25	 67	 88	  0	
16-Apr-2013	sub2313	2313	  2	  0	106	  5	  2	  2	  1	  2	  1	  1	  0	0.42806	  0	0.70000	  0	 22	 80	 81	  1	
16-Apr-2013	sub2313	2313	  2	  0	107	  5	  2	  4	  6	  1	  1	  1	  0	0.50886	  0	0.70000	  0	 24	 82	 83	  0	
16-Apr-2013	sub2313	2313	  2	  0	108	  5	  2	  2	  1	  2	  1	  2	  1	0.46704	  1	0.70000	  0	 22	 60	 61	  1	
16-Apr-2013	sub2313	2313	  2	  0	109	  5	  2	  1	  4	  5	  1	  2	  0	0.46615	  0	0.70000	  0	 21	 80	 81	  1	
16-Apr-2013	sub2313	2313	  2	  0	110	  5	  2	  6	  3	  1	  1	  2	  1	0.47243	  1	0.70000	  0	 26	 65	 66	  1	
16-Apr-2013	sub2313	2313	  2	  0	111	  5	  2	  5	  5	  5	  0	  2	  1	0.44117	  0	0.70000	  0	 25	 87	 68	  1	
16-Apr-2013	sub2313	2313	  2	  0	112	  5	  2	  2	  1	  2	  1	  2	  1	0.56028	  1	0.70000	  0	 22	 60	 61	  0	
16-Apr-2013	sub2313	2313	  2	  0	113	  5	  2	  3	  2	  1	  1	  1	  1	0.51677	  1	0.70000	  0	 23	 62	 63	  0	
16-Apr-2013	sub2313	2313	  2	  0	114	  5	  2	  3	  2	  1	  1	  2	  0	0.39275	  0	0.70000	  0	 23	 82	 83	  1	
16-Apr-2013	sub2313	2313	  2	  0	115	  5	  2	  1	  4	  5	  1	  2	  0	0.57157	  0	0.70000	  0	 21	 80	 81	  0	
16-Apr-2013	sub2313	2313	  2	  0	116	  5	  2	  4	  6	  1	  1	  1	  0	0.34121	  0	0.70000	  0	 24	 82	 83	  1	
16-Apr-2013	sub2313	2313	  2	  0	117	  5	  2	  6	  3	  1	  1	  1	  0	0.52138	  0	0.70000	  0	 26	 85	 86	  0	
16-Apr-2013	sub2313	2313	  2	  0	118	  5	  2	  4	  6	  1	  1	  2	  1	0.39653	  1	0.70000	  0	 24	 62	 63	  1	
16-Apr-2013	sub2313	2313	  2	  0	119	  5	  2	  2	  1	  2	  1	  2	  1	0.54163	  1	0.70000	  0	 22	 60	 61	  0	
16-Apr-2013	sub2313	2313	  2	  0	120	  5	  2	  3	  2	  1	  1	  1	  1	0.67801	  1	0.70000	  0	 23	 62	 63	  0	
16-Apr-2013	sub2313	2313	  2	  0	121	  5	  2	  2	  1	  2	  1	  2	  1	0.52509	  1	0.60000	  0	 22	 60	 61	  0	
16-Apr-2013	sub2313	2313	  2	  0	122	  5	  2	  1	  4	  5	  1	  1	  1	0.58259	  1	0.60000	  0	 21	 60	 61	  0	
16-Apr-2013	sub2313	2313	  2	  0	123	  5	  2	  5	  5	  5	  0	  2	  1	0.70070	  0	0.60000	  1	 25	 87	 51	  0	
16-Apr-2013	sub2313	2313	  2	  0	124	  5	  2	  5	  5	  5	  0	  1	  0	0.42408	  1	0.70000	  0	 25	 67	 88	  1	
16-Apr-2013	sub2313	2313	  2	  0	125	  5	  2	  6	  3	  1	  1	  2	  1	0.56236	  1	0.70000	  0	 26	 65	 66	  0	
16-Apr-2013	sub2313	2313	  2	  0	126	  5	  2	  2	  1	  2	  1	  2	  1	0.59633	  1	0.70000	  0	 22	 60	 61	  0	
16-Apr-2013	sub2313	2313	  2	  0	127	  5	  2	  5	  5	  5	  0	  2	  1	0.47473	  0	0.70000	  0	 25	 87	 68	  1	
16-Apr-2013	sub2313	2313	  2	  0	128	  5	  2	  5	  5	  5	  0	  2	  1	0.43408	  0	0.70000	  0	 25	 87	 68	  1	
16-Apr-2013	sub2313	2313	  2	  0	129	  5	  2	  5	  5	  5	  0	  2	  1	0.53904	  0	0.70000	  0	 25	 87	 68	  0	
16-Apr-2013	sub2313	2313	  2	  0	130	  5	  2	  4	  6	  1	  1	  1	  0	0.57142	  0	0.70000	  0	 24	 82	 83	  0	
16-Apr-2013	sub2313	2313	  2	  0	131	  5	  2	  4	  6	  1	  0	  2	  0	0.41430	  1	0.70000	  0	 24	 64	 89	  1	
16-Apr-2013	sub2313	2313	  2	  0	132	  5	  2	  2	  1	  2	  1	  2	  1	0.52292	  1	0.70000	  0	 22	 60	 61	  0	
16-Apr-2013	sub2313	2313	  2	  0	133	  5	  2	  4	  6	  1	  1	  2	  1	0.62166	  1	0.70000	  0	 24	 62	 63	  0	
16-Apr-2013	sub2313	2313	  2	  0	134	  5	  2	  5	  5	  5	  0	  2	  1	0.55563	  0	0.70000	  0	 25	 87	 68	  0	
16-Apr-2013	sub2313	2313	  2	  0	135	  5	  2	  4	  6	  1	  1	  2	  1	0.34628	  1	0.70000	  0	 24	 62	 63	  1	
16-Apr-2013	sub2313	2313	  2	  0	136	  5	  2	  1	  4	  5	  1	  1	  1	0.97449	  1	0.70000	  1	 21	 60	 51	  0	
16-Apr-2013	sub2313	2313	  2	  0	137	  5	  2	  6	  3	  1	  0	  2	  0	0.65119	  1	0.70000	  0	 26	 67	 88	  0	
16-Apr-2013	sub2313	2313	  2	  0	138	  5	  2	  5	  5	  5	  0	  2	  1	0.94995	  0	0.70000	  1	 25	 87	 51	  0	
16-Apr-2013	sub2313	2313	  2	  0	139	  5	  2	  1	  4	  5	  1	  2	  0	0.36165	  0	0.80000	  0	 21	 80	 81	  1	
16-Apr-2013	sub2313	2313	  2	  0	140	  5	  2	  6	  3	  1	  0	  1	  1	0.51152	  0	0.80000	  0	 26	 87	 68	  0	
16-Apr-2013	sub2313	2313	  2	  0	141	  5	  2	  6	  3	  1	  1	  1	  0	0.54767	  0	0.80000	  0	 26	 85	 86	  0	
16-Apr-2013	sub2313	2313	  2	  0	142	  5	  2	  3	  2	  1	  0	  2	  1	1.00876	  0	0.80000	  1	 23	 84	 51	  0	
16-Apr-2013	sub2313	2313	  2	  0	143	  5	  2	  6	  3	  1	  1	  2	  1	0.52191	  1	0.90000	  0	 26	 65	 66	  0	
16-Apr-2013	sub2313	2313	  2	  0	144	  5	  2	  2	  1	  2	  1	  2	  1	0.73801	  1	0.80000	  0	 22	 60	 61	  0	
16-Apr-2013	sub2313	2313	  2	  0	145	  5	  2	  1	  4	  5	  1	  2	  0	0.36448	  0	0.80000	  0	 21	 80	 81	  1	
16-Apr-2013	sub2313	2313	  2	  0	146	  5	  2	  5	  5	  5	  0	  2	  1	0.48974	  0	0.80000	  0	 25	 87	 68	  1	
16-Apr-2013	sub2313	2313	  2	  0	147	  5	  2	  4	  6	  1	  1	  2	  1	0.55072	  1	0.80000	  0	 24	 62	 63	  0	
16-Apr-2013	sub2313	2313	  2	  0	148	  5	  2	  5	  5	  5	  0	  2	  1	0.49976	  0	0.80000	  0	 25	 87	 68	  1	
16-Apr-2013	sub2313	2313	  2	  0	149	  5	  2	  1	  4	  5	  1	  1	  1	0.51121	  1	0.80000	  0	 21	 60	 61	  0	
16-Apr-2013	sub2313	2313	  2	  0	150	  5	  2	  1	  4	  5	  1	  1	  1	0.59845	  1	0.80000	  0	 21	 60	 61	  0	
16-Apr-2013	sub2313	2313	  2	  0	  1	  6	  1	  5	  4	  4	  1	  1	  1	0.39928	  1	0.60000	  0	 15	 35	 36	  1	
16-Apr-2013	sub2313	2313	  2	  0	  2	  6	  1	  2	  3	  5	  1	  1	  0	0.50152	  0	0.30000	  1	 12	 40	 51	  0	
16-Apr-2013	sub2313	2313	  2	  0	  3	  6	  1	  3	  5	  4	  1	  1	  1	0.25497	  1	0.90000	  0	 13	 32	 33	  1	
16-Apr-2013	sub2313	2313	  2	  0	  4	  6	  1	  6	  2	  5	  1	  1	  0	0.21425	  0	0.90000	  0	 16	 45	 46	  1	
16-Apr-2013	sub2313	2313	  2	  0	  5	  6	  1	  6	  2	  5	  0	  2	  0	0.46198	  1	0.90000	  0	 16	 37	 48	  1	
16-Apr-2013	sub2313	2313	  2	  0	  6	  6	  1	  2	  3	  5	  1	  2	  1	0.60466	  1	0.90000	  0	 12	 30	 31	  0	
16-Apr-2013	sub2313	2313	  2	  0	  7	  6	  1	  1	  6	  4	  1	  1	  1	0.54448	  1	0.90000	  0	 11	 30	 31	  0	
16-Apr-2013	sub2313	2313	  2	  0	  8	  6	  1	  6	  2	  5	  1	  1	  0	0.58516	  0	0.90000	  0	 16	 45	 46	  0	
16-Apr-2013	sub2313	2313	  2	  0	  9	  6	  1	  3	  5	  4	  1	  2	  0	0.58492	  0	0.90000	  0	 13	 42	 43	  0	
16-Apr-2013	sub2313	2313	  2	  0	 10	  6	  1	  4	  1	  1	  1	  1	  0	0.49927	  0	0.90000	  0	 14	 42	 43	  1	
16-Apr-2013	sub2313	2313	  2	  0	 11	  6	  1	  5	  4	  4	  1	  2	  0	0.48461	  0	0.90000	  0	 15	 45	 46	  1	
16-Apr-2013	sub2313	2313	  2	  0	 12	  6	  1	  1	  6	  4	  1	  2	  0	0.40041	  0	0.90000	  0	 11	 40	 41	  1	
16-Apr-2013	sub2313	2313	  2	  0	 13	  6	  1	  4	  1	  1	  1	  2	  1	0.42330	  1	0.90000	  0	 14	 32	 33	  1	
16-Apr-2013	sub2313	2313	  2	  0	 14	  6	  1	  5	  4	  4	  1	  2	  0	0.57284	  0	0.90000	  0	 15	 45	 46	  0	
16-Apr-2013	sub2313	2313	  2	  0	 15	  6	  1	  2	  3	  5	  1	  1	  0	0.48493	  0	0.90000	  0	 12	 40	 41	  1	
16-Apr-2013	sub2313	2313	  2	  0	 16	  6	  1	  5	  4	  4	  1	  2	  0	0.71095	  0	0.80000	  0	 15	 45	 46	  0	
16-Apr-2013	sub2313	2313	  2	  0	 17	  6	  1	  1	  6	  4	  1	  2	  0	0.48247	  0	0.80000	  0	 11	 40	 41	  1	
16-Apr-2013	sub2313	2313	  2	  0	 18	  6	  1	  6	  2	  5	  0	  2	  0	0.50666	  1	0.70000	  0	 16	 37	 48	  0	
16-Apr-2013	sub2313	2313	  2	  0	 19	  6	  1	  3	  5	  4	  1	  2	  0	0.53388	  0	0.70000	  0	 13	 42	 43	  0	
16-Apr-2013	sub2313	2313	  2	  0	 20	  6	  1	  3	  5	  4	  0	  1	  0	0.46710	  1	0.70000	  0	 13	 34	 49	  1	
16-Apr-2013	sub2313	2313	  2	  0	 21	  6	  1	  3	  5	  4	  1	  1	  1	0.34432	  1	0.60000	  0	 13	 32	 33	  1	
16-Apr-2013	sub2313	2313	  2	  0	 22	  6	  1	  5	  4	  4	  1	  1	  1	0.40549	  1	0.60000	  0	 15	 35	 36	  1	
16-Apr-2013	sub2313	2313	  2	  0	 23	  6	  1	  3	  5	  4	  1	  1	  1	0.41276	  1	0.60000	  0	 13	 32	 33	  1	
16-Apr-2013	sub2313	2313	  2	  0	 24	  6	  1	  4	  1	  1	  1	  1	  0	0.37008	  0	0.60000	  0	 14	 42	 43	  1	
16-Apr-2013	sub2313	2313	  2	  0	 25	  6	  1	  2	  3	  5	  1	  1	  0	0.36794	  0	0.60000	  0	 12	 40	 41	  1	
16-Apr-2013	sub2313	2313	  2	  0	 26	  6	  1	  4	  1	  1	  1	  1	  0	0.43463	  0	0.50000	  0	 14	 42	 43	  1	
16-Apr-2013	sub2313	2313	  2	  0	 27	  6	  1	  3	  5	  4	  0	  2	  1	0.59259	  0	0.50000	  1	 13	 44	 51	  0	
16-Apr-2013	sub2313	2313	  2	  0	 28	  6	  1	  1	  6	  4	  1	  1	  1	0.56923	  1	0.90000	  0	 11	 30	 31	  0	
16-Apr-2013	sub2313	2313	  2	  0	 29	  6	  1	  3	  5	  4	  1	  1	  1	0.50395	  1	0.90000	  0	 13	 32	 33	  0	
16-Apr-2013	sub2313	2313	  2	  0	 30	  6	  1	  1	  6	  4	  1	  1	  1	0.68643	  1	0.80000	  0	 11	 30	 31	  0	
16-Apr-2013	sub2313	2313	  2	  0	 31	  6	  1	  3	  5	  4	  1	  1	  1	0.43638	  1	0.80000	  0	 13	 32	 33	  1	
16-Apr-2013	sub2313	2313	  2	  0	 32	  6	  1	  5	  4	  4	  0	  1	  0	0.55397	  1	0.80000	  0	 15	 37	 48	  0	
16-Apr-2013	sub2313	2313	  2	  0	 33	  6	  1	  2	  3	  5	  1	  2	  1	0.50242	  1	0.80000	  0	 12	 30	 31	  0	
16-Apr-2013	sub2313	2313	  2	  0	 34	  6	  1	  2	  3	  5	  1	  2	  1	0.46845	  1	0.80000	  0	 12	 30	 31	  1	
16-Apr-2013	sub2313	2313	  2	  0	 35	  6	  1	  4	  1	  1	  0	  2	  0	0.46065	  1	0.70000	  0	 14	 34	 49	  1	
16-Apr-2013	sub2313	2313	  2	  0	 36	  6	  1	  5	  4	  4	  1	  1	  1	0.56745	  1	0.70000	  0	 15	 35	 36	  0	
16-Apr-2013	sub2313	2313	  2	  0	 37	  6	  1	  1	  6	  4	  1	  1	  1	0.52498	  1	0.70000	  0	 11	 30	 31	  0	
16-Apr-2013	sub2313	2313	  2	  0	 38	  6	  1	  2	  3	  5	  1	  1	  0	0.43081	  0	0.70000	  0	 12	 40	 41	  1	
16-Apr-2013	sub2313	2313	  2	  0	 39	  6	  1	  3	  5	  4	  1	  1	  1	0.45679	  1	0.70000	  0	 13	 32	 33	  1	
16-Apr-2013	sub2313	2313	  2	  0	 40	  6	  1	  6	  2	  5	  0	  2	  0	0.64711	  1	0.70000	  0	 16	 37	 48	  0	
16-Apr-2013	sub2313	2313	  2	  0	 41	  6	  1	  2	  3	  5	  1	  1	  0	0.46092	  0	0.60000	  0	 12	 40	 41	  1	
16-Apr-2013	sub2313	2313	  2	  0	 42	  6	  1	  1	  6	  4	  1	  1	  1	0.71215	  1	0.60000	  1	 11	 30	 51	  0	
16-Apr-2013	sub2313	2313	  2	  0	 43	  6	  1	  6	  2	  5	  1	  1	  0	0.48663	  0	0.90000	  0	 16	 45	 46	  1	
16-Apr-2013	sub2313	2313	  2	  0	 44	  6	  1	  1	  6	  4	  1	  1	  1	0.45514	  1	0.80000	  0	 11	 30	 31	  1	
16-Apr-2013	sub2313	2313	  2	  0	 45	  6	  1	  4	  1	  1	  1	  1	  0	0.66924	  0	0.80000	  0	 14	 42	 43	  0	
16-Apr-2013	sub2313	2313	  2	  0	 46	  6	  1	  4	  1	  1	  0	  2	  0	0.45215	  1	0.80000	  0	 14	 34	 49	  1	
16-Apr-2013	sub2313	2313	  2	  0	 47	  6	  1	  5	  4	  4	  0	  2	  1	0.59284	  0	0.80000	  0	 15	 47	 38	  0	
16-Apr-2013	sub2313	2313	  2	  0	 48	  6	  1	  3	  5	  4	  0	  2	  1	0.48726	  0	0.80000	  0	 13	 44	 39	  1	
16-Apr-2013	sub2313	2313	  2	  0	 49	  6	  1	  2	  3	  5	  1	  2	  1	0.69923	  1	0.80000	  0	 12	 30	 31	  0	
16-Apr-2013	sub2313	2313	  2	  0	 50	  6	  1	  4	  1	  1	  1	  2	  1	0.52307	  1	0.80000	  0	 14	 32	 33	  0	
16-Apr-2013	sub2313	2313	  2	  0	 51	  6	  1	  5	  4	  4	  0	  1	  0	0.62585	  1	0.70000	  0	 15	 37	 48	  0	
16-Apr-2013	sub2313	2313	  2	  0	 52	  6	  1	  6	  2	  5	  0	  2	  0	0.62881	  1	0.70000	  0	 16	 37	 48	  0	
16-Apr-2013	sub2313	2313	  2	  0	 53	  6	  1	  6	  2	  5	  0	  1	  1	0.45808	  0	0.70000	  0	 16	 47	 38	  1	
16-Apr-2013	sub2313	2313	  2	  0	 54	  6	  1	  2	  3	  5	  1	  2	  1	0.99800	  1	0.70000	  1	 12	 30	 51	  0	
16-Apr-2013	sub2313	2313	  2	  0	 55	  6	  1	  4	  1	  1	  1	  2	  1	0.91575	  1	0.90000	  1	 14	 32	 51	  0	
16-Apr-2013	sub2313	2313	  2	  0	 56	  6	  1	  1	  6	  4	  1	  2	  0	0.62277	  0	0.90000	  0	 11	 40	 41	  0	
16-Apr-2013	sub2313	2313	  2	  0	 57	  6	  1	  4	  1	  1	  1	  2	  1	0.56461	  1	0.90000	  0	 14	 32	 33	  0	
16-Apr-2013	sub2313	2313	  2	  0	 58	  6	  1	  6	  2	  5	  1	  2	  1	0.62445	  1	0.90000	  0	 16	 35	 36	  0	
16-Apr-2013	sub2313	2313	  2	  0	 59	  6	  1	  6	  2	  5	  0	  2	  0	0.47570	  1	0.90000	  0	 16	 37	 48	  1	
16-Apr-2013	sub2313	2313	  2	  0	 60	  6	  1	  3	  5	  4	  1	  2	  0	0.50328	  0	0.90000	  0	 13	 42	 43	  0	
16-Apr-2013	sub2313	2313	  2	  0	 61	  6	  1	  6	  2	  5	  1	  1	  0	0.38280	  0	0.90000	  0	 16	 45	 46	  1	
16-Apr-2013	sub2313	2313	  2	  0	 62	  6	  1	  6	  2	  5	  0	  1	  1	0.39122	  0	0.90000	  0	 16	 47	 38	  1	
16-Apr-2013	sub2313	2313	  2	  0	 63	  6	  1	  2	  3	  5	  1	  1	  0	0.49155	  0	0.90000	  0	 12	 40	 41	  1	
16-Apr-2013	sub2313	2313	  2	  0	 64	  6	  1	  5	  4	  4	  0	  1	  0	0.58574	  1	0.90000	  0	 15	 37	 48	  0	
16-Apr-2013	sub2313	2313	  2	  0	 65	  6	  1	  4	  1	  1	  1	  2	  1	0.59138	  1	0.90000	  0	 14	 32	 33	  0	
16-Apr-2013	sub2313	2313	  2	  0	 66	  6	  1	  4	  1	  1	  1	  2	  1	0.39057	  1	0.90000	  0	 14	 32	 33	  1	
16-Apr-2013	sub2313	2313	  2	  0	 67	  6	  1	  1	  6	  4	  1	  2	  0	0.48155	  0	0.90000	  0	 11	 40	 41	  1	
16-Apr-2013	sub2313	2313	  2	  0	 68	  6	  1	  6	  2	  5	  1	  2	  1	0.53102	  1	0.90000	  0	 16	 35	 36	  0	
16-Apr-2013	sub2313	2313	  2	  0	 69	  6	  1	  5	  4	  4	  0	  2	  1	0.63916	  0	0.90000	  0	 15	 47	 38	  0	
16-Apr-2013	sub2313	2313	  2	  0	 70	  6	  1	  3	  5	  4	  1	  2	  0	0.53987	  0	0.90000	  0	 13	 42	 43	  0	
16-Apr-2013	sub2313	2313	  2	  0	 71	  6	  1	  2	  3	  5	  1	  2	  1	0.65008	  1	0.90000	  0	 12	 30	 31	  0	
16-Apr-2013	sub2313	2313	  2	  0	 72	  6	  1	  5	  4	  4	  1	  1	  1	0.63944	  1	0.90000	  0	 15	 35	 36	  0	
16-Apr-2013	sub2313	2313	  2	  0	 73	  6	  1	  1	  6	  4	  1	  1	  1	0.41732	  1	0.80000	  0	 11	 30	 31	  1	
16-Apr-2013	sub2313	2313	  2	  0	 74	  6	  1	  2	  3	  5	  1	  1	  0	0.69141	  0	0.80000	  0	 12	 40	 41	  0	
16-Apr-2013	sub2313	2313	  2	  0	 75	  6	  1	  1	  6	  4	  1	  1	  1	0.43827	  1	0.80000	  0	 11	 30	 31	  1	
16-Apr-2013	sub2313	2313	  2	  0	 76	  6	  2	  5	  4	  4	  0	  1	  0	0.54078	  1	0.80000	  0	 25	 67	 88	  0	
16-Apr-2013	sub2313	2313	  2	  0	 77	  6	  2	  2	  3	  5	  1	  2	  1	0.48797	  1	0.80000	  0	 22	 60	 61	  1	
16-Apr-2013	sub2313	2313	  2	  0	 78	  6	  2	  1	  6	  4	  1	  1	  1	0.63273	  1	0.80000	  0	 21	 60	 61	  0	
16-Apr-2013	sub2313	2313	  2	  0	 79	  6	  2	  4	  1	  1	  1	  2	  1	0.41039	  1	0.80000	  0	 24	 62	 63	  1	
16-Apr-2013	sub2313	2313	  2	  0	 80	  6	  2	  4	  1	  1	  1	  2	  1	0.39527	  1	0.80000	  0	 24	 62	 63	  1	
16-Apr-2013	sub2313	2313	  2	  0	 81	  6	  2	  6	  2	  5	  1	  2	  1	0.62703	  1	0.80000	  0	 26	 65	 66	  0	
16-Apr-2013	sub2313	2313	  2	  0	 82	  6	  2	  6	  2	  5	  0	  2	  0	0.37006	  1	0.80000	  0	 26	 67	 88	  1	
16-Apr-2013	sub2313	2313	  2	  0	 83	  6	  2	  4	  1	  1	  0	  1	  1	0.54999	  0	0.80000	  0	 24	 84	 69	  0	
16-Apr-2013	sub2313	2313	  2	  0	 84	  6	  2	  1	  6	  4	  1	  1	  1	0.57847	  1	0.80000	  0	 21	 60	 61	  0	
16-Apr-2013	sub2313	2313	  2	  0	 85	  6	  2	  6	  2	  5	  0	  2	  0	0.69146	  1	0.70000	  0	 26	 67	 88	  0	
16-Apr-2013	sub2313	2313	  2	  0	 86	  6	  2	  4	  1	  1	  0	  1	  1	0.56033	  0	0.70000	  0	 24	 84	 69	  0	
16-Apr-2013	sub2313	2313	  2	  0	 87	  6	  2	  2	  3	  5	  1	  2	  1	0.54312	  1	0.70000	  0	 22	 60	 61	  0	
16-Apr-2013	sub2313	2313	  2	  0	 88	  6	  2	  1	  6	  4	  1	  1	  1	0.35334	  1	0.70000	  0	 21	 60	 61	  1	
16-Apr-2013	sub2313	2313	  2	  0	 89	  6	  2	  6	  2	  5	  1	  1	  0	0.50737	  0	0.70000	  0	 26	 85	 86	  0	
16-Apr-2013	sub2313	2313	  2	  0	 90	  6	  2	  1	  6	  4	  1	  1	  1	0.58987	  1	0.70000	  0	 21	 60	 61	  0	
16-Apr-2013	sub2313	2313	  2	  0	 91	  6	  2	  1	  6	  4	  1	  2	  0	0.36942	  0	0.70000	  0	 21	 80	 81	  1	
16-Apr-2013	sub2313	2313	  2	  0	 92	  6	  2	  3	  5	  4	  1	  2	  0	0.51345	  0	0.70000	  0	 23	 82	 83	  0	
16-Apr-2013	sub2313	2313	  2	  0	 93	  6	  2	  5	  4	  4	  0	  2	  1	0.73191	  0	0.70000	  1	 25	 87	 51	  0	
16-Apr-2013	sub2313	2313	  2	  0	 94	  6	  2	  5	  4	  4	  0	  2	  1	0.44934	  0	0.80000	  0	 25	 87	 68	  1	
16-Apr-2013	sub2313	2313	  2	  0	 95	  6	  2	  5	  4	  4	  0	  2	  1	0.39545	  0	0.80000	  0	 25	 87	 68	  1	
16-Apr-2013	sub2313	2313	  2	  0	 96	  6	  2	  1	  6	  4	  1	  2	  0	0.51162	  0	0.80000	  0	 21	 80	 81	  0	
16-Apr-2013	sub2313	2313	  2	  0	 97	  6	  2	  6	  2	  5	  1	  2	  1	0.46621	  1	0.80000	  0	 26	 65	 66	  1	
16-Apr-2013	sub2313	2313	  2	  0	 98	  6	  2	  1	  6	  4	  1	  1	  1	0.42921	  1	0.80000	  0	 21	 60	 61	  1	
16-Apr-2013	sub2313	2313	  2	  0	 99	  6	  2	  2	  3	  5	  1	  2	  1	0.62077	  1	0.80000	  0	 22	 60	 61	  0	
16-Apr-2013	sub2313	2313	  2	  0	100	  6	  2	  3	  5	  4	  0	  1	  0	0.73522	  1	0.80000	  0	 23	 64	 89	  0	
16-Apr-2013	sub2313	2313	  2	  0	101	  6	  2	  5	  4	  4	  0	  2	  1	0.59208	  0	0.70000	  0	 25	 87	 68	  0	
16-Apr-2013	sub2313	2313	  2	  0	102	  6	  2	  6	  2	  5	  0	  2	  0	0.46335	  1	0.70000	  0	 26	 67	 88	  1	
16-Apr-2013	sub2313	2313	  2	  0	103	  6	  2	  5	  4	  4	  0	  2	  1	0.63653	  0	0.70000	  0	 25	 87	 68	  0	
16-Apr-2013	sub2313	2313	  2	  0	104	  6	  2	  6	  2	  5	  1	  1	  0	0.40389	  0	0.70000	  0	 26	 85	 86	  1	
16-Apr-2013	sub2313	2313	  2	  0	105	  6	  2	  5	  4	  4	  0	  2	  1	0.65815	  0	0.70000	  0	 25	 87	 68	  0	
16-Apr-2013	sub2313	2313	  2	  0	106	  6	  2	  3	  5	  4	  0	  2	  1	0.32566	  0	0.70000	  0	 23	 84	 69	  1	
16-Apr-2013	sub2313	2313	  2	  0	107	  6	  2	  2	  3	  5	  1	  2	  1	0.45281	  1	0.70000	  0	 22	 60	 61	  1	
16-Apr-2013	sub2313	2313	  2	  0	108	  6	  2	  2	  3	  5	  1	  2	  1	0.40994	  1	0.70000	  0	 22	 60	 61	  1	
16-Apr-2013	sub2313	2313	  2	  0	109	  6	  2	  3	  5	  4	  1	  1	  1	0.61566	  1	0.70000	  0	 23	 62	 63	  0	
16-Apr-2013	sub2313	2313	  2	  0	110	  6	  2	  1	  6	  4	  1	  2	  0	0.59722	  0	0.70000	  0	 21	 80	 81	  0	
16-Apr-2013	sub2313	2313	  2	  0	111	  6	  2	  1	  6	  4	  1	  1	  1	0.41226	  1	0.70000	  0	 21	 60	 61	  1	
16-Apr-2013	sub2313	2313	  2	  0	112	  6	  2	  6	  2	  5	  0	  2	  0	0.56863	  1	0.70000	  0	 26	 67	 88	  0	
16-Apr-2013	sub2313	2313	  2	  0	113	  6	  2	  2	  3	  5	  1	  2	  1	0.69323	  1	0.70000	  0	 22	 60	 61	  0	
16-Apr-2013	sub2313	2313	  2	  0	114	  6	  2	  5	  4	  4	  0	  2	  1	0.56802	  0	0.70000	  0	 25	 87	 68	  0	
16-Apr-2013	sub2313	2313	  2	  0	115	  6	  2	  3	  5	  4	  1	  2	  0	0.48367	  0	0.70000	  0	 23	 82	 83	  1	
16-Apr-2013	sub2313	2313	  2	  0	116	  6	  2	  2	  3	  5	  1	  2	  1	0.74253	  1	0.70000	  1	 22	 60	 51	  0	
16-Apr-2013	sub2313	2313	  2	  0	117	  6	  2	  4	  1	  1	  1	  1	  0	0.58269	  0	0.80000	  0	 24	 82	 83	  0	
16-Apr-2013	sub2313	2313	  2	  0	118	  6	  2	  4	  1	  1	  1	  2	  1	0.26896	  1	0.70000	  0	 24	 62	 63	  1	
16-Apr-2013	sub2313	2313	  2	  0	119	  6	  2	  4	  1	  1	  1	  2	  1	0.39795	  1	0.70000	  0	 24	 62	 63	  1	
16-Apr-2013	sub2313	2313	  2	  0	120	  6	  2	  6	  2	  5	  0	  2	  0	0.53991	  1	0.70000	  0	 26	 67	 88	  0	
16-Apr-2013	sub2313	2313	  2	  0	121	  6	  2	  4	  1	  1	  1	  2	  1	0.68503	  1	0.70000	  0	 24	 62	 63	  0	
16-Apr-2013	sub2313	2313	  2	  0	122	  6	  2	  5	  4	  4	  0	  2	  1	0.47909	  0	0.70000	  0	 25	 87	 68	  1	
16-Apr-2013	sub2313	2313	  2	  0	123	  6	  2	  4	  1	  1	  0	  2	  0	0.43817	  1	0.70000	  0	 24	 64	 89	  1	
16-Apr-2013	sub2313	2313	  2	  0	124	  6	  2	  3	  5	  4	  1	  2	  0	0.58768	  0	0.70000	  0	 23	 82	 83	  0	
16-Apr-2013	sub2313	2313	  2	  0	125	  6	  2	  5	  4	  4	  0	  2	  1	0.60774	  0	0.70000	  0	 25	 87	 68	  0	
16-Apr-2013	sub2313	2313	  2	  0	126	  6	  2	  1	  6	  4	  1	  1	  1	0.56275	  1	0.70000	  0	 21	 60	 61	  0	
16-Apr-2013	sub2313	2313	  2	  0	127	  6	  2	  5	  4	  4	  0	  1	  0	0.54379	  1	0.70000	  0	 25	 67	 88	  0	
16-Apr-2013	sub2313	2313	  2	  0	128	  6	  2	  3	  5	  4	  1	  1	  1	0.51023	  1	0.70000	  0	 23	 62	 63	  0	
16-Apr-2013	sub2313	2313	  2	  0	129	  6	  2	  6	  2	  5	  0	  1	  1	0.70473	  0	0.70000	  1	 26	 87	 51	  0	
16-Apr-2013	sub2313	2313	  2	  0	130	  6	  2	  2	  3	  5	  1	  2	  1	0.58221	  1	0.80000	  0	 22	 60	 61	  0	
16-Apr-2013	sub2313	2313	  2	  0	131	  6	  2	  4	  1	  1	  1	  2	  1	0.60374	  1	0.80000	  0	 24	 62	 63	  0	
16-Apr-2013	sub2313	2313	  2	  0	132	  6	  2	  5	  4	  4	  0	  2	  1	0.62795	  0	0.80000	  0	 25	 87	 68	  0	
16-Apr-2013	sub2313	2313	  2	  0	133	  6	  2	  1	  6	  4	  1	  2	  0	0.58823	  0	0.80000	  0	 21	 80	 81	  0	
16-Apr-2013	sub2313	2313	  2	  0	134	  6	  2	  3	  5	  4	  1	  2	  0	0.64031	  0	0.80000	  0	 23	 82	 83	  0	
16-Apr-2013	sub2313	2313	  2	  0	135	  6	  2	  2	  3	  5	  1	  2	  1	0.55382	  1	0.70000	  0	 22	 60	 61	  0	
16-Apr-2013	sub2313	2313	  2	  0	136	  6	  2	  3	  5	  4	  1	  1	  1	0.60494	  1	0.70000	  0	 23	 62	 63	  0	
16-Apr-2013	sub2313	2313	  2	  0	137	  6	  2	  1	  6	  4	  1	  1	  1	0.54649	  1	0.70000	  0	 21	 60	 61	  0	
16-Apr-2013	sub2313	2313	  2	  0	138	  6	  2	  1	  6	  4	  1	  1	  1	0.57508	  1	0.70000	  0	 21	 60	 61	  0	
16-Apr-2013	sub2313	2313	  2	  0	139	  6	  2	  2	  3	  5	  1	  2	  1	0.49415	  1	0.70000	  0	 22	 60	 61	  1	
16-Apr-2013	sub2313	2313	  2	  0	140	  6	  2	  2	  3	  5	  1	  2	  1	0.53190	  1	0.70000	  0	 22	 60	 61	  0	
16-Apr-2013	sub2313	2313	  2	  0	141	  6	  2	  6	  2	  5	  1	  2	  1	0.60295	  1	0.70000	  0	 26	 65	 66	  0	
16-Apr-2013	sub2313	2313	  2	  0	142	  6	  2	  4	  1	  1	  1	  2	  1	0.45155	  1	0.70000	  0	 24	 62	 63	  1	
16-Apr-2013	sub2313	2313	  2	  0	143	  6	  2	  6	  2	  5	  1	  2	  1	0.46035	  1	0.70000	  0	 26	 65	 66	  1	
16-Apr-2013	sub2313	2313	  2	  0	144	  6	  2	  5	  4	  4	  0	  1	  0	0.63943	  1	0.70000	  0	 25	 67	 88	  0	
16-Apr-2013	sub2313	2313	  2	  0	145	  6	  2	  2	  3	  5	  1	  2	  1	0.55713	  1	0.70000	  0	 22	 60	 61	  0	
16-Apr-2013	sub2313	2313	  2	  0	146	  6	  2	  4	  1	  1	  1	  2	  1	0.61948	  1	0.70000	  0	 24	 62	 63	  0	
16-Apr-2013	sub2313	2313	  2	  0	147	  6	  2	  4	  1	  1	  1	  2	  1	0.52139	  1	0.70000	  0	 24	 62	 63	  0	
16-Apr-2013	sub2313	2313	  2	  0	148	  6	  2	  3	  5	  4	  1	  1	  1	0.70810	  1	0.70000	  1	 23	 62	 51	  0	
16-Apr-2013	sub2313	2313	  2	  0	149	  6	  2	  3	  5	  4	  1	  1	  1	0.51650	  1	0.80000	  0	 23	 62	 63	  0	
16-Apr-2013	sub2313	2313	  2	  0	150	  6	  2	  3	  5	  4	  1	  1	  1	0.56510	  1	0.80000	  0	 23	 62	 63	  0	
