Date 	 Name 	 ID 	 Gender 	 Appearance 	 Trial 	 Block 	 Bin 	 Condition 	 Category 	 Number 	 Valid 	 Keypress 	 Correct 	 RT 	 Realcorrect 	 Deadline 	 Timeout 	 Stimtrigger 	 Resptrigger 	 Fedtrigger 	 WithinTime 	 
16-Apr-2013	sub2314	2314	  2	  1	  1	  1	  1	  2	  2	  5	  1	  1	  0	0.59702	  0	0.60000	  0	 12	 40	 41	  0	
16-Apr-2013	sub2314	2314	  2	  1	  2	  1	  1	  3	  6	  3	  0	  2	  1	1.02659	  0	0.30000	  1	 13	 44	 51	  0	
16-Apr-2013	sub2314	2314	  2	  1	  3	  1	  1	  1	  3	  1	  1	  1	  1	0.63860	  1	0.90000	  0	 11	 30	 31	  0	
16-Apr-2013	sub2314	2314	  2	  1	  4	  1	  1	  6	  1	  3	  0	  2	  0	0.94403	  1	0.90000	  1	 16	 37	 51	  0	
16-Apr-2013	sub2314	2314	  2	  1	  5	  1	  1	  3	  6	  3	  1	  1	  1	0.61744	  1	0.90000	  0	 13	 32	 33	  0	
16-Apr-2013	sub2314	2314	  2	  1	  6	  1	  1	  2	  2	  5	  1	  1	  0	0.68155	  0	0.90000	  0	 12	 40	 41	  0	
16-Apr-2013	sub2314	2314	  2	  1	  7	  1	  1	  6	  1	  3	  0	  2	  0	0.71283	  1	0.90000	  0	 16	 37	 48	  0	
16-Apr-2013	sub2314	2314	  2	  1	  8	  1	  1	  4	  5	  3	  1	  1	  0	0.64111	  0	0.90000	  0	 14	 42	 43	  0	
16-Apr-2013	sub2314	2314	  2	  1	  9	  1	  1	  4	  5	  3	  1	  1	  0	0.43686	  0	0.90000	  0	 14	 42	 43	  1	
16-Apr-2013	sub2314	2314	  2	  1	 10	  1	  1	  5	  4	  1	  1	  2	  0	0.42746	  0	0.90000	  0	 15	 45	 46	  1	
16-Apr-2013	sub2314	2314	  2	  1	 11	  1	  1	  6	  1	  3	  1	  1	  0	0.49106	  0	0.90000	  0	 16	 45	 46	  1	
16-Apr-2013	sub2314	2314	  2	  1	 12	  1	  1	  6	  1	  3	  1	  2	  1	0.60153	  1	0.90000	  0	 16	 35	 36	  0	
16-Apr-2013	sub2314	2314	  2	  1	 13	  1	  1	  3	  6	  3	  1	  1	  1	0.67692	  1	0.90000	  0	 13	 32	 33	  0	
16-Apr-2013	sub2314	2314	  2	  1	 14	  1	  1	  4	  5	  3	  0	  2	  0	0.58770	  1	0.90000	  0	 14	 34	 49	  0	
16-Apr-2013	sub2314	2314	  2	  1	 15	  1	  1	  5	  4	  1	  0	  1	  0	0.52360	  1	0.90000	  0	 15	 37	 48	  0	
16-Apr-2013	sub2314	2314	  2	  1	 16	  1	  1	  3	  6	  3	  1	  2	  0	0.59675	  0	0.90000	  0	 13	 42	 43	  0	
16-Apr-2013	sub2314	2314	  2	  1	 17	  1	  1	  2	  2	  5	  1	  1	  0	0.59055	  0	0.90000	  0	 12	 40	 41	  0	
16-Apr-2013	sub2314	2314	  2	  1	 18	  1	  1	  5	  4	  1	  0	  2	  1	0.53674	  0	0.90000	  0	 15	 47	 38	  0	
16-Apr-2013	sub2314	2314	  2	  1	 19	  1	  1	  3	  6	  3	  0	  2	  1	0.42081	  0	0.90000	  0	 13	 44	 39	  1	
16-Apr-2013	sub2314	2314	  2	  1	 20	  1	  1	  6	  1	  3	  0	  2	  0	0.45285	  1	0.90000	  0	 16	 37	 48	  1	
16-Apr-2013	sub2314	2314	  2	  1	 21	  1	  1	  5	  4	  1	  1	  2	  0	0.67813	  0	0.90000	  0	 15	 45	 46	  0	
16-Apr-2013	sub2314	2314	  2	  1	 22	  1	  1	  4	  5	  3	  1	  1	  0	0.45751	  0	0.90000	  0	 14	 42	 43	  1	
16-Apr-2013	sub2314	2314	  2	  1	 23	  1	  1	  4	  5	  3	  1	  2	  1	0.62566	  1	0.90000	  0	 14	 32	 33	  0	
16-Apr-2013	sub2314	2314	  2	  1	 24	  1	  1	  4	  5	  3	  0	  2	  0	0.54905	  1	0.90000	  0	 14	 34	 49	  0	
16-Apr-2013	sub2314	2314	  2	  1	 25	  1	  1	  1	  3	  1	  1	  1	  1	0.52512	  1	0.90000	  0	 11	 30	 31	  0	
16-Apr-2013	sub2314	2314	  2	  1	 26	  1	  1	  6	  1	  3	  1	  2	  1	0.57851	  1	0.90000	  0	 16	 35	 36	  0	
16-Apr-2013	sub2314	2314	  2	  1	 27	  1	  1	  2	  2	  5	  1	  2	  1	0.70169	  1	0.90000	  0	 12	 30	 31	  0	
16-Apr-2013	sub2314	2314	  2	  1	 28	  1	  1	  1	  3	  1	  1	  2	  0	0.95693	  0	0.90000	  1	 11	 40	 51	  0	
16-Apr-2013	sub2314	2314	  2	  1	 29	  1	  1	  4	  5	  3	  1	  2	  1	0.29205	  1	0.90000	  0	 14	 32	 33	  1	
16-Apr-2013	sub2314	2314	  2	  1	 30	  1	  1	  6	  1	  3	  0	  2	  0	0.33357	  1	0.90000	  0	 16	 37	 48	  1	
16-Apr-2013	sub2314	2314	  2	  1	 31	  1	  1	  6	  1	  3	  1	  1	  0	0.39939	  0	0.90000	  0	 16	 45	 46	  1	
16-Apr-2013	sub2314	2314	  2	  1	 32	  1	  1	  4	  5	  3	  1	  2	  1	0.31686	  1	0.90000	  0	 14	 32	 33	  1	
16-Apr-2013	sub2314	2314	  2	  1	 33	  1	  1	  2	  2	  5	  1	  2	  1	0.37763	  1	0.90000	  0	 12	 30	 31	  1	
16-Apr-2013	sub2314	2314	  2	  1	 34	  1	  1	  1	  3	  1	  1	  2	  0	0.58566	  0	0.90000	  0	 11	 40	 41	  0	
16-Apr-2013	sub2314	2314	  2	  1	 35	  1	  1	  1	  3	  1	  1	  1	  1	0.60438	  1	0.90000	  0	 11	 30	 31	  0	
16-Apr-2013	sub2314	2314	  2	  1	 36	  1	  1	  3	  6	  3	  1	  2	  0	0.60234	  0	0.90000	  0	 13	 42	 43	  0	
16-Apr-2013	sub2314	2314	  2	  1	 37	  1	  1	  3	  6	  3	  1	  2	  0	0.49197	  0	0.90000	  0	 13	 42	 43	  1	
16-Apr-2013	sub2314	2314	  2	  1	 38	  1	  1	  3	  6	  3	  1	  1	  1	0.51118	  1	0.90000	  0	 13	 32	 33	  0	
16-Apr-2013	sub2314	2314	  2	  1	 39	  1	  1	  1	  3	  1	  1	  1	  1	0.50730	  1	0.90000	  0	 11	 30	 31	  0	
16-Apr-2013	sub2314	2314	  2	  1	 40	  1	  1	  5	  4	  1	  0	  1	  0	0.37298	  1	0.90000	  0	 15	 37	 48	  1	
16-Apr-2013	sub2314	2314	  2	  1	 41	  1	  1	  5	  4	  1	  1	  2	  0	0.33784	  0	0.90000	  0	 15	 45	 46	  1	
16-Apr-2013	sub2314	2314	  2	  1	 42	  1	  1	  4	  5	  3	  1	  1	  0	0.43684	  0	0.90000	  0	 14	 42	 43	  1	
16-Apr-2013	sub2314	2314	  2	  1	 43	  1	  1	  5	  4	  1	  0	  2	  1	0.46052	  0	0.90000	  0	 15	 47	 38	  1	
16-Apr-2013	sub2314	2314	  2	  1	 44	  1	  1	  1	  3	  1	  1	  2	  0	0.55084	  0	0.80000	  0	 11	 40	 41	  0	
16-Apr-2013	sub2314	2314	  2	  1	 45	  1	  1	  4	  5	  3	  1	  2	  1	0.56523	  1	0.80000	  0	 14	 32	 33	  0	
16-Apr-2013	sub2314	2314	  2	  1	 46	  1	  1	  5	  4	  1	  0	  2	  1	0.45623	  0	0.80000	  0	 15	 47	 38	  1	
16-Apr-2013	sub2314	2314	  2	  1	 47	  1	  1	  3	  6	  3	  1	  2	  0	0.46073	  0	0.80000	  0	 13	 42	 43	  1	
16-Apr-2013	sub2314	2314	  2	  1	 48	  1	  1	  3	  6	  3	  1	  1	  1	0.44883	  1	0.80000	  0	 13	 32	 33	  1	
16-Apr-2013	sub2314	2314	  2	  1	 49	  1	  1	  2	  2	  5	  1	  2	  1	0.55221	  1	0.80000	  0	 12	 30	 31	  0	
16-Apr-2013	sub2314	2314	  2	  1	 50	  1	  1	  6	  1	  3	  0	  1	  1	0.78655	  0	0.80000	  0	 16	 47	 38	  0	
16-Apr-2013	sub2314	2314	  2	  1	 51	  1	  1	  6	  1	  3	  1	  1	  0	0.40976	  0	0.70000	  0	 16	 45	 46	  1	
16-Apr-2013	sub2314	2314	  2	  1	 52	  1	  1	  1	  3	  1	  1	  2	  0	0.45130	  0	0.70000	  0	 11	 40	 41	  1	
16-Apr-2013	sub2314	2314	  2	  1	 53	  1	  1	  1	  3	  1	  1	  1	  1	0.38847	  1	0.70000	  0	 11	 30	 31	  1	
16-Apr-2013	sub2314	2314	  2	  1	 54	  1	  1	  3	  6	  3	  1	  2	  0	0.47892	  0	0.70000	  0	 13	 42	 43	  1	
16-Apr-2013	sub2314	2314	  2	  1	 55	  1	  1	  2	  2	  5	  1	  1	  0	0.52905	  0	0.70000	  0	 12	 40	 41	  0	
16-Apr-2013	sub2314	2314	  2	  1	 56	  1	  1	  6	  1	  3	  1	  1	  0	0.47937	  0	0.70000	  0	 16	 45	 46	  1	
16-Apr-2013	sub2314	2314	  2	  1	 57	  1	  1	  5	  4	  1	  1	  2	  0	0.50316	  0	0.70000	  0	 15	 45	 46	  0	
16-Apr-2013	sub2314	2314	  2	  1	 58	  1	  1	  5	  4	  1	  0	  1	  0	0.36196	  1	0.70000	  0	 15	 37	 48	  1	
16-Apr-2013	sub2314	2314	  2	  1	 59	  1	  1	  4	  5	  3	  1	  2	  1	0.52124	  1	0.70000	  0	 14	 32	 33	  0	
16-Apr-2013	sub2314	2314	  2	  1	 60	  1	  1	  2	  2	  5	  1	  2	  1	0.47280	  1	0.70000	  0	 12	 30	 31	  1	
16-Apr-2013	sub2314	2314	  2	  1	 61	  1	  1	  1	  3	  1	  1	  2	  0	0.40868	  0	0.60000	  0	 11	 40	 41	  1	
16-Apr-2013	sub2314	2314	  2	  1	 62	  1	  1	  2	  2	  5	  1	  2	  1	0.56552	  1	0.60000	  0	 12	 30	 31	  0	
16-Apr-2013	sub2314	2314	  2	  1	 63	  1	  1	  4	  5	  3	  1	  2	  1	0.42756	  1	0.60000	  0	 14	 32	 33	  1	
16-Apr-2013	sub2314	2314	  2	  1	 64	  1	  1	  5	  4	  1	  1	  2	  0	0.38778	  0	0.60000	  0	 15	 45	 46	  1	
16-Apr-2013	sub2314	2314	  2	  1	 65	  1	  1	  2	  2	  5	  1	  1	  0	0.41038	  0	0.60000	  0	 12	 40	 41	  1	
16-Apr-2013	sub2314	2314	  2	  1	 66	  1	  1	  5	  4	  1	  1	  2	  0	0.58161	  0	0.60000	  0	 15	 45	 46	  0	
16-Apr-2013	sub2314	2314	  2	  1	 67	  1	  1	  3	  6	  3	  0	  1	  0	0.38016	  1	0.60000	  0	 13	 34	 49	  1	
16-Apr-2013	sub2314	2314	  2	  1	 68	  1	  1	  1	  3	  1	  1	  1	  1	0.52498	  1	0.60000	  0	 11	 30	 31	  0	
16-Apr-2013	sub2314	2314	  2	  1	 69	  1	  1	  1	  3	  1	  1	  1	  1	0.48367	  1	0.60000	  0	 11	 30	 31	  1	
16-Apr-2013	sub2314	2314	  2	  1	 70	  1	  1	  2	  2	  5	  1	  2	  1	0.50413	  1	0.60000	  0	 12	 30	 31	  0	
16-Apr-2013	sub2314	2314	  2	  1	 71	  1	  1	  3	  6	  3	  1	  2	  0	0.56913	  0	0.60000	  0	 13	 42	 43	  0	
16-Apr-2013	sub2314	2314	  2	  1	 72	  1	  1	  6	  1	  3	  1	  2	  1	0.49184	  1	0.60000	  0	 16	 35	 36	  1	
16-Apr-2013	sub2314	2314	  2	  1	 73	  1	  1	  6	  1	  3	  0	  2	  0	0.39936	  1	0.60000	  0	 16	 37	 48	  1	
16-Apr-2013	sub2314	2314	  2	  1	 74	  1	  1	  2	  2	  5	  1	  1	  0	0.40008	  0	0.60000	  0	 12	 40	 41	  1	
16-Apr-2013	sub2314	2314	  2	  1	 75	  1	  1	  2	  2	  5	  1	  1	  0	0.41406	  0	0.60000	  0	 12	 40	 41	  1	
16-Apr-2013	sub2314	2314	  2	  1	  1	  2	  1	  1	  6	  6	  1	  2	  0	0.63264	  0	0.60000	  1	 11	 40	 51	  0	
16-Apr-2013	sub2314	2314	  2	  1	  2	  2	  1	  5	  3	  2	  1	  2	  0	0.28851	  0	0.90000	  0	 15	 45	 46	  1	
16-Apr-2013	sub2314	2314	  2	  1	  3	  2	  1	  6	  1	  5	  0	  1	  1	0.39053	  0	0.90000	  0	 16	 47	 38	  1	
16-Apr-2013	sub2314	2314	  2	  1	  4	  2	  1	  4	  2	  6	  1	  1	  0	0.39958	  0	0.90000	  0	 14	 42	 43	  1	
16-Apr-2013	sub2314	2314	  2	  1	  5	  2	  1	  3	  4	  2	  1	  2	  0	0.31114	  0	0.90000	  0	 13	 42	 43	  1	
16-Apr-2013	sub2314	2314	  2	  1	  6	  2	  1	  1	  6	  6	  1	  2	  0	0.24495	  0	0.90000	  0	 11	 40	 41	  1	
16-Apr-2013	sub2314	2314	  2	  1	  7	  2	  1	  1	  6	  6	  1	  1	  1	0.30893	  1	0.90000	  0	 11	 30	 31	  1	
16-Apr-2013	sub2314	2314	  2	  1	  8	  2	  1	  5	  3	  2	  0	  1	  0	0.49220	  1	0.90000	  0	 15	 37	 48	  1	
16-Apr-2013	sub2314	2314	  2	  1	  9	  2	  1	  3	  4	  2	  1	  2	  0	0.36847	  0	0.90000	  0	 13	 42	 43	  1	
16-Apr-2013	sub2314	2314	  2	  1	 10	  2	  1	  3	  4	  2	  0	  2	  1	0.42848	  0	0.90000	  0	 13	 44	 39	  1	
16-Apr-2013	sub2314	2314	  2	  1	 11	  2	  1	  5	  3	  2	  0	  2	  1	0.41133	  0	0.90000	  0	 15	 47	 38	  1	
16-Apr-2013	sub2314	2314	  2	  1	 12	  2	  1	  6	  1	  5	  0	  2	  0	0.33841	  1	0.90000	  0	 16	 37	 48	  1	
16-Apr-2013	sub2314	2314	  2	  1	 13	  2	  1	  4	  2	  6	  1	  1	  0	0.39071	  0	0.90000	  0	 14	 42	 43	  1	
16-Apr-2013	sub2314	2314	  2	  1	 14	  2	  1	  3	  4	  2	  1	  1	  1	0.31110	  1	0.90000	  0	 13	 32	 33	  1	
16-Apr-2013	sub2314	2314	  2	  1	 15	  2	  1	  5	  3	  2	  1	  1	  1	0.33803	  1	0.90000	  0	 15	 35	 36	  1	
16-Apr-2013	sub2314	2314	  2	  1	 16	  2	  1	  1	  6	  6	  1	  1	  1	0.28208	  1	0.80000	  0	 11	 30	 31	  1	
16-Apr-2013	sub2314	2314	  2	  1	 17	  2	  1	  3	  4	  2	  0	  2	  1	0.28273	  0	0.80000	  0	 13	 44	 39	  1	
16-Apr-2013	sub2314	2314	  2	  1	 18	  2	  1	  6	  1	  5	  0	  1	  1	0.32494	  0	0.70000	  0	 16	 47	 38	  1	
16-Apr-2013	sub2314	2314	  2	  1	 19	  2	  1	  5	  3	  2	  0	  2	  1	0.33900	  0	0.70000	  0	 15	 47	 38	  1	
16-Apr-2013	sub2314	2314	  2	  1	 20	  2	  1	  3	  4	  2	  1	  1	  1	0.28626	  1	0.70000	  0	 13	 32	 33	  1	
16-Apr-2013	sub2314	2314	  2	  1	 21	  2	  1	  2	  5	  6	  1	  1	  0	0.36123	  0	0.60000	  0	 12	 40	 41	  1	
16-Apr-2013	sub2314	2314	  2	  1	 22	  2	  1	  5	  3	  2	  1	  2	  0	0.30362	  0	0.60000	  0	 15	 45	 46	  1	
16-Apr-2013	sub2314	2314	  2	  1	 23	  2	  1	  6	  1	  5	  1	  1	  0	0.35797	  0	0.60000	  0	 16	 45	 46	  1	
16-Apr-2013	sub2314	2314	  2	  1	 24	  2	  1	  2	  5	  6	  1	  1	  0	0.50428	  0	0.60000	  0	 12	 40	 41	  0	
16-Apr-2013	sub2314	2314	  2	  1	 25	  2	  1	  4	  2	  6	  1	  2	  1	0.48834	  1	0.60000	  0	 14	 32	 33	  1	
16-Apr-2013	sub2314	2314	  2	  1	 26	  2	  1	  1	  6	  6	  1	  2	  0	0.49148	  0	0.50000	  0	 11	 40	 41	  1	
16-Apr-2013	sub2314	2314	  2	  1	 27	  2	  1	  1	  6	  6	  1	  1	  1	0.42065	  1	0.50000	  0	 11	 30	 31	  1	
16-Apr-2013	sub2314	2314	  2	  1	 28	  2	  1	  6	  1	  5	  0	  1	  1	0.35767	  0	0.50000	  0	 16	 47	 38	  1	
16-Apr-2013	sub2314	2314	  2	  1	 29	  2	  1	  1	  6	  6	  1	  1	  1	0.36240	  1	0.50000	  0	 11	 30	 31	  1	
16-Apr-2013	sub2314	2314	  2	  1	 30	  2	  1	  6	  1	  5	  1	  1	  0	0.37044	  0	0.50000	  0	 16	 45	 46	  1	
16-Apr-2013	sub2314	2314	  2	  1	 31	  2	  1	  3	  4	  2	  1	  1	  1	0.32299	  1	0.50000	  0	 13	 32	 33	  1	
16-Apr-2013	sub2314	2314	  2	  1	 32	  2	  1	  6	  1	  5	  1	  1	  0	0.38334	  0	0.50000	  0	 16	 45	 46	  1	
16-Apr-2013	sub2314	2314	  2	  1	 33	  2	  1	  6	  1	  5	  1	  2	  1	0.43748	  1	0.50000	  0	 16	 35	 36	  1	
16-Apr-2013	sub2314	2314	  2	  1	 34	  2	  1	  4	  2	  6	  1	  2	  1	0.47871	  1	0.50000	  0	 14	 32	 33	  1	
16-Apr-2013	sub2314	2314	  2	  1	 35	  2	  1	  5	  3	  2	  0	  2	  1	0.39417	  0	0.40000	  0	 15	 47	 38	  1	
16-Apr-2013	sub2314	2314	  2	  1	 36	  2	  1	  5	  3	  2	  0	  2	  1	0.36180	  0	0.40000	  0	 15	 47	 38	  1	
16-Apr-2013	sub2314	2314	  2	  1	 37	  2	  1	  1	  6	  6	  1	  2	  0	0.32750	  0	0.40000	  0	 11	 40	 41	  1	
16-Apr-2013	sub2314	2314	  2	  1	 38	  2	  1	  4	  2	  6	  1	  1	  0	0.38842	  0	0.40000	  0	 14	 42	 43	  1	
16-Apr-2013	sub2314	2314	  2	  1	 39	  2	  1	  3	  4	  2	  1	  1	  1	0.54310	  1	0.40000	  1	 13	 32	 51	  0	
16-Apr-2013	sub2314	2314	  2	  1	 40	  2	  1	  6	  1	  5	  0	  1	  1	0.30446	  0	0.70000	  0	 16	 47	 38	  1	
16-Apr-2013	sub2314	2314	  2	  1	 41	  2	  1	  4	  2	  6	  1	  1	  0	0.28461	  0	0.60000	  0	 14	 42	 43	  1	
16-Apr-2013	sub2314	2314	  2	  1	 42	  2	  1	  6	  1	  5	  1	  2	  1	0.28925	  1	0.60000	  0	 16	 35	 36	  1	
16-Apr-2013	sub2314	2314	  2	  1	 43	  2	  1	  4	  2	  6	  1	  2	  1	0.34795	  1	0.60000	  0	 14	 32	 33	  1	
16-Apr-2013	sub2314	2314	  2	  1	 44	  2	  1	  2	  5	  6	  1	  2	  1	0.41910	  1	0.60000	  0	 12	 30	 31	  1	
16-Apr-2013	sub2314	2314	  2	  1	 45	  2	  1	  3	  4	  2	  1	  2	  0	0.32902	  0	0.60000	  0	 13	 42	 43	  1	
16-Apr-2013	sub2314	2314	  2	  1	 46	  2	  1	  2	  5	  6	  1	  1	  0	0.36950	  0	0.60000	  0	 12	 40	 41	  1	
16-Apr-2013	sub2314	2314	  2	  1	 47	  2	  1	  1	  6	  6	  1	  2	  0	0.32337	  0	0.60000	  0	 11	 40	 41	  1	
16-Apr-2013	sub2314	2314	  2	  1	 48	  2	  1	  5	  3	  2	  1	  1	  1	0.46944	  1	0.60000	  0	 15	 35	 36	  1	
16-Apr-2013	sub2314	2314	  2	  1	 49	  2	  1	  4	  2	  6	  1	  1	  0	0.43079	  0	0.60000	  0	 14	 42	 43	  1	
16-Apr-2013	sub2314	2314	  2	  1	 50	  2	  1	  6	  1	  5	  0	  1	  1	0.49830	  0	0.60000	  0	 16	 47	 38	  1	
16-Apr-2013	sub2314	2314	  2	  1	 51	  2	  1	  3	  4	  2	  1	  1	  1	0.44674	  1	0.50000	  0	 13	 32	 33	  1	
16-Apr-2013	sub2314	2314	  2	  1	 52	  2	  1	  2	  5	  6	  1	  1	  0	0.48608	  0	0.50000	  0	 12	 40	 41	  1	
16-Apr-2013	sub2314	2314	  2	  1	 53	  2	  1	  3	  4	  2	  1	  2	  0	0.44212	  0	0.50000	  0	 13	 42	 43	  1	
16-Apr-2013	sub2314	2314	  2	  1	 54	  2	  1	  4	  2	  6	  0	  2	  0	0.42212	  1	0.50000	  0	 14	 34	 49	  1	
16-Apr-2013	sub2314	2314	  2	  1	 55	  2	  1	  4	  2	  6	  1	  1	  0	0.41223	  0	0.50000	  0	 14	 42	 43	  1	
16-Apr-2013	sub2314	2314	  2	  1	 56	  2	  1	  2	  5	  6	  1	  2	  1	0.37928	  1	0.50000	  0	 12	 30	 31	  1	
16-Apr-2013	sub2314	2314	  2	  1	 57	  2	  1	  6	  1	  5	  0	  2	  0	0.46137	  1	0.50000	  0	 16	 37	 48	  1	
16-Apr-2013	sub2314	2314	  2	  1	 58	  2	  1	  3	  4	  2	  1	  1	  1	0.35410	  1	0.50000	  0	 13	 32	 33	  1	
16-Apr-2013	sub2314	2314	  2	  1	 59	  2	  1	  3	  4	  2	  0	  1	  0	0.36922	  1	0.50000	  0	 13	 34	 49	  1	
16-Apr-2013	sub2314	2314	  2	  1	 60	  2	  1	  5	  3	  2	  1	  2	  0	0.32176	  0	0.50000	  0	 15	 45	 46	  1	
16-Apr-2013	sub2314	2314	  2	  1	 61	  2	  1	  2	  5	  6	  1	  1	  0	0.46619	  0	0.50000	  0	 12	 40	 41	  1	
16-Apr-2013	sub2314	2314	  2	  1	 62	  2	  1	  2	  5	  6	  1	  2	  1	0.65433	  1	0.50000	  1	 12	 30	 51	  0	
16-Apr-2013	sub2314	2314	  2	  1	 63	  2	  1	  1	  6	  6	  1	  1	  1	0.44137	  1	0.60000	  0	 11	 30	 31	  1	
16-Apr-2013	sub2314	2314	  2	  1	 64	  2	  1	  2	  5	  6	  1	  1	  0	0.33662	  0	0.60000	  0	 12	 40	 41	  1	
16-Apr-2013	sub2314	2314	  2	  1	 65	  2	  1	  5	  3	  2	  1	  2	  0	0.29782	  0	0.60000	  0	 15	 45	 46	  1	
16-Apr-2013	sub2314	2314	  2	  1	 66	  2	  1	  2	  5	  6	  1	  1	  0	0.33984	  0	0.60000	  0	 12	 40	 41	  1	
16-Apr-2013	sub2314	2314	  2	  1	 67	  2	  1	  2	  5	  6	  1	  1	  0	0.29973	  0	0.60000	  0	 12	 40	 41	  1	
16-Apr-2013	sub2314	2314	  2	  1	 68	  2	  1	  2	  5	  6	  1	  2	  1	0.34152	  1	0.60000	  0	 12	 30	 31	  1	
16-Apr-2013	sub2314	2314	  2	  1	 69	  2	  1	  2	  5	  6	  1	  2	  1	0.42315	  1	0.60000	  0	 12	 30	 31	  1	
16-Apr-2013	sub2314	2314	  2	  1	 70	  2	  1	  6	  1	  5	  0	  1	  1	0.58833	  0	0.60000	  0	 16	 47	 38	  0	
16-Apr-2013	sub2314	2314	  2	  1	 71	  2	  1	  5	  3	  2	  1	  1	  1	0.34016	  1	0.60000	  0	 15	 35	 36	  1	
16-Apr-2013	sub2314	2314	  2	  1	 72	  2	  1	  1	  6	  6	  1	  1	  1	0.44934	  1	0.60000	  0	 11	 30	 31	  1	
16-Apr-2013	sub2314	2314	  2	  1	 73	  2	  1	  1	  6	  6	  1	  1	  1	0.41384	  1	0.60000	  0	 11	 30	 31	  1	
16-Apr-2013	sub2314	2314	  2	  1	 74	  2	  1	  4	  2	  6	  1	  1	  0	0.39509	  0	0.60000	  0	 14	 42	 43	  1	
16-Apr-2013	sub2314	2314	  2	  1	 75	  2	  1	  4	  2	  6	  0	  2	  0	0.39308	  1	0.60000	  0	 14	 34	 49	  1	
16-Apr-2013	sub2314	2314	  2	  1	 76	  2	  2	  2	  5	  6	  1	  1	  0	0.36127	  0	0.50000	  0	 22	 80	 81	  1	
16-Apr-2013	sub2314	2314	  2	  1	 77	  2	  2	  4	  2	  6	  1	  1	  0	0.34350	  0	0.50000	  0	 24	 82	 83	  1	
16-Apr-2013	sub2314	2314	  2	  1	 78	  2	  2	  1	  6	  6	  1	  2	  0	0.34242	  0	0.50000	  0	 21	 80	 81	  1	
16-Apr-2013	sub2314	2314	  2	  1	 79	  2	  2	  4	  2	  6	  1	  1	  0	0.44168	  0	0.50000	  0	 24	 82	 83	  1	
16-Apr-2013	sub2314	2314	  2	  1	 80	  2	  2	  3	  4	  2	  1	  2	  0	0.48406	  0	0.50000	  0	 23	 82	 83	  1	
16-Apr-2013	sub2314	2314	  2	  1	 81	  2	  2	  3	  4	  2	  1	  2	  0	0.41918	  0	0.50000	  0	 23	 82	 83	  1	
16-Apr-2013	sub2314	2314	  2	  1	 82	  2	  2	  4	  2	  6	  0	  2	  0	0.39329	  1	0.50000	  0	 24	 64	 89	  1	
16-Apr-2013	sub2314	2314	  2	  1	 83	  2	  2	  5	  3	  2	  0	  1	  0	0.49197	  1	0.50000	  0	 25	 67	 88	  1	
16-Apr-2013	sub2314	2314	  2	  1	 84	  2	  2	  4	  2	  6	  1	  2	  1	0.48383	  1	0.50000	  0	 24	 62	 63	  1	
16-Apr-2013	sub2314	2314	  2	  1	 85	  2	  2	  3	  4	  2	  1	  2	  0	0.46122	  0	0.50000	  0	 23	 82	 83	  1	
16-Apr-2013	sub2314	2314	  2	  1	 86	  2	  2	  6	  1	  5	  1	  1	  0	0.31107	  0	0.50000	  0	 26	 85	 86	  1	
16-Apr-2013	sub2314	2314	  2	  1	 87	  2	  2	  3	  4	  2	  0	  2	  1	0.37693	  0	0.50000	  0	 23	 84	 69	  1	
16-Apr-2013	sub2314	2314	  2	  1	 88	  2	  2	  6	  1	  5	  0	  2	  0	0.51505	  1	0.50000	  1	 26	 67	 51	  0	
16-Apr-2013	sub2314	2314	  2	  1	 89	  2	  2	  1	  6	  6	  1	  2	  0	0.32798	  0	0.60000	  0	 21	 80	 81	  1	
16-Apr-2013	sub2314	2314	  2	  1	 90	  2	  2	  2	  5	  6	  1	  1	  0	0.33850	  0	0.60000	  0	 22	 80	 81	  1	
16-Apr-2013	sub2314	2314	  2	  1	 91	  2	  2	  2	  5	  6	  1	  2	  1	0.27679	  1	0.60000	  0	 22	 60	 61	  1	
16-Apr-2013	sub2314	2314	  2	  1	 92	  2	  2	  5	  3	  2	  0	  2	  1	0.41523	  0	0.60000	  0	 25	 87	 68	  1	
16-Apr-2013	sub2314	2314	  2	  1	 93	  2	  2	  6	  1	  5	  0	  2	  0	0.48468	  1	0.60000	  0	 26	 67	 88	  1	
16-Apr-2013	sub2314	2314	  2	  1	 94	  2	  2	  5	  3	  2	  0	  1	  0	0.55488	  1	0.60000	  0	 25	 67	 88	  0	
16-Apr-2013	sub2314	2314	  2	  1	 95	  2	  2	  2	  5	  6	  1	  2	  1	0.39613	  1	0.60000	  0	 22	 60	 61	  1	
16-Apr-2013	sub2314	2314	  2	  1	 96	  2	  2	  3	  4	  2	  1	  2	  0	0.40739	  0	0.60000	  0	 23	 82	 83	  1	
16-Apr-2013	sub2314	2314	  2	  1	 97	  2	  2	  1	  6	  6	  1	  1	  1	0.00939	  1	0.60000	  0	 21	 60	 61	  1	
16-Apr-2013	sub2314	2314	  2	  1	 98	  2	  2	  5	  3	  2	  0	  2	  1	0.43076	  0	0.60000	  0	 25	 87	 68	  1	
16-Apr-2013	sub2314	2314	  2	  1	 99	  2	  2	  2	  5	  6	  1	  1	  0	0.46789	  0	0.60000	  0	 22	 80	 81	  1	
16-Apr-2013	sub2314	2314	  2	  1	100	  2	  2	  3	  4	  2	  1	  2	  0	1.11290	  0	0.60000	  1	 23	 82	 51	  0	
16-Apr-2013	sub2314	2314	  2	  1	101	  2	  2	  4	  2	  6	  1	  2	  1	0.45857	  1	0.60000	  0	 24	 62	 63	  1	
16-Apr-2013	sub2314	2314	  2	  1	102	  2	  2	  4	  2	  6	  1	  1	  0	0.37417	  0	0.60000	  0	 24	 82	 83	  1	
16-Apr-2013	sub2314	2314	  2	  1	103	  2	  2	  2	  5	  6	  1	  2	  1	0.43302	  1	0.60000	  0	 22	 60	 61	  1	
16-Apr-2013	sub2314	2314	  2	  1	104	  2	  2	  2	  5	  6	  1	  2	  1	0.55229	  1	0.60000	  0	 22	 60	 61	  0	
16-Apr-2013	sub2314	2314	  2	  1	105	  2	  2	  5	  3	  2	  0	  2	  1	0.31759	  0	0.60000	  0	 25	 87	 68	  1	
16-Apr-2013	sub2314	2314	  2	  1	106	  2	  2	  4	  2	  6	  1	  2	  1	0.34892	  1	0.60000	  0	 24	 62	 63	  1	
16-Apr-2013	sub2314	2314	  2	  1	107	  2	  2	  5	  3	  2	  0	  2	  1	0.33847	  0	0.60000	  0	 25	 87	 68	  1	
16-Apr-2013	sub2314	2314	  2	  1	108	  2	  2	  3	  4	  2	  1	  2	  0	0.32118	  0	0.60000	  0	 23	 82	 83	  1	
16-Apr-2013	sub2314	2314	  2	  1	109	  2	  2	  2	  5	  6	  1	  1	  0	0.47057	  0	0.60000	  0	 22	 80	 81	  1	
16-Apr-2013	sub2314	2314	  2	  1	110	  2	  2	  5	  3	  2	  0	  2	  1	0.59990	  0	0.60000	  0	 25	 87	 68	  0	
16-Apr-2013	sub2314	2314	  2	  1	111	  2	  2	  5	  3	  2	  0	  1	  0	0.37712	  1	0.60000	  0	 25	 67	 88	  1	
16-Apr-2013	sub2314	2314	  2	  1	112	  2	  2	  5	  3	  2	  0	  2	  1	0.48192	  0	0.60000	  0	 25	 87	 68	  1	
16-Apr-2013	sub2314	2314	  2	  1	113	  2	  2	  5	  3	  2	  0	  2	  1	0.37014	  0	0.60000	  0	 25	 87	 68	  1	
16-Apr-2013	sub2314	2314	  2	  1	114	  2	  2	  6	  1	  5	  1	  1	  0	0.60342	  0	0.60000	  1	 26	 85	 51	  0	
16-Apr-2013	sub2314	2314	  2	  1	115	  2	  2	  6	  1	  5	  0	  1	  1	0.43138	  0	0.70000	  0	 26	 87	 68	  1	
16-Apr-2013	sub2314	2314	  2	  1	116	  2	  2	  5	  3	  2	  0	  1	  0	0.39740	  1	0.70000	  0	 25	 67	 88	  1	
16-Apr-2013	sub2314	2314	  2	  1	117	  2	  2	  2	  5	  6	  1	  1	  0	0.49716	  0	0.70000	  0	 22	 80	 81	  1	
16-Apr-2013	sub2314	2314	  2	  1	118	  2	  2	  3	  4	  2	  1	  2	  0	0.49954	  0	0.70000	  0	 23	 82	 83	  1	
16-Apr-2013	sub2314	2314	  2	  1	119	  2	  2	  2	  5	  6	  1	  1	  0	0.36287	  0	0.70000	  0	 22	 80	 81	  1	
16-Apr-2013	sub2314	2314	  2	  1	120	  2	  2	  1	  6	  6	  1	  2	  0	0.50025	  0	0.70000	  0	 21	 80	 81	  1	
16-Apr-2013	sub2314	2314	  2	  1	121	  2	  2	  3	  4	  2	  1	  1	  1	0.49817	  1	0.60000	  0	 23	 62	 63	  1	
16-Apr-2013	sub2314	2314	  2	  1	122	  2	  2	  3	  4	  2	  1	  1	  1	0.49167	  1	0.60000	  0	 23	 62	 63	  1	
16-Apr-2013	sub2314	2314	  2	  1	123	  2	  2	  4	  2	  6	  1	  2	  1	0.56590	  1	0.60000	  0	 24	 62	 63	  0	
16-Apr-2013	sub2314	2314	  2	  1	124	  2	  2	  4	  2	  6	  1	  2	  1	0.47014	  1	0.60000	  0	 24	 62	 63	  1	
16-Apr-2013	sub2314	2314	  2	  1	125	  2	  2	  5	  3	  2	  0	  1	  0	0.36363	  1	0.60000	  0	 25	 67	 88	  1	
16-Apr-2013	sub2314	2314	  2	  1	126	  2	  2	  6	  1	  5	  1	  2	  1	0.26699	  1	0.60000	  0	 26	 65	 66	  1	
16-Apr-2013	sub2314	2314	  2	  1	127	  2	  2	  1	  6	  6	  1	  2	  0	0.59560	  0	0.60000	  0	 21	 80	 81	  0	
16-Apr-2013	sub2314	2314	  2	  1	128	  2	  2	  1	  6	  6	  1	  1	  1	0.57209	  1	0.60000	  0	 21	 60	 61	  0	
16-Apr-2013	sub2314	2314	  2	  1	129	  2	  2	  3	  4	  2	  1	  1	  1	0.53637	  1	0.60000	  0	 23	 62	 63	  0	
16-Apr-2013	sub2314	2314	  2	  1	130	  2	  2	  2	  5	  6	  1	  2	  1	0.46534	  1	0.60000	  0	 22	 60	 61	  1	
16-Apr-2013	sub2314	2314	  2	  1	131	  2	  2	  2	  5	  6	  1	  1	  0	0.35890	  0	0.60000	  0	 22	 80	 81	  1	
16-Apr-2013	sub2314	2314	  2	  1	132	  2	  2	  6	  1	  5	  1	  2	  1	0.40441	  1	0.60000	  0	 26	 65	 66	  1	
16-Apr-2013	sub2314	2314	  2	  1	133	  2	  2	  3	  4	  2	  0	  2	  1	0.47757	  0	0.60000	  0	 23	 84	 69	  1	
16-Apr-2013	sub2314	2314	  2	  1	134	  2	  2	  4	  2	  6	  1	  2	  1	0.36243	  1	0.60000	  0	 24	 62	 63	  1	
16-Apr-2013	sub2314	2314	  2	  1	135	  2	  2	  1	  6	  6	  1	  2	  0	0.33313	  0	0.60000	  0	 21	 80	 81	  1	
16-Apr-2013	sub2314	2314	  2	  1	136	  2	  2	  4	  2	  6	  1	  1	  0	0.42644	  0	0.60000	  0	 24	 82	 83	  1	
16-Apr-2013	sub2314	2314	  2	  1	137	  2	  2	  6	  1	  5	  1	  1	  0	0.52096	  0	0.60000	  0	 26	 85	 86	  0	
16-Apr-2013	sub2314	2314	  2	  1	138	  2	  2	  4	  2	  6	  0	  2	  0	0.46708	  1	0.60000	  0	 24	 64	 89	  1	
16-Apr-2013	sub2314	2314	  2	  1	139	  2	  2	  1	  6	  6	  1	  1	  1	0.57243	  1	0.60000	  0	 21	 60	 61	  0	
16-Apr-2013	sub2314	2314	  2	  1	140	  2	  2	  4	  2	  6	  0	  1	  1	0.44634	  0	0.60000	  0	 24	 84	 69	  1	
16-Apr-2013	sub2314	2314	  2	  1	141	  2	  2	  1	  6	  6	  1	  1	  1	0.49266	  1	0.60000	  0	 21	 60	 61	  1	
16-Apr-2013	sub2314	2314	  2	  1	142	  2	  2	  1	  6	  6	  1	  1	  1	0.40395	  1	0.60000	  0	 21	 60	 61	  1	
16-Apr-2013	sub2314	2314	  2	  1	143	  2	  2	  6	  1	  5	  0	  1	  1	0.37950	  0	0.60000	  0	 26	 87	 68	  1	
16-Apr-2013	sub2314	2314	  2	  1	144	  2	  2	  6	  1	  5	  0	  1	  1	0.38531	  0	0.60000	  0	 26	 87	 68	  1	
16-Apr-2013	sub2314	2314	  2	  1	145	  2	  2	  1	  6	  6	  1	  1	  1	0.37820	  1	0.60000	  0	 21	 60	 61	  1	
16-Apr-2013	sub2314	2314	  2	  1	146	  2	  2	  1	  6	  6	  1	  1	  1	0.36290	  1	0.60000	  0	 21	 60	 61	  1	
16-Apr-2013	sub2314	2314	  2	  1	147	  2	  2	  1	  6	  6	  1	  1	  1	0.41091	  1	0.60000	  0	 21	 60	 61	  1	
16-Apr-2013	sub2314	2314	  2	  1	148	  2	  2	  5	  3	  2	  0	  1	  0	0.33037	  1	0.60000	  0	 25	 67	 88	  1	
16-Apr-2013	sub2314	2314	  2	  1	149	  2	  2	  6	  1	  5	  1	  2	  1	0.50992	  1	0.60000	  0	 26	 65	 66	  0	
16-Apr-2013	sub2314	2314	  2	  1	150	  2	  2	  6	  1	  5	  0	  2	  0	0.41982	  1	0.60000	  0	 26	 67	 88	  1	
16-Apr-2013	sub2314	2314	  2	  1	  1	  3	  1	  5	  3	  5	  0	  1	  0	0.43081	  1	0.60000	  0	 15	 37	 48	  1	
16-Apr-2013	sub2314	2314	  2	  1	  2	  3	  1	  1	  6	  4	  1	  2	  0	0.40128	  0	0.30000	  1	 11	 40	 51	  1	
16-Apr-2013	sub2314	2314	  2	  1	  3	  3	  1	  3	  5	  4	  1	  1	  1	0.29230	  1	0.90000	  0	 13	 32	 33	  1	
16-Apr-2013	sub2314	2314	  2	  1	  4	  3	  1	  6	  2	  3	  0	  1	  1	0.29057	  0	0.90000	  0	 16	 47	 38	  1	
16-Apr-2013	sub2314	2314	  2	  1	  5	  3	  1	  3	  5	  4	  1	  1	  1	0.40754	  1	0.90000	  0	 13	 32	 33	  1	
16-Apr-2013	sub2314	2314	  2	  1	  6	  3	  1	  1	  6	  4	  1	  1	  1	0.45262	  1	0.90000	  0	 11	 30	 31	  1	
16-Apr-2013	sub2314	2314	  2	  1	  7	  3	  1	  2	  4	  5	  1	  1	  0	0.29652	  0	0.90000	  0	 12	 40	 41	  1	
16-Apr-2013	sub2314	2314	  2	  1	  8	  3	  1	  2	  4	  5	  1	  1	  0	0.39703	  0	0.90000	  0	 12	 40	 41	  1	
16-Apr-2013	sub2314	2314	  2	  1	  9	  3	  1	  6	  2	  3	  1	  1	  0	0.54252	  0	0.90000	  0	 16	 45	 46	  0	
16-Apr-2013	sub2314	2314	  2	  1	 10	  3	  1	  5	  3	  5	  1	  2	  0	0.45082	  0	0.90000	  0	 15	 45	 46	  1	
16-Apr-2013	sub2314	2314	  2	  1	 11	  3	  1	  6	  2	  3	  1	  1	  0	0.38354	  0	0.90000	  0	 16	 45	 46	  1	
16-Apr-2013	sub2314	2314	  2	  1	 12	  3	  1	  1	  6	  4	  1	  2	  0	0.45147	  0	0.90000	  0	 11	 40	 41	  1	
16-Apr-2013	sub2314	2314	  2	  1	 13	  3	  1	  4	  1	  2	  1	  1	  0	0.46236	  0	0.90000	  0	 14	 42	 43	  1	
16-Apr-2013	sub2314	2314	  2	  1	 14	  3	  1	  2	  4	  5	  1	  2	  1	0.49826	  1	0.90000	  0	 12	 30	 31	  1	
16-Apr-2013	sub2314	2314	  2	  1	 15	  3	  1	  1	  6	  4	  1	  2	  0	0.46777	  0	0.90000	  0	 11	 40	 41	  1	
16-Apr-2013	sub2314	2314	  2	  1	 16	  3	  1	  2	  4	  5	  1	  1	  0	0.68172	  0	0.80000	  0	 12	 40	 41	  0	
16-Apr-2013	sub2314	2314	  2	  1	 17	  3	  1	  6	  2	  3	  1	  2	  1	0.54170	  1	0.80000	  0	 16	 35	 36	  0	
16-Apr-2013	sub2314	2314	  2	  1	 18	  3	  1	  4	  1	  2	  1	  2	  1	0.48809	  1	0.70000	  0	 14	 32	 33	  1	
16-Apr-2013	sub2314	2314	  2	  1	 19	  3	  1	  3	  5	  4	  0	  2	  1	0.38482	  0	0.70000	  0	 13	 44	 39	  1	
16-Apr-2013	sub2314	2314	  2	  1	 20	  3	  1	  3	  5	  4	  1	  2	  0	0.40389	  0	0.70000	  0	 13	 42	 43	  1	
16-Apr-2013	sub2314	2314	  2	  1	 21	  3	  1	  1	  6	  4	  1	  1	  1	0.35589	  1	0.60000	  0	 11	 30	 31	  1	
16-Apr-2013	sub2314	2314	  2	  1	 22	  3	  1	  1	  6	  4	  1	  1	  1	0.36938	  1	0.60000	  0	 11	 30	 31	  1	
16-Apr-2013	sub2314	2314	  2	  1	 23	  3	  1	  5	  3	  5	  0	  1	  0	0.32084	  1	0.60000	  0	 15	 37	 48	  1	
16-Apr-2013	sub2314	2314	  2	  1	 24	  3	  1	  4	  1	  2	  0	  2	  0	0.41846	  1	0.60000	  0	 14	 34	 49	  1	
16-Apr-2013	sub2314	2314	  2	  1	 25	  3	  1	  5	  3	  5	  0	  1	  0	0.36794	  1	0.60000	  0	 15	 37	 48	  1	
16-Apr-2013	sub2314	2314	  2	  1	 26	  3	  1	  4	  1	  2	  1	  2	  1	0.45576	  1	0.50000	  0	 14	 32	 33	  1	
16-Apr-2013	sub2314	2314	  2	  1	 27	  3	  1	  6	  2	  3	  0	  2	  0	0.51613	  1	0.50000	  1	 16	 37	 51	  0	
16-Apr-2013	sub2314	2314	  2	  1	 28	  3	  1	  2	  4	  5	  1	  2	  1	0.40337	  1	0.90000	  0	 12	 30	 31	  1	
16-Apr-2013	sub2314	2314	  2	  1	 29	  3	  1	  2	  4	  5	  1	  2	  1	0.39858	  1	0.90000	  0	 12	 30	 31	  1	
16-Apr-2013	sub2314	2314	  2	  1	 30	  3	  1	  1	  6	  4	  1	  2	  0	0.39481	  0	0.80000	  0	 11	 40	 41	  1	
16-Apr-2013	sub2314	2314	  2	  1	 31	  3	  1	  3	  5	  4	  1	  1	  1	0.31773	  1	0.80000	  0	 13	 32	 33	  1	
16-Apr-2013	sub2314	2314	  2	  1	 32	  3	  1	  3	  5	  4	  0	  1	  0	0.38569	  1	0.80000	  0	 13	 34	 49	  1	
16-Apr-2013	sub2314	2314	  2	  1	 33	  3	  1	  3	  5	  4	  1	  1	  1	0.67884	  1	0.80000	  0	 13	 32	 33	  0	
16-Apr-2013	sub2314	2314	  2	  1	 34	  3	  1	  6	  2	  3	  1	  1	  0	0.44673	  0	0.80000	  0	 16	 45	 46	  1	
16-Apr-2013	sub2314	2314	  2	  1	 35	  3	  1	  5	  3	  5	  0	  1	  0	0.51333	  1	0.70000	  0	 15	 37	 48	  0	
16-Apr-2013	sub2314	2314	  2	  1	 36	  3	  1	  4	  1	  2	  1	  2	  1	0.54817	  1	0.70000	  0	 14	 32	 33	  0	
16-Apr-2013	sub2314	2314	  2	  1	 37	  3	  1	  4	  1	  2	  1	  2	  1	0.41118	  1	0.70000	  0	 14	 32	 33	  1	
16-Apr-2013	sub2314	2314	  2	  1	 38	  3	  1	  6	  2	  3	  0	  2	  0	0.34423	  1	0.70000	  0	 16	 37	 48	  1	
16-Apr-2013	sub2314	2314	  2	  1	 39	  3	  1	  5	  3	  5	  1	  1	  1	0.48533	  1	0.70000	  0	 15	 35	 36	  1	
16-Apr-2013	sub2314	2314	  2	  1	 40	  3	  1	  6	  2	  3	  1	  1	  0	0.42841	  0	0.70000	  0	 16	 45	 46	  1	
16-Apr-2013	sub2314	2314	  2	  1	 41	  3	  1	  2	  4	  5	  1	  2	  1	0.34326	  1	0.60000	  0	 12	 30	 31	  1	
16-Apr-2013	sub2314	2314	  2	  1	 42	  3	  1	  2	  4	  5	  1	  2	  1	0.31419	  1	0.60000	  0	 12	 30	 31	  1	
16-Apr-2013	sub2314	2314	  2	  1	 43	  3	  1	  6	  2	  3	  1	  2	  1	0.45414	  1	0.60000	  0	 16	 35	 36	  1	
16-Apr-2013	sub2314	2314	  2	  1	 44	  3	  1	  3	  5	  4	  0	  2	  1	0.57960	  0	0.60000	  0	 13	 44	 39	  0	
16-Apr-2013	sub2314	2314	  2	  1	 45	  3	  1	  4	  1	  2	  0	  2	  0	0.42277	  1	0.60000	  0	 14	 34	 49	  1	
16-Apr-2013	sub2314	2314	  2	  1	 46	  3	  1	  4	  1	  2	  1	  2	  1	0.45516	  1	0.60000	  0	 14	 32	 33	  1	
16-Apr-2013	sub2314	2314	  2	  1	 47	  3	  1	  2	  4	  5	  1	  2	  1	0.32856	  1	0.60000	  0	 12	 30	 31	  1	
16-Apr-2013	sub2314	2314	  2	  1	 48	  3	  1	  4	  1	  2	  1	  2	  1	0.47855	  1	0.60000	  0	 14	 32	 33	  1	
16-Apr-2013	sub2314	2314	  2	  1	 49	  3	  1	  3	  5	  4	  1	  2	  0	0.33464	  0	0.60000	  0	 13	 42	 43	  1	
16-Apr-2013	sub2314	2314	  2	  1	 50	  3	  1	  5	  3	  5	  0	  2	  1	0.41813	  0	0.60000	  0	 15	 47	 38	  1	
16-Apr-2013	sub2314	2314	  2	  1	 51	  3	  1	  5	  3	  5	  1	  2	  0	0.43430	  0	0.50000	  0	 15	 45	 46	  1	
16-Apr-2013	sub2314	2314	  2	  1	 52	  3	  1	  1	  6	  4	  1	  1	  1	0.47146	  1	0.50000	  0	 11	 30	 31	  1	
16-Apr-2013	sub2314	2314	  2	  1	 53	  3	  1	  1	  6	  4	  1	  1	  1	0.25287	  1	0.50000	  0	 11	 30	 31	  1	
16-Apr-2013	sub2314	2314	  2	  1	 54	  3	  1	  6	  2	  3	  0	  1	  1	0.49598	  0	0.50000	  0	 16	 47	 38	  1	
16-Apr-2013	sub2314	2314	  2	  1	 55	  3	  1	  4	  1	  2	  1	  1	  0	0.46349	  0	0.50000	  0	 14	 42	 43	  1	
16-Apr-2013	sub2314	2314	  2	  1	 56	  3	  1	  3	  5	  4	  1	  2	  0	0.51893	  0	0.50000	  1	 13	 42	 51	  0	
16-Apr-2013	sub2314	2314	  2	  1	 57	  3	  1	  5	  3	  5	  1	  2	  0	0.43045	  0	0.70000	  0	 15	 45	 46	  1	
16-Apr-2013	sub2314	2314	  2	  1	 58	  3	  1	  3	  5	  4	  1	  2	  0	0.49903	  0	0.70000	  0	 13	 42	 43	  1	
16-Apr-2013	sub2314	2314	  2	  1	 59	  3	  1	  3	  5	  4	  1	  1	  1	0.43932	  1	0.70000	  0	 13	 32	 33	  1	
16-Apr-2013	sub2314	2314	  2	  1	 60	  3	  1	  5	  3	  5	  0	  1	  0	0.55566	  1	0.70000	  0	 15	 37	 48	  0	
16-Apr-2013	sub2314	2314	  2	  1	 61	  3	  1	  5	  3	  5	  1	  2	  0	0.38365	  0	0.60000	  0	 15	 45	 46	  1	
16-Apr-2013	sub2314	2314	  2	  1	 62	  3	  1	  2	  4	  5	  1	  1	  0	0.32621	  0	0.60000	  0	 12	 40	 41	  1	
16-Apr-2013	sub2314	2314	  2	  1	 63	  3	  1	  2	  4	  5	  1	  2	  1	0.34235	  1	0.60000	  0	 12	 30	 31	  1	
16-Apr-2013	sub2314	2314	  2	  1	 64	  3	  1	  5	  3	  5	  1	  2	  0	0.36790	  0	0.60000	  0	 15	 45	 46	  1	
16-Apr-2013	sub2314	2314	  2	  1	 65	  3	  1	  2	  4	  5	  1	  2	  1	0.40501	  1	0.60000	  0	 12	 30	 31	  1	
16-Apr-2013	sub2314	2314	  2	  1	 66	  3	  1	  4	  1	  2	  1	  2	  1	0.46242	  1	0.60000	  0	 14	 32	 33	  1	
16-Apr-2013	sub2314	2314	  2	  1	 67	  3	  1	  1	  6	  4	  1	  2	  0	0.45832	  0	0.60000	  0	 11	 40	 41	  1	
16-Apr-2013	sub2314	2314	  2	  1	 68	  3	  1	  1	  6	  4	  1	  1	  1	0.32817	  1	0.60000	  0	 11	 30	 31	  1	
16-Apr-2013	sub2314	2314	  2	  1	 69	  3	  1	  2	  4	  5	  1	  1	  0	0.39275	  0	0.60000	  0	 12	 40	 41	  1	
16-Apr-2013	sub2314	2314	  2	  1	 70	  3	  1	  1	  6	  4	  1	  2	  0	0.34497	  0	0.60000	  0	 11	 40	 41	  1	
16-Apr-2013	sub2314	2314	  2	  1	 71	  3	  1	  4	  1	  2	  1	  2	  1	0.53372	  1	0.60000	  0	 14	 32	 33	  0	
16-Apr-2013	sub2314	2314	  2	  1	 72	  3	  1	  6	  2	  3	  0	  2	  0	0.39775	  1	0.60000	  0	 16	 37	 48	  1	
16-Apr-2013	sub2314	2314	  2	  1	 73	  3	  1	  6	  2	  3	  1	  1	  0	0.40087	  0	0.60000	  0	 16	 45	 46	  1	
16-Apr-2013	sub2314	2314	  2	  1	 74	  3	  1	  3	  5	  4	  1	  2	  0	0.35551	  0	0.60000	  0	 13	 42	 43	  1	
16-Apr-2013	sub2314	2314	  2	  1	 75	  3	  1	  6	  2	  3	  0	  2	  0	0.49129	  1	0.60000	  0	 16	 37	 48	  1	
16-Apr-2013	sub2314	2314	  2	  1	 76	  3	  2	  4	  1	  2	  1	  2	  1	0.80190	  1	0.50000	  1	 24	 62	 51	  0	
16-Apr-2013	sub2314	2314	  2	  1	 77	  3	  2	  6	  2	  3	  0	  2	  0	0.49171	  1	0.70000	  0	 26	 67	 88	  1	
16-Apr-2013	sub2314	2314	  2	  1	 78	  3	  2	  4	  1	  2	  1	  2	  1	0.60484	  1	0.70000	  0	 24	 62	 63	  0	
16-Apr-2013	sub2314	2314	  2	  1	 79	  3	  2	  4	  1	  2	  1	  2	  1	0.47684	  1	0.70000	  0	 24	 62	 63	  1	
16-Apr-2013	sub2314	2314	  2	  1	 80	  3	  2	  5	  3	  5	  0	  2	  1	0.46363	  0	0.70000	  0	 25	 87	 68	  1	
16-Apr-2013	sub2314	2314	  2	  1	 81	  3	  2	  2	  4	  5	  1	  2	  1	0.43886	  1	0.60000	  0	 22	 60	 61	  1	
16-Apr-2013	sub2314	2314	  2	  1	 82	  3	  2	  6	  2	  3	  0	  2	  0	0.43810	  1	0.60000	  0	 26	 67	 88	  1	
16-Apr-2013	sub2314	2314	  2	  1	 83	  3	  2	  6	  2	  3	  1	  1	  0	0.43399	  0	0.60000	  0	 26	 85	 86	  1	
16-Apr-2013	sub2314	2314	  2	  1	 84	  3	  2	  5	  3	  5	  0	  2	  1	0.41874	  0	0.60000	  0	 25	 87	 68	  1	
16-Apr-2013	sub2314	2314	  2	  1	 85	  3	  2	  1	  6	  4	  1	  2	  0	0.43771	  0	0.60000	  0	 21	 80	 81	  1	
16-Apr-2013	sub2314	2314	  2	  1	 86	  3	  2	  2	  4	  5	  1	  2	  1	0.50568	  1	0.60000	  0	 22	 60	 61	  0	
16-Apr-2013	sub2314	2314	  2	  1	 87	  3	  2	  4	  1	  2	  1	  2	  1	0.49622	  1	0.60000	  0	 24	 62	 63	  1	
16-Apr-2013	sub2314	2314	  2	  1	 88	  3	  2	  4	  1	  2	  0	  2	  0	0.40753	  1	0.60000	  0	 24	 64	 89	  1	
16-Apr-2013	sub2314	2314	  2	  1	 89	  3	  2	  6	  2	  3	  1	  2	  1	0.61779	  1	0.60000	  1	 26	 65	 51	  0	
16-Apr-2013	sub2314	2314	  2	  1	 90	  3	  2	  4	  1	  2	  0	  2	  0	0.48007	  1	0.70000	  0	 24	 64	 89	  1	
16-Apr-2013	sub2314	2314	  2	  1	 91	  3	  2	  3	  5	  4	  1	  2	  0	0.41947	  0	0.70000	  0	 23	 82	 83	  1	
16-Apr-2013	sub2314	2314	  2	  1	 92	  3	  2	  6	  2	  3	  0	  2	  0	0.32990	  1	0.70000	  0	 26	 67	 88	  1	
16-Apr-2013	sub2314	2314	  2	  1	 93	  3	  2	  2	  4	  5	  1	  1	  0	0.37218	  0	0.70000	  0	 22	 80	 81	  1	
16-Apr-2013	sub2314	2314	  2	  1	 94	  3	  2	  6	  2	  3	  1	  2	  1	0.44279	  1	0.70000	  0	 26	 65	 66	  1	
16-Apr-2013	sub2314	2314	  2	  1	 95	  3	  2	  5	  3	  5	  0	  2	  1	0.33909	  0	0.70000	  0	 25	 87	 68	  1	
16-Apr-2013	sub2314	2314	  2	  1	 96	  3	  2	  3	  5	  4	  1	  2	  0	0.37592	  0	0.70000	  0	 23	 82	 83	  1	
16-Apr-2013	sub2314	2314	  2	  1	 97	  3	  2	  1	  6	  4	  1	  1	  1	0.63346	  1	0.70000	  0	 21	 60	 61	  0	
16-Apr-2013	sub2314	2314	  2	  1	 98	  3	  2	  1	  6	  4	  1	  1	  1	0.46219	  1	0.70000	  0	 21	 60	 61	  1	
16-Apr-2013	sub2314	2314	  2	  1	 99	  3	  2	  4	  1	  2	  1	  2	  1	0.55459	  1	0.70000	  0	 24	 62	 63	  0	
16-Apr-2013	sub2314	2314	  2	  1	100	  3	  2	  2	  4	  5	  1	  2	  1	0.40810	  1	0.70000	  0	 22	 60	 61	  1	
16-Apr-2013	sub2314	2314	  2	  1	101	  3	  2	  1	  6	  4	  1	  2	  0	0.39163	  0	0.60000	  0	 21	 80	 81	  1	
16-Apr-2013	sub2314	2314	  2	  1	102	  3	  2	  2	  4	  5	  1	  2	  1	0.50498	  1	0.60000	  0	 22	 60	 61	  0	
16-Apr-2013	sub2314	2314	  2	  1	103	  3	  2	  4	  1	  2	  1	  2	  1	0.32626	  1	0.60000	  0	 24	 62	 63	  1	
16-Apr-2013	sub2314	2314	  2	  1	104	  3	  2	  1	  6	  4	  1	  1	  1	0.61684	  1	0.60000	  1	 21	 60	 51	  0	
16-Apr-2013	sub2314	2314	  2	  1	105	  3	  2	  2	  4	  5	  1	  1	  0	0.41070	  0	0.70000	  0	 22	 80	 81	  1	
16-Apr-2013	sub2314	2314	  2	  1	106	  3	  2	  5	  3	  5	  0	  2	  1	0.54745	  0	0.70000	  0	 25	 87	 68	  0	
16-Apr-2013	sub2314	2314	  2	  1	107	  3	  2	  2	  4	  5	  1	  2	  1	0.35280	  1	0.70000	  0	 22	 60	 61	  1	
16-Apr-2013	sub2314	2314	  2	  1	108	  3	  2	  2	  4	  5	  1	  2	  1	0.38836	  1	0.70000	  0	 22	 60	 61	  1	
16-Apr-2013	sub2314	2314	  2	  1	109	  3	  2	  5	  3	  5	  0	  1	  0	0.66066	  1	0.70000	  0	 25	 67	 88	  0	
16-Apr-2013	sub2314	2314	  2	  1	110	  3	  2	  3	  5	  4	  0	  2	  1	0.41271	  0	0.70000	  0	 23	 84	 69	  1	
16-Apr-2013	sub2314	2314	  2	  1	111	  3	  2	  3	  5	  4	  1	  2	  0	0.37918	  0	0.70000	  0	 23	 82	 83	  1	
16-Apr-2013	sub2314	2314	  2	  1	112	  3	  2	  5	  3	  5	  0	  2	  1	0.43548	  0	0.70000	  0	 25	 87	 68	  1	
16-Apr-2013	sub2314	2314	  2	  1	113	  3	  2	  3	  5	  4	  1	  2	  0	0.45281	  0	0.70000	  0	 23	 82	 83	  1	
16-Apr-2013	sub2314	2314	  2	  1	114	  3	  2	  3	  5	  4	  1	  1	  1	0.56999	  1	0.70000	  0	 23	 62	 63	  0	
16-Apr-2013	sub2314	2314	  2	  1	115	  3	  2	  6	  2	  3	  1	  1	  0	0.47377	  0	0.70000	  0	 26	 85	 86	  1	
16-Apr-2013	sub2314	2314	  2	  1	116	  3	  2	  5	  3	  5	  0	  1	  0	0.41153	  1	0.70000	  0	 25	 67	 88	  1	
16-Apr-2013	sub2314	2314	  2	  1	117	  3	  2	  5	  3	  5	  0	  2	  1	0.39477	  0	0.70000	  0	 25	 87	 68	  1	
16-Apr-2013	sub2314	2314	  2	  1	118	  3	  2	  3	  5	  4	  1	  2	  0	0.39560	  0	0.70000	  0	 23	 82	 83	  1	
16-Apr-2013	sub2314	2314	  2	  1	119	  3	  2	  4	  1	  2	  0	  2	  0	0.40236	  1	0.70000	  0	 24	 64	 89	  1	
16-Apr-2013	sub2314	2314	  2	  1	120	  3	  2	  1	  6	  4	  1	  2	  0	0.41809	  0	0.70000	  0	 21	 80	 81	  1	
16-Apr-2013	sub2314	2314	  2	  1	121	  3	  2	  4	  1	  2	  1	  1	  0	0.48499	  0	0.60000	  0	 24	 82	 83	  1	
16-Apr-2013	sub2314	2314	  2	  1	122	  3	  2	  5	  3	  5	  0	  2	  1	0.34711	  0	0.60000	  0	 25	 87	 68	  1	
16-Apr-2013	sub2314	2314	  2	  1	123	  3	  2	  3	  5	  4	  1	  2	  0	0.42486	  0	0.60000	  0	 23	 82	 83	  1	
16-Apr-2013	sub2314	2314	  2	  1	124	  3	  2	  5	  3	  5	  0	  2	  1	0.47672	  0	0.60000	  0	 25	 87	 68	  1	
16-Apr-2013	sub2314	2314	  2	  1	125	  3	  2	  6	  2	  3	  1	  2	  1	0.50173	  1	0.60000	  0	 26	 65	 66	  0	
16-Apr-2013	sub2314	2314	  2	  1	126	  3	  2	  6	  2	  3	  0	  2	  0	0.45379	  1	0.60000	  0	 26	 67	 88	  1	
16-Apr-2013	sub2314	2314	  2	  1	127	  3	  2	  1	  6	  4	  1	  2	  0	0.37063	  0	0.60000	  0	 21	 80	 81	  1	
16-Apr-2013	sub2314	2314	  2	  1	128	  3	  2	  2	  4	  5	  1	  2	  1	0.55719	  1	0.60000	  0	 22	 60	 61	  0	
16-Apr-2013	sub2314	2314	  2	  1	129	  3	  2	  1	  6	  4	  1	  1	  1	0.56325	  1	0.60000	  0	 21	 60	 61	  0	
16-Apr-2013	sub2314	2314	  2	  1	130	  3	  2	  5	  3	  5	  0	  1	  0	0.60734	  1	0.60000	  1	 25	 67	 51	  0	
16-Apr-2013	sub2314	2314	  2	  1	131	  3	  2	  1	  6	  4	  1	  1	  1	0.53530	  1	0.70000	  0	 21	 60	 61	  0	
16-Apr-2013	sub2314	2314	  2	  1	132	  3	  2	  6	  2	  3	  1	  1	  0	0.48958	  0	0.70000	  0	 26	 85	 86	  1	
16-Apr-2013	sub2314	2314	  2	  1	133	  3	  2	  3	  5	  4	  1	  1	  1	0.40594	  1	0.70000	  0	 23	 62	 63	  1	
16-Apr-2013	sub2314	2314	  2	  1	134	  3	  2	  1	  6	  4	  1	  1	  1	0.35382	  1	0.70000	  0	 21	 60	 61	  1	
16-Apr-2013	sub2314	2314	  2	  1	135	  3	  2	  6	  2	  3	  0	  1	  1	0.30329	  0	0.70000	  0	 26	 87	 68	  1	
16-Apr-2013	sub2314	2314	  2	  1	136	  3	  2	  3	  5	  4	  1	  1	  1	0.38784	  1	0.70000	  0	 23	 62	 63	  1	
16-Apr-2013	sub2314	2314	  2	  1	137	  3	  2	  4	  1	  2	  1	  2	  1	0.41060	  1	0.70000	  0	 24	 62	 63	  1	
16-Apr-2013	sub2314	2314	  2	  1	138	  3	  2	  4	  1	  2	  1	  2	  1	0.33247	  1	0.70000	  0	 24	 62	 63	  1	
16-Apr-2013	sub2314	2314	  2	  1	139	  3	  2	  3	  5	  4	  1	  2	  0	0.35992	  0	0.70000	  0	 23	 82	 83	  1	
16-Apr-2013	sub2314	2314	  2	  1	140	  3	  2	  2	  4	  5	  1	  1	  0	0.41435	  0	0.70000	  0	 22	 80	 81	  1	
16-Apr-2013	sub2314	2314	  2	  1	141	  3	  2	  2	  4	  5	  1	  2	  1	0.33304	  1	0.60000	  0	 22	 60	 61	  1	
16-Apr-2013	sub2314	2314	  2	  1	142	  3	  2	  1	  6	  4	  1	  2	  0	0.42769	  0	0.60000	  0	 21	 80	 81	  1	
16-Apr-2013	sub2314	2314	  2	  1	143	  3	  2	  5	  3	  5	  0	  2	  1	0.39744	  0	0.60000	  0	 25	 87	 68	  1	
16-Apr-2013	sub2314	2314	  2	  1	144	  3	  2	  1	  6	  4	  1	  1	  1	0.39411	  1	0.60000	  0	 21	 60	 61	  1	
16-Apr-2013	sub2314	2314	  2	  1	145	  3	  2	  3	  5	  4	  0	  2	  1	1.05353	  0	0.60000	  1	 23	 84	 51	  0	
16-Apr-2013	sub2314	2314	  2	  1	146	  3	  2	  6	  2	  3	  0	  2	  0	0.37025	  1	0.70000	  0	 26	 67	 88	  1	
16-Apr-2013	sub2314	2314	  2	  1	147	  3	  2	  4	  1	  2	  1	  2	  1	0.34178	  1	0.70000	  0	 24	 62	 63	  1	
16-Apr-2013	sub2314	2314	  2	  1	148	  3	  2	  1	  6	  4	  1	  2	  0	0.38092	  0	0.70000	  0	 21	 80	 81	  1	
16-Apr-2013	sub2314	2314	  2	  1	149	  3	  2	  2	  4	  5	  1	  1	  0	0.35175	  0	0.70000	  0	 22	 80	 81	  1	
16-Apr-2013	sub2314	2314	  2	  1	150	  3	  2	  5	  3	  5	  0	  2	  1	0.22441	  0	0.70000	  0	 25	 87	 68	  1	
16-Apr-2013	sub2314	2314	  2	  1	  1	  4	  1	  6	  3	  4	  1	  1	  0	0.41944	  0	0.60000	  0	 16	 45	 46	  1	
16-Apr-2013	sub2314	2314	  2	  1	  2	  4	  1	  3	  6	  1	  1	  2	  0	0.43033	  0	0.30000	  1	 13	 42	 51	  1	
16-Apr-2013	sub2314	2314	  2	  1	  3	  4	  1	  3	  6	  1	  1	  2	  0	0.18864	  0	0.90000	  0	 13	 42	 43	  1	
16-Apr-2013	sub2314	2314	  2	  1	  4	  4	  1	  5	  1	  4	  1	  1	  1	0.03289	  1	0.90000	  0	 15	 35	 36	  1	
16-Apr-2013	sub2314	2314	  2	  1	  5	  4	  1	  6	  3	  4	  1	  1	  0	0.27978	  0	0.90000	  0	 16	 45	 46	  1	
16-Apr-2013	sub2314	2314	  2	  1	  6	  4	  1	  4	  4	  4	  1	  2	  1	0.29329	  1	0.90000	  0	 14	 32	 33	  1	
16-Apr-2013	sub2314	2314	  2	  1	  7	  4	  1	  6	  3	  4	  1	  1	  0	0.39647	  0	0.90000	  0	 16	 45	 46	  1	
16-Apr-2013	sub2314	2314	  2	  1	  8	  4	  1	  3	  6	  1	  0	  2	  1	0.39450	  0	0.90000	  0	 13	 44	 39	  1	
16-Apr-2013	sub2314	2314	  2	  1	  9	  4	  1	  3	  6	  1	  1	  2	  0	0.30671	  0	0.90000	  0	 13	 42	 43	  1	
16-Apr-2013	sub2314	2314	  2	  1	 10	  4	  1	  1	  5	  1	  1	  2	  0	0.29472	  0	0.90000	  0	 11	 40	 41	  1	
16-Apr-2013	sub2314	2314	  2	  1	 11	  4	  1	  4	  4	  4	  1	  1	  0	0.42403	  0	0.90000	  0	 14	 42	 43	  1	
16-Apr-2013	sub2314	2314	  2	  1	 12	  4	  1	  1	  5	  1	  1	  2	  0	0.35588	  0	0.90000	  0	 11	 40	 41	  1	
16-Apr-2013	sub2314	2314	  2	  1	 13	  4	  1	  4	  4	  4	  1	  1	  0	0.51964	  0	0.90000	  0	 14	 42	 43	  0	
16-Apr-2013	sub2314	2314	  2	  1	 14	  4	  1	  6	  3	  4	  0	  1	  1	0.59325	  0	0.90000	  0	 16	 47	 38	  0	
16-Apr-2013	sub2314	2314	  2	  1	 15	  4	  1	  6	  3	  4	  1	  1	  0	0.36057	  0	0.90000	  0	 16	 45	 46	  1	
16-Apr-2013	sub2314	2314	  2	  1	 16	  4	  1	  2	  2	  1	  1	  2	  1	0.38418	  1	0.80000	  0	 12	 30	 31	  1	
16-Apr-2013	sub2314	2314	  2	  1	 17	  4	  1	  1	  5	  1	  1	  2	  0	0.49802	  0	0.80000	  0	 11	 40	 41	  1	
16-Apr-2013	sub2314	2314	  2	  1	 18	  4	  1	  3	  6	  1	  1	  1	  1	0.45366	  1	0.70000	  0	 13	 32	 33	  1	
16-Apr-2013	sub2314	2314	  2	  1	 19	  4	  1	  4	  4	  4	  1	  2	  1	0.46852	  1	0.70000	  0	 14	 32	 33	  1	
16-Apr-2013	sub2314	2314	  2	  1	 20	  4	  1	  5	  1	  4	  0	  2	  1	0.49229	  0	0.70000	  0	 15	 47	 38	  1	
16-Apr-2013	sub2314	2314	  2	  1	 21	  4	  1	  6	  3	  4	  0	  2	  0	0.42871	  1	0.60000	  0	 16	 37	 48	  1	
16-Apr-2013	sub2314	2314	  2	  1	 22	  4	  1	  2	  2	  1	  1	  2	  1	0.44371	  1	0.60000	  0	 12	 30	 31	  1	
16-Apr-2013	sub2314	2314	  2	  1	 23	  4	  1	  2	  2	  1	  1	  2	  1	0.49566	  1	0.60000	  0	 12	 30	 31	  1	
16-Apr-2013	sub2314	2314	  2	  1	 24	  4	  1	  1	  5	  1	  1	  2	  0	0.65661	  0	0.60000	  1	 11	 40	 51	  0	
16-Apr-2013	sub2314	2314	  2	  1	 25	  4	  1	  5	  1	  4	  0	  2	  1	0.48997	  0	0.90000	  0	 15	 47	 38	  1	
16-Apr-2013	sub2314	2314	  2	  1	 26	  4	  1	  1	  5	  1	  1	  2	  0	0.42469	  0	0.90000	  0	 11	 40	 41	  1	
16-Apr-2013	sub2314	2314	  2	  1	 27	  4	  1	  5	  1	  4	  1	  2	  0	0.46936	  0	0.90000	  0	 15	 45	 46	  1	
16-Apr-2013	sub2314	2314	  2	  1	 28	  4	  1	  5	  1	  4	  0	  2	  1	0.52170	  0	0.90000	  0	 15	 47	 38	  0	
16-Apr-2013	sub2314	2314	  2	  1	 29	  4	  1	  5	  1	  4	  0	  2	  1	0.46690	  0	0.90000	  0	 15	 47	 38	  1	
16-Apr-2013	sub2314	2314	  2	  1	 30	  4	  1	  6	  3	  4	  0	  2	  0	0.43651	  1	0.80000	  0	 16	 37	 48	  1	
16-Apr-2013	sub2314	2314	  2	  1	 31	  4	  1	  1	  5	  1	  1	  2	  0	0.58712	  0	0.80000	  0	 11	 40	 41	  0	
16-Apr-2013	sub2314	2314	  2	  1	 32	  4	  1	  1	  5	  1	  1	  1	  1	0.44241	  1	0.80000	  0	 11	 30	 31	  1	
16-Apr-2013	sub2314	2314	  2	  1	 33	  4	  1	  2	  2	  1	  1	  1	  0	0.48888	  0	0.80000	  0	 12	 40	 41	  1	
16-Apr-2013	sub2314	2314	  2	  1	 34	  4	  1	  6	  3	  4	  1	  2	  1	0.32424	  1	0.80000	  0	 16	 35	 36	  1	
16-Apr-2013	sub2314	2314	  2	  1	 35	  4	  1	  2	  2	  1	  1	  2	  1	0.45367	  1	0.70000	  0	 12	 30	 31	  1	
16-Apr-2013	sub2314	2314	  2	  1	 36	  4	  1	  3	  6	  1	  1	  2	  0	0.41561	  0	0.70000	  0	 13	 42	 43	  1	
16-Apr-2013	sub2314	2314	  2	  1	 37	  4	  1	  5	  1	  4	  1	  2	  0	0.54700	  0	0.70000	  0	 15	 45	 46	  0	
16-Apr-2013	sub2314	2314	  2	  1	 38	  4	  1	  2	  2	  1	  1	  2	  1	0.45607	  1	0.70000	  0	 12	 30	 31	  1	
16-Apr-2013	sub2314	2314	  2	  1	 39	  4	  1	  1	  5	  1	  1	  2	  0	0.52625	  0	0.70000	  0	 11	 40	 41	  0	
16-Apr-2013	sub2314	2314	  2	  1	 40	  4	  1	  4	  4	  4	  1	  2	  1	0.53783	  1	0.70000	  0	 14	 32	 33	  0	
16-Apr-2013	sub2314	2314	  2	  1	 41	  4	  1	  2	  2	  1	  1	  2	  1	0.69240	  1	0.60000	  1	 12	 30	 51	  0	
16-Apr-2013	sub2314	2314	  2	  1	 42	  4	  1	  4	  4	  4	  0	  2	  0	2.98833	  1	0.90000	  1	 14	 34	 51	  0	
16-Apr-2013	sub2314	2314	  2	  1	 43	  4	  1	  4	  4	  4	  1	  2	  1	0.26258	  1	0.90000	  0	 14	 32	 33	  1	
16-Apr-2013	sub2314	2314	  2	  1	 44	  4	  1	  4	  4	  4	  1	  2	  1	0.33580	  1	0.90000	  0	 14	 32	 33	  1	
16-Apr-2013	sub2314	2314	  2	  1	 45	  4	  1	  5	  1	  4	  0	  2	  1	0.37633	  0	0.90000	  0	 15	 47	 38	  1	
16-Apr-2013	sub2314	2314	  2	  1	 46	  4	  1	  3	  6	  1	  0	  2	  1	0.49121	  0	0.90000	  0	 13	 44	 39	  1	
16-Apr-2013	sub2314	2314	  2	  1	 47	  4	  1	  2	  2	  1	  1	  2	  1	0.40117	  1	0.90000	  0	 12	 30	 31	  1	
16-Apr-2013	sub2314	2314	  2	  1	 48	  4	  1	  4	  4	  4	  1	  2	  1	0.37260	  1	0.90000	  0	 14	 32	 33	  1	
16-Apr-2013	sub2314	2314	  2	  1	 49	  4	  1	  2	  2	  1	  1	  2	  1	0.44759	  1	0.90000	  0	 12	 30	 31	  1	
16-Apr-2013	sub2314	2314	  2	  1	 50	  4	  1	  1	  5	  1	  1	  2	  0	0.37450	  0	0.90000	  0	 11	 40	 41	  1	
16-Apr-2013	sub2314	2314	  2	  1	 51	  4	  1	  3	  6	  1	  1	  2	  0	0.57021	  0	0.90000	  0	 13	 42	 43	  0	
16-Apr-2013	sub2314	2314	  2	  1	 52	  4	  1	  4	  4	  4	  1	  1	  0	0.46162	  0	0.90000	  0	 14	 42	 43	  1	
16-Apr-2013	sub2314	2314	  2	  1	 53	  4	  1	  1	  5	  1	  1	  2	  0	0.44128	  0	0.90000	  0	 11	 40	 41	  1	
16-Apr-2013	sub2314	2314	  2	  1	 54	  4	  1	  1	  5	  1	  1	  1	  1	0.41472	  1	0.90000	  0	 11	 30	 31	  1	
16-Apr-2013	sub2314	2314	  2	  1	 55	  4	  1	  6	  3	  4	  0	  1	  1	0.49009	  0	0.90000	  0	 16	 47	 38	  1	
16-Apr-2013	sub2314	2314	  2	  1	 56	  4	  1	  4	  4	  4	  0	  1	  1	0.47436	  0	0.90000	  0	 14	 44	 39	  1	
16-Apr-2013	sub2314	2314	  2	  1	 57	  4	  1	  5	  1	  4	  0	  1	  0	0.47072	  1	0.90000	  0	 15	 37	 48	  1	
16-Apr-2013	sub2314	2314	  2	  1	 58	  4	  1	  2	  2	  1	  1	  2	  1	0.50860	  1	0.90000	  0	 12	 30	 31	  0	
16-Apr-2013	sub2314	2314	  2	  1	 59	  4	  1	  4	  4	  4	  1	  2	  1	0.37496	  1	0.80000	  0	 14	 32	 33	  1	
16-Apr-2013	sub2314	2314	  2	  1	 60	  4	  1	  6	  3	  4	  0	  2	  0	0.41611	  1	0.80000	  0	 16	 37	 48	  1	
16-Apr-2013	sub2314	2314	  2	  1	 61	  4	  1	  2	  2	  1	  1	  2	  1	0.45317	  1	0.80000	  0	 12	 30	 31	  1	
16-Apr-2013	sub2314	2314	  2	  1	 62	  4	  1	  6	  3	  4	  1	  1	  0	0.52112	  0	0.80000	  0	 16	 45	 46	  0	
16-Apr-2013	sub2314	2314	  2	  1	 63	  4	  1	  6	  3	  4	  0	  2	  0	0.31891	  1	0.80000	  0	 16	 37	 48	  1	
16-Apr-2013	sub2314	2314	  2	  1	 64	  4	  1	  3	  6	  1	  1	  2	  0	0.29864	  0	0.80000	  0	 13	 42	 43	  1	
16-Apr-2013	sub2314	2314	  2	  1	 65	  4	  1	  5	  1	  4	  1	  2	  0	0.38969	  0	0.80000	  0	 15	 45	 46	  1	
16-Apr-2013	sub2314	2314	  2	  1	 66	  4	  1	  1	  5	  1	  1	  1	  1	0.47545	  1	0.80000	  0	 11	 30	 31	  1	
16-Apr-2013	sub2314	2314	  2	  1	 67	  4	  1	  2	  2	  1	  1	  1	  0	0.46662	  0	0.80000	  0	 12	 40	 41	  1	
16-Apr-2013	sub2314	2314	  2	  1	 68	  4	  1	  3	  6	  1	  0	  2	  1	0.28514	  0	0.70000	  0	 13	 44	 39	  1	
16-Apr-2013	sub2314	2314	  2	  1	 69	  4	  1	  3	  6	  1	  1	  2	  0	0.34076	  0	0.70000	  0	 13	 42	 43	  1	
16-Apr-2013	sub2314	2314	  2	  1	 70	  4	  1	  2	  2	  1	  1	  2	  1	0.50830	  1	0.70000	  0	 12	 30	 31	  0	
16-Apr-2013	sub2314	2314	  2	  1	 71	  4	  1	  5	  1	  4	  1	  1	  1	0.41970	  1	0.70000	  0	 15	 35	 36	  1	
16-Apr-2013	sub2314	2314	  2	  1	 72	  4	  1	  3	  6	  1	  1	  1	  1	0.39760	  1	0.70000	  0	 13	 32	 33	  1	
16-Apr-2013	sub2314	2314	  2	  1	 73	  4	  1	  3	  6	  1	  1	  1	  1	0.34784	  1	0.70000	  0	 13	 32	 33	  1	
16-Apr-2013	sub2314	2314	  2	  1	 74	  4	  1	  5	  1	  4	  1	  2	  0	0.47815	  0	0.70000	  0	 15	 45	 46	  1	
16-Apr-2013	sub2314	2314	  2	  1	 75	  4	  1	  6	  3	  4	  1	  1	  0	0.50812	  0	0.70000	  0	 16	 45	 46	  0	
16-Apr-2013	sub2314	2314	  2	  1	 76	  4	  2	  2	  2	  1	  1	  2	  1	0.57486	  1	0.70000	  0	 22	 60	 61	  0	
16-Apr-2013	sub2314	2314	  2	  1	 77	  4	  2	  1	  5	  1	  1	  2	  0	0.40905	  0	0.70000	  0	 21	 80	 81	  1	
16-Apr-2013	sub2314	2314	  2	  1	 78	  4	  2	  4	  4	  4	  1	  2	  1	0.43770	  1	0.70000	  0	 24	 62	 63	  1	
16-Apr-2013	sub2314	2314	  2	  1	 79	  4	  2	  6	  3	  4	  0	  1	  1	0.39422	  0	0.70000	  0	 26	 87	 68	  1	
16-Apr-2013	sub2314	2314	  2	  1	 80	  4	  2	  5	  1	  4	  0	  2	  1	0.50109	  0	0.70000	  0	 25	 87	 68	  0	
16-Apr-2013	sub2314	2314	  2	  1	 81	  4	  2	  3	  6	  1	  1	  2	  0	0.45774	  0	0.60000	  0	 23	 82	 83	  1	
16-Apr-2013	sub2314	2314	  2	  1	 82	  4	  2	  6	  3	  4	  0	  1	  1	0.43881	  0	0.60000	  0	 26	 87	 68	  1	
16-Apr-2013	sub2314	2314	  2	  1	 83	  4	  2	  5	  1	  4	  0	  2	  1	0.61023	  0	0.60000	  1	 25	 87	 51	  0	
16-Apr-2013	sub2314	2314	  2	  1	 84	  4	  2	  6	  3	  4	  0	  2	  0	0.44566	  1	0.80000	  0	 26	 67	 88	  1	
16-Apr-2013	sub2314	2314	  2	  1	 85	  4	  2	  6	  3	  4	  1	  1	  0	0.34568	  0	0.70000	  0	 26	 85	 86	  1	
16-Apr-2013	sub2314	2314	  2	  1	 86	  4	  2	  1	  5	  1	  1	  1	  1	0.38979	  1	0.70000	  0	 21	 60	 61	  1	
16-Apr-2013	sub2314	2314	  2	  1	 87	  4	  2	  3	  6	  1	  1	  1	  1	0.37614	  1	0.70000	  0	 23	 62	 63	  1	
16-Apr-2013	sub2314	2314	  2	  1	 88	  4	  2	  1	  5	  1	  1	  2	  0	0.34825	  0	0.70000	  0	 21	 80	 81	  1	
16-Apr-2013	sub2314	2314	  2	  1	 89	  4	  2	  4	  4	  4	  1	  1	  0	0.35855	  0	0.70000	  0	 24	 82	 83	  1	
16-Apr-2013	sub2314	2314	  2	  1	 90	  4	  2	  1	  5	  1	  1	  2	  0	0.37289	  0	0.70000	  0	 21	 80	 81	  1	
16-Apr-2013	sub2314	2314	  2	  1	 91	  4	  2	  6	  3	  4	  0	  1	  1	0.55046	  0	0.70000	  0	 26	 87	 68	  0	
16-Apr-2013	sub2314	2314	  2	  1	 92	  4	  2	  5	  1	  4	  0	  1	  0	0.33781	  1	0.70000	  0	 25	 67	 88	  1	
16-Apr-2013	sub2314	2314	  2	  1	 93	  4	  2	  2	  2	  1	  1	  2	  1	0.45561	  1	0.70000	  0	 22	 60	 61	  1	
16-Apr-2013	sub2314	2314	  2	  1	 94	  4	  2	  5	  1	  4	  0	  2	  1	0.33953	  0	0.70000	  0	 25	 87	 68	  1	
16-Apr-2013	sub2314	2314	  2	  1	 95	  4	  2	  3	  6	  1	  1	  2	  0	0.40317	  0	0.70000	  0	 23	 82	 83	  1	
16-Apr-2013	sub2314	2314	  2	  1	 96	  4	  2	  6	  3	  4	  1	  1	  0	0.31776	  0	0.70000	  0	 26	 85	 86	  1	
16-Apr-2013	sub2314	2314	  2	  1	 97	  4	  2	  2	  2	  1	  1	  2	  1	0.35903	  1	0.70000	  0	 22	 60	 61	  1	
16-Apr-2013	sub2314	2314	  2	  1	 98	  4	  2	  5	  1	  4	  0	  2	  1	0.36540	  0	0.70000	  0	 25	 87	 68	  1	
16-Apr-2013	sub2314	2314	  2	  1	 99	  4	  2	  3	  6	  1	  1	  2	  0	0.44828	  0	0.70000	  0	 23	 82	 83	  1	
16-Apr-2013	sub2314	2314	  2	  1	100	  4	  2	  4	  4	  4	  1	  1	  0	0.41296	  0	0.70000	  0	 24	 82	 83	  1	
16-Apr-2013	sub2314	2314	  2	  1	101	  4	  2	  4	  4	  4	  1	  2	  1	0.36928	  1	0.60000	  0	 24	 62	 63	  1	
16-Apr-2013	sub2314	2314	  2	  1	102	  4	  2	  1	  5	  1	  1	  2	  0	0.52637	  0	0.60000	  0	 21	 80	 81	  0	
16-Apr-2013	sub2314	2314	  2	  1	103	  4	  2	  3	  6	  1	  1	  1	  1	0.40998	  1	0.60000	  0	 23	 62	 63	  1	
16-Apr-2013	sub2314	2314	  2	  1	104	  4	  2	  5	  1	  4	  0	  1	  0	0.55164	  1	0.60000	  0	 25	 67	 88	  0	
16-Apr-2013	sub2314	2314	  2	  1	105	  4	  2	  1	  5	  1	  1	  1	  1	0.32098	  1	0.60000	  0	 21	 60	 61	  1	
16-Apr-2013	sub2314	2314	  2	  1	106	  4	  2	  5	  1	  4	  0	  1	  0	0.34941	  1	0.60000	  0	 25	 67	 88	  1	
16-Apr-2013	sub2314	2314	  2	  1	107	  4	  2	  3	  6	  1	  1	  2	  0	0.42467	  0	0.60000	  0	 23	 82	 83	  1	
16-Apr-2013	sub2314	2314	  2	  1	108	  4	  2	  3	  6	  1	  1	  1	  1	0.38243	  1	0.60000	  0	 23	 62	 63	  1	
16-Apr-2013	sub2314	2314	  2	  1	109	  4	  2	  1	  5	  1	  1	  1	  1	0.47531	  1	0.60000	  0	 21	 60	 61	  1	
16-Apr-2013	sub2314	2314	  2	  1	110	  4	  2	  6	  3	  4	  1	  1	  0	0.52556	  0	0.60000	  0	 26	 85	 86	  0	
16-Apr-2013	sub2314	2314	  2	  1	111	  4	  2	  6	  3	  4	  0	  1	  1	0.34752	  0	0.60000	  0	 26	 87	 68	  1	
16-Apr-2013	sub2314	2314	  2	  1	112	  4	  2	  1	  5	  1	  1	  2	  0	0.34155	  0	0.60000	  0	 21	 80	 81	  1	
16-Apr-2013	sub2314	2314	  2	  1	113	  4	  2	  2	  2	  1	  1	  2	  1	0.41284	  1	0.60000	  0	 22	 60	 61	  1	
16-Apr-2013	sub2314	2314	  2	  1	114	  4	  2	  4	  4	  4	  1	  2	  1	0.32892	  1	0.60000	  0	 24	 62	 63	  1	
16-Apr-2013	sub2314	2314	  2	  1	115	  4	  2	  3	  6	  1	  1	  2	  0	0.42147	  0	0.60000	  0	 23	 82	 83	  1	
16-Apr-2013	sub2314	2314	  2	  1	116	  4	  2	  2	  2	  1	  1	  2	  1	0.56583	  1	0.60000	  0	 22	 60	 61	  0	
16-Apr-2013	sub2314	2314	  2	  1	117	  4	  2	  2	  2	  1	  1	  2	  1	0.40239	  1	0.60000	  0	 22	 60	 61	  1	
16-Apr-2013	sub2314	2314	  2	  1	118	  4	  2	  2	  2	  1	  1	  2	  1	0.47041	  1	0.60000	  0	 22	 60	 61	  1	
16-Apr-2013	sub2314	2314	  2	  1	119	  4	  2	  1	  5	  1	  1	  2	  0	0.56214	  0	0.60000	  0	 21	 80	 81	  0	
16-Apr-2013	sub2314	2314	  2	  1	120	  4	  2	  6	  3	  4	  0	  1	  1	1.51640	  0	0.60000	  1	 26	 87	 51	  0	
16-Apr-2013	sub2314	2314	  2	  1	121	  4	  2	  4	  4	  4	  0	  1	  1	0.35090	  0	0.60000	  0	 24	 84	 69	  1	
16-Apr-2013	sub2314	2314	  2	  1	122	  4	  2	  5	  1	  4	  0	  1	  0	0.31230	  1	0.60000	  0	 25	 67	 88	  1	
16-Apr-2013	sub2314	2314	  2	  1	123	  4	  2	  4	  4	  4	  0	  2	  0	0.51516	  1	0.60000	  0	 24	 64	 89	  0	
16-Apr-2013	sub2314	2314	  2	  1	124	  4	  2	  1	  5	  1	  1	  1	  1	0.36662	  1	0.60000	  0	 21	 60	 61	  1	
16-Apr-2013	sub2314	2314	  2	  1	125	  4	  2	  6	  3	  4	  1	  1	  0	0.38082	  0	0.60000	  0	 26	 85	 86	  1	
16-Apr-2013	sub2314	2314	  2	  1	126	  4	  2	  5	  1	  4	  0	  2	  1	0.36724	  0	0.60000	  0	 25	 87	 68	  1	
16-Apr-2013	sub2314	2314	  2	  1	127	  4	  2	  3	  6	  1	  1	  2	  0	0.31811	  0	0.60000	  0	 23	 82	 83	  1	
16-Apr-2013	sub2314	2314	  2	  1	128	  4	  2	  6	  3	  4	  1	  2	  1	0.38415	  1	0.60000	  0	 26	 65	 66	  1	
16-Apr-2013	sub2314	2314	  2	  1	129	  4	  2	  4	  4	  4	  0	  2	  0	0.42763	  1	0.60000	  0	 24	 64	 89	  1	
16-Apr-2013	sub2314	2314	  2	  1	130	  4	  2	  1	  5	  1	  1	  2	  0	0.37028	  0	0.60000	  0	 21	 80	 81	  1	
16-Apr-2013	sub2314	2314	  2	  1	131	  4	  2	  5	  1	  4	  0	  2	  1	0.46381	  0	0.60000	  0	 25	 87	 68	  1	
16-Apr-2013	sub2314	2314	  2	  1	132	  4	  2	  5	  1	  4	  0	  2	  1	0.46154	  0	0.60000	  0	 25	 87	 68	  1	
16-Apr-2013	sub2314	2314	  2	  1	133	  4	  2	  3	  6	  1	  1	  1	  1	0.40082	  1	0.60000	  0	 23	 62	 63	  1	
16-Apr-2013	sub2314	2314	  2	  1	134	  4	  2	  4	  4	  4	  1	  1	  0	0.50628	  0	0.60000	  0	 24	 82	 83	  0	
16-Apr-2013	sub2314	2314	  2	  1	135	  4	  2	  6	  3	  4	  1	  1	  0	0.45390	  0	0.60000	  0	 26	 85	 86	  1	
16-Apr-2013	sub2314	2314	  2	  1	136	  4	  2	  2	  2	  1	  1	  2	  1	0.39472	  1	0.60000	  0	 22	 60	 61	  1	
16-Apr-2013	sub2314	2314	  2	  1	137	  4	  2	  3	  6	  1	  0	  1	  0	0.52206	  1	0.60000	  0	 23	 64	 89	  0	
16-Apr-2013	sub2314	2314	  2	  1	138	  4	  2	  2	  2	  1	  1	  2	  1	0.32522	  1	0.60000	  0	 22	 60	 61	  1	
16-Apr-2013	sub2314	2314	  2	  1	139	  4	  2	  4	  4	  4	  1	  2	  1	0.33823	  1	0.60000	  0	 24	 62	 63	  1	
16-Apr-2013	sub2314	2314	  2	  1	140	  4	  2	  1	  5	  1	  1	  2	  0	0.25888	  0	0.60000	  0	 21	 80	 81	  1	
16-Apr-2013	sub2314	2314	  2	  1	141	  4	  2	  5	  1	  4	  0	  2	  1	0.38979	  0	0.60000	  0	 25	 87	 68	  1	
16-Apr-2013	sub2314	2314	  2	  1	142	  4	  2	  2	  2	  1	  1	  2	  1	0.43039	  1	0.60000	  0	 22	 60	 61	  1	
16-Apr-2013	sub2314	2314	  2	  1	143	  4	  2	  4	  4	  4	  1	  2	  1	0.40277	  1	0.60000	  0	 24	 62	 63	  1	
16-Apr-2013	sub2314	2314	  2	  1	144	  4	  2	  4	  4	  4	  1	  1	  0	0.35406	  0	0.60000	  0	 24	 82	 83	  1	
16-Apr-2013	sub2314	2314	  2	  1	145	  4	  2	  1	  5	  1	  1	  2	  0	0.47413	  0	0.60000	  0	 21	 80	 81	  1	
16-Apr-2013	sub2314	2314	  2	  1	146	  4	  2	  2	  2	  1	  1	  1	  0	0.40679	  0	0.60000	  0	 22	 80	 81	  1	
16-Apr-2013	sub2314	2314	  2	  1	147	  4	  2	  4	  4	  4	  1	  2	  1	0.30285	  1	0.60000	  0	 24	 62	 63	  1	
16-Apr-2013	sub2314	2314	  2	  1	148	  4	  2	  3	  6	  1	  0	  2	  1	0.39567	  0	0.60000	  0	 23	 84	 69	  1	
16-Apr-2013	sub2314	2314	  2	  1	149	  4	  2	  2	  2	  1	  1	  2	  1	0.43648	  1	0.60000	  0	 22	 60	 61	  1	
16-Apr-2013	sub2314	2314	  2	  1	150	  4	  2	  5	  1	  4	  0	  2	  1	0.26072	  0	0.60000	  0	 25	 87	 68	  1	
16-Apr-2013	sub2314	2314	  2	  1	  1	  5	  1	  3	  4	  3	  0	  1	  0	0.37578	  1	0.60000	  0	 13	 34	 49	  1	
16-Apr-2013	sub2314	2314	  2	  1	  2	  5	  1	  4	  5	  5	  0	  2	  0	0.37344	  1	0.30000	  1	 14	 34	 51	  1	
16-Apr-2013	sub2314	2314	  2	  1	  3	  5	  1	  2	  1	  1	  1	  2	  1	0.42875	  1	0.90000	  0	 12	 30	 31	  1	
16-Apr-2013	sub2314	2314	  2	  1	  4	  5	  1	  5	  2	  2	  0	  1	  0	0.50027	  1	0.90000	  0	 15	 37	 48	  0	
16-Apr-2013	sub2314	2314	  2	  1	  5	  5	  1	  1	  3	  3	  1	  2	  0	0.32731	  0	0.90000	  0	 11	 40	 41	  1	
16-Apr-2013	sub2314	2314	  2	  1	  6	  5	  1	  3	  4	  3	  1	  2	  0	0.36540	  0	0.90000	  0	 13	 42	 43	  1	
16-Apr-2013	sub2314	2314	  2	  1	  7	  5	  1	  4	  5	  5	  0	  1	  1	0.33820	  0	0.90000	  0	 14	 44	 39	  1	
16-Apr-2013	sub2314	2314	  2	  1	  8	  5	  1	  3	  4	  3	  1	  1	  1	0.32903	  1	0.90000	  0	 13	 32	 33	  1	
16-Apr-2013	sub2314	2314	  2	  1	  9	  5	  1	  4	  5	  5	  1	  1	  0	0.34528	  0	0.90000	  0	 14	 42	 43	  1	
16-Apr-2013	sub2314	2314	  2	  1	 10	  5	  1	  2	  1	  1	  1	  2	  1	0.34947	  1	0.90000	  0	 12	 30	 31	  1	
16-Apr-2013	sub2314	2314	  2	  1	 11	  5	  1	  4	  5	  5	  1	  2	  1	0.33543	  1	0.90000	  0	 14	 32	 33	  1	
16-Apr-2013	sub2314	2314	  2	  1	 12	  5	  1	  2	  1	  1	  1	  2	  1	0.44326	  1	0.90000	  0	 12	 30	 31	  1	
16-Apr-2013	sub2314	2314	  2	  1	 13	  5	  1	  5	  2	  2	  1	  2	  0	0.43925	  0	0.90000	  0	 15	 45	 46	  1	
16-Apr-2013	sub2314	2314	  2	  1	 14	  5	  1	  3	  4	  3	  1	  1	  1	0.49738	  1	0.90000	  0	 13	 32	 33	  1	
16-Apr-2013	sub2314	2314	  2	  1	 15	  5	  1	  2	  1	  1	  1	  1	  0	0.43262	  0	0.90000	  0	 12	 40	 41	  1	
16-Apr-2013	sub2314	2314	  2	  1	 16	  5	  1	  4	  5	  5	  1	  2	  1	0.46123	  1	0.80000	  0	 14	 32	 33	  1	
16-Apr-2013	sub2314	2314	  2	  1	 17	  5	  1	  2	  1	  1	  1	  2	  1	0.40503	  1	0.80000	  0	 12	 30	 31	  1	
16-Apr-2013	sub2314	2314	  2	  1	 18	  5	  1	  3	  4	  3	  1	  2	  0	0.48546	  0	0.70000	  0	 13	 42	 43	  1	
16-Apr-2013	sub2314	2314	  2	  1	 19	  5	  1	  3	  4	  3	  1	  2	  0	0.52135	  0	0.70000	  0	 13	 42	 43	  0	
16-Apr-2013	sub2314	2314	  2	  1	 20	  5	  1	  1	  3	  3	  1	  2	  0	0.50995	  0	0.70000	  0	 11	 40	 41	  0	
16-Apr-2013	sub2314	2314	  2	  1	 21	  5	  1	  6	  6	  5	  0	  2	  0	0.55611	  1	0.60000	  0	 16	 37	 48	  0	
16-Apr-2013	sub2314	2314	  2	  1	 22	  5	  1	  5	  2	  2	  0	  1	  0	0.49033	  1	0.60000	  0	 15	 37	 48	  1	
16-Apr-2013	sub2314	2314	  2	  1	 23	  5	  1	  4	  5	  5	  1	  2	  1	0.42520	  1	0.60000	  0	 14	 32	 33	  1	
16-Apr-2013	sub2314	2314	  2	  1	 24	  5	  1	  5	  2	  2	  0	  1	  0	0.34752	  1	0.60000	  0	 15	 37	 48	  1	
16-Apr-2013	sub2314	2314	  2	  1	 25	  5	  1	  1	  3	  3	  1	  2	  0	0.14726	  0	0.60000	  0	 11	 40	 41	  1	
16-Apr-2013	sub2314	2314	  2	  1	 26	  5	  1	  6	  6	  5	  0	  1	  1	0.31339	  0	0.50000	  0	 16	 47	 38	  1	
16-Apr-2013	sub2314	2314	  2	  1	 27	  5	  1	  6	  6	  5	  0	  1	  1	0.36672	  0	0.50000	  0	 16	 47	 38	  1	
16-Apr-2013	sub2314	2314	  2	  1	 28	  5	  1	  1	  3	  3	  1	  1	  1	0.37752	  1	0.50000	  0	 11	 30	 31	  1	
16-Apr-2013	sub2314	2314	  2	  1	 29	  5	  1	  3	  4	  3	  0	  1	  0	0.43147	  1	0.50000	  0	 13	 34	 49	  1	
16-Apr-2013	sub2314	2314	  2	  1	 30	  5	  1	  6	  6	  5	  0	  2	  0	0.30136	  1	0.50000	  0	 16	 37	 48	  1	
16-Apr-2013	sub2314	2314	  2	  1	 31	  5	  1	  2	  1	  1	  1	  2	  1	0.54926	  1	0.50000	  1	 12	 30	 51	  0	
16-Apr-2013	sub2314	2314	  2	  1	 32	  5	  1	  2	  1	  1	  1	  2	  1	0.44959	  1	0.80000	  0	 12	 30	 31	  1	
16-Apr-2013	sub2314	2314	  2	  1	 33	  5	  1	  5	  2	  2	  0	  2	  1	0.40785	  0	0.80000	  0	 15	 47	 38	  1	
16-Apr-2013	sub2314	2314	  2	  1	 34	  5	  1	  4	  5	  5	  1	  2	  1	0.49915	  1	0.80000	  0	 14	 32	 33	  1	
16-Apr-2013	sub2314	2314	  2	  1	 35	  5	  1	  1	  3	  3	  1	  2	  0	0.43071	  0	0.70000	  0	 11	 40	 41	  1	
16-Apr-2013	sub2314	2314	  2	  1	 36	  5	  1	  3	  4	  3	  1	  1	  1	0.47291	  1	0.70000	  0	 13	 32	 33	  1	
16-Apr-2013	sub2314	2314	  2	  1	 37	  5	  1	  3	  4	  3	  1	  1	  1	0.43074	  1	0.70000	  0	 13	 32	 33	  1	
16-Apr-2013	sub2314	2314	  2	  1	 38	  5	  1	  5	  2	  2	  0	  1	  0	0.41745	  1	0.70000	  0	 15	 37	 48	  1	
16-Apr-2013	sub2314	2314	  2	  1	 39	  5	  1	  2	  1	  1	  1	  1	  0	0.42869	  0	0.70000	  0	 12	 40	 41	  1	
16-Apr-2013	sub2314	2314	  2	  1	 40	  5	  1	  4	  5	  5	  1	  2	  1	0.18760	  1	0.70000	  0	 14	 32	 33	  1	
16-Apr-2013	sub2314	2314	  2	  1	 41	  5	  1	  2	  1	  1	  1	  2	  1	0.36908	  1	0.60000	  0	 12	 30	 31	  1	
16-Apr-2013	sub2314	2314	  2	  1	 42	  5	  1	  3	  4	  3	  1	  2	  0	0.67712	  0	0.60000	  1	 13	 42	 51	  0	
16-Apr-2013	sub2314	2314	  2	  1	 43	  5	  1	  5	  2	  2	  1	  2	  0	0.51286	  0	0.90000	  0	 15	 45	 46	  0	
16-Apr-2013	sub2314	2314	  2	  1	 44	  5	  1	  3	  4	  3	  0	  2	  1	0.35809	  0	0.80000	  0	 13	 44	 39	  1	
16-Apr-2013	sub2314	2314	  2	  1	 45	  5	  1	  6	  6	  5	  0	  2	  0	0.46163	  1	0.80000	  0	 16	 37	 48	  1	
16-Apr-2013	sub2314	2314	  2	  1	 46	  5	  1	  1	  3	  3	  1	  2	  0	0.40413	  0	0.80000	  0	 11	 40	 41	  1	
16-Apr-2013	sub2314	2314	  2	  1	 47	  5	  1	  1	  3	  3	  1	  1	  1	0.44717	  1	0.80000	  0	 11	 30	 31	  1	
16-Apr-2013	sub2314	2314	  2	  1	 48	  5	  1	  4	  5	  5	  1	  1	  0	0.49640	  0	0.80000	  0	 14	 42	 43	  1	
16-Apr-2013	sub2314	2314	  2	  1	 49	  5	  1	  1	  3	  3	  1	  1	  1	0.52402	  1	0.80000	  0	 11	 30	 31	  0	
16-Apr-2013	sub2314	2314	  2	  1	 50	  5	  1	  6	  6	  5	  1	  2	  1	0.41909	  1	0.80000	  0	 16	 35	 36	  1	
16-Apr-2013	sub2314	2314	  2	  1	 51	  5	  1	  1	  3	  3	  1	  1	  1	0.71164	  1	0.70000	  1	 11	 30	 51	  0	
16-Apr-2013	sub2314	2314	  2	  1	 52	  5	  1	  5	  2	  2	  1	  1	  1	0.52504	  1	0.90000	  0	 15	 35	 36	  0	
16-Apr-2013	sub2314	2314	  2	  1	 53	  5	  1	  6	  6	  5	  1	  1	  0	0.36276	  0	0.90000	  0	 16	 45	 46	  1	
16-Apr-2013	sub2314	2314	  2	  1	 54	  5	  1	  5	  2	  2	  0	  2	  1	0.44105	  0	0.90000	  0	 15	 47	 38	  1	
16-Apr-2013	sub2314	2314	  2	  1	 55	  5	  1	  6	  6	  5	  1	  2	  1	0.39292	  1	0.90000	  0	 16	 35	 36	  1	
16-Apr-2013	sub2314	2314	  2	  1	 56	  5	  1	  3	  4	  3	  1	  2	  0	0.46020	  0	0.90000	  0	 13	 42	 43	  1	
16-Apr-2013	sub2314	2314	  2	  1	 57	  5	  1	  2	  1	  1	  1	  2	  1	0.47991	  1	0.90000	  0	 12	 30	 31	  1	
16-Apr-2013	sub2314	2314	  2	  1	 58	  5	  1	  3	  4	  3	  1	  2	  0	0.46149	  0	0.90000	  0	 13	 42	 43	  1	
16-Apr-2013	sub2314	2314	  2	  1	 59	  5	  1	  5	  2	  2	  1	  2	  0	0.49967	  0	0.80000	  0	 15	 45	 46	  1	
16-Apr-2013	sub2314	2314	  2	  1	 60	  5	  1	  2	  1	  1	  1	  1	  0	0.52911	  0	0.80000	  0	 12	 40	 41	  0	
16-Apr-2013	sub2314	2314	  2	  1	 61	  5	  1	  6	  6	  5	  1	  2	  1	0.45673	  1	0.80000	  0	 16	 35	 36	  1	
16-Apr-2013	sub2314	2314	  2	  1	 62	  5	  1	  6	  6	  5	  1	  2	  1	0.47043	  1	0.80000	  0	 16	 35	 36	  1	
16-Apr-2013	sub2314	2314	  2	  1	 63	  5	  1	  1	  3	  3	  1	  1	  1	0.32310	  1	0.80000	  0	 11	 30	 31	  1	
16-Apr-2013	sub2314	2314	  2	  1	 64	  5	  1	  5	  2	  2	  1	  1	  1	0.38707	  1	0.80000	  0	 15	 35	 36	  1	
16-Apr-2013	sub2314	2314	  2	  1	 65	  5	  1	  6	  6	  5	  1	  1	  0	0.36248	  0	0.80000	  0	 16	 45	 46	  1	
16-Apr-2013	sub2314	2314	  2	  1	 66	  5	  1	  6	  6	  5	  0	  2	  0	0.34198	  1	0.80000	  0	 16	 37	 48	  1	
16-Apr-2013	sub2314	2314	  2	  1	 67	  5	  1	  2	  1	  1	  1	  1	  0	0.34168	  0	0.80000	  0	 12	 40	 41	  1	
16-Apr-2013	sub2314	2314	  2	  1	 68	  5	  1	  1	  3	  3	  1	  2	  0	0.46908	  0	0.70000	  0	 11	 40	 41	  1	
16-Apr-2013	sub2314	2314	  2	  1	 69	  5	  1	  1	  3	  3	  1	  1	  1	0.43815	  1	0.70000	  0	 11	 30	 31	  1	
16-Apr-2013	sub2314	2314	  2	  1	 70	  5	  1	  6	  6	  5	  0	  1	  1	0.43112	  0	0.70000	  0	 16	 47	 38	  1	
16-Apr-2013	sub2314	2314	  2	  1	 71	  5	  1	  4	  5	  5	  1	  1	  0	0.51247	  0	0.70000	  0	 14	 42	 43	  0	
16-Apr-2013	sub2314	2314	  2	  1	 72	  5	  1	  2	  1	  1	  1	  2	  1	0.54230	  1	0.70000	  0	 12	 30	 31	  0	
16-Apr-2013	sub2314	2314	  2	  1	 73	  5	  1	  4	  5	  5	  1	  2	  1	0.41438	  1	0.70000	  0	 14	 32	 33	  1	
16-Apr-2013	sub2314	2314	  2	  1	 74	  5	  1	  4	  5	  5	  1	  2	  1	0.47563	  1	0.70000	  0	 14	 32	 33	  1	
16-Apr-2013	sub2314	2314	  2	  1	 75	  5	  1	  5	  2	  2	  1	  2	  0	0.50907	  0	0.70000	  0	 15	 45	 46	  0	
16-Apr-2013	sub2314	2314	  2	  1	 76	  5	  2	  1	  3	  3	  1	  1	  1	0.60443	  1	0.70000	  0	 21	 60	 61	  0	
16-Apr-2013	sub2314	2314	  2	  1	 77	  5	  2	  5	  2	  2	  0	  1	  0	0.36689	  1	0.70000	  0	 25	 67	 88	  1	
16-Apr-2013	sub2314	2314	  2	  1	 78	  5	  2	  4	  5	  5	  0	  2	  0	0.44105	  1	0.70000	  0	 24	 64	 89	  1	
16-Apr-2013	sub2314	2314	  2	  1	 79	  5	  2	  5	  2	  2	  0	  2	  1	0.32972	  0	0.70000	  0	 25	 87	 68	  1	
16-Apr-2013	sub2314	2314	  2	  1	 80	  5	  2	  6	  6	  5	  0	  2	  0	0.41130	  1	0.70000	  0	 26	 67	 88	  1	
16-Apr-2013	sub2314	2314	  2	  1	 81	  5	  2	  3	  4	  3	  1	  2	  0	0.47261	  0	0.60000	  0	 23	 82	 83	  1	
16-Apr-2013	sub2314	2314	  2	  1	 82	  5	  2	  2	  1	  1	  1	  2	  1	0.47016	  1	0.60000	  0	 22	 60	 61	  1	
16-Apr-2013	sub2314	2314	  2	  1	 83	  5	  2	  4	  5	  5	  1	  2	  1	0.41345	  1	0.60000	  0	 24	 62	 63	  1	
16-Apr-2013	sub2314	2314	  2	  1	 84	  5	  2	  1	  3	  3	  1	  1	  1	0.72816	  1	0.60000	  1	 21	 60	 51	  0	
16-Apr-2013	sub2314	2314	  2	  1	 85	  5	  2	  1	  3	  3	  1	  1	  1	0.45195	  1	0.70000	  0	 21	 60	 61	  1	
16-Apr-2013	sub2314	2314	  2	  1	 86	  5	  2	  1	  3	  3	  1	  1	  1	0.36113	  1	0.70000	  0	 21	 60	 61	  1	
16-Apr-2013	sub2314	2314	  2	  1	 87	  5	  2	  5	  2	  2	  0	  1	  0	0.34645	  1	0.70000	  0	 25	 67	 88	  1	
16-Apr-2013	sub2314	2314	  2	  1	 88	  5	  2	  1	  3	  3	  1	  1	  1	0.50489	  1	0.70000	  0	 21	 60	 61	  0	
16-Apr-2013	sub2314	2314	  2	  1	 89	  5	  2	  4	  5	  5	  1	  2	  1	0.52246	  1	0.70000	  0	 24	 62	 63	  0	
16-Apr-2013	sub2314	2314	  2	  1	 90	  5	  2	  2	  1	  1	  1	  2	  1	0.43983	  1	0.70000	  0	 22	 60	 61	  1	
16-Apr-2013	sub2314	2314	  2	  1	 91	  5	  2	  3	  4	  3	  1	  1	  1	0.61393	  1	0.70000	  0	 23	 62	 63	  0	
16-Apr-2013	sub2314	2314	  2	  1	 92	  5	  2	  6	  6	  5	  1	  2	  1	0.53371	  1	0.70000	  0	 26	 65	 66	  0	
16-Apr-2013	sub2314	2314	  2	  1	 93	  5	  2	  4	  5	  5	  1	  2	  1	0.49655	  1	0.70000	  0	 24	 62	 63	  1	
16-Apr-2013	sub2314	2314	  2	  1	 94	  5	  2	  4	  5	  5	  0	  2	  0	0.43635	  1	0.70000	  0	 24	 64	 89	  1	
16-Apr-2013	sub2314	2314	  2	  1	 95	  5	  2	  1	  3	  3	  1	  2	  0	0.43662	  0	0.70000	  0	 21	 80	 81	  1	
16-Apr-2013	sub2314	2314	  2	  1	 96	  5	  2	  2	  1	  1	  1	  2	  1	0.52138	  1	0.70000	  0	 22	 60	 61	  0	
16-Apr-2013	sub2314	2314	  2	  1	 97	  5	  2	  2	  1	  1	  1	  2	  1	0.49405	  1	0.70000	  0	 22	 60	 61	  1	
16-Apr-2013	sub2314	2314	  2	  1	 98	  5	  2	  5	  2	  2	  0	  2	  1	0.57412	  0	0.70000	  0	 25	 87	 68	  0	
16-Apr-2013	sub2314	2314	  2	  1	 99	  5	  2	  6	  6	  5	  1	  2	  1	0.44855	  1	0.70000	  0	 26	 65	 66	  1	
16-Apr-2013	sub2314	2314	  2	  1	100	  5	  2	  6	  6	  5	  0	  2	  0	0.43190	  1	0.70000	  0	 26	 67	 88	  1	
16-Apr-2013	sub2314	2314	  2	  1	101	  5	  2	  3	  4	  3	  1	  1	  1	0.50744	  1	0.60000	  0	 23	 62	 63	  0	
16-Apr-2013	sub2314	2314	  2	  1	102	  5	  2	  1	  3	  3	  1	  1	  1	0.40229	  1	0.60000	  0	 21	 60	 61	  1	
16-Apr-2013	sub2314	2314	  2	  1	103	  5	  2	  4	  5	  5	  1	  1	  0	0.33056	  0	0.60000	  0	 24	 82	 83	  1	
16-Apr-2013	sub2314	2314	  2	  1	104	  5	  2	  2	  1	  1	  1	  2	  1	0.45111	  1	0.60000	  0	 22	 60	 61	  1	
16-Apr-2013	sub2314	2314	  2	  1	105	  5	  2	  4	  5	  5	  1	  2	  1	0.50853	  1	0.60000	  0	 24	 62	 63	  0	
16-Apr-2013	sub2314	2314	  2	  1	106	  5	  2	  1	  3	  3	  1	  2	  0	0.45041	  0	0.60000	  0	 21	 80	 81	  1	
16-Apr-2013	sub2314	2314	  2	  1	107	  5	  2	  2	  1	  1	  1	  2	  1	0.49660	  1	0.60000	  0	 22	 60	 61	  1	
16-Apr-2013	sub2314	2314	  2	  1	108	  5	  2	  4	  5	  5	  1	  2	  1	0.44809	  1	0.60000	  0	 24	 62	 63	  1	
16-Apr-2013	sub2314	2314	  2	  1	109	  5	  2	  2	  1	  1	  1	  2	  1	0.46800	  1	0.60000	  0	 22	 60	 61	  1	
16-Apr-2013	sub2314	2314	  2	  1	110	  5	  2	  3	  4	  3	  1	  2	  0	0.46075	  0	0.60000	  0	 23	 82	 83	  1	
16-Apr-2013	sub2314	2314	  2	  1	111	  5	  2	  3	  4	  3	  0	  2	  1	0.42810	  0	0.60000	  0	 23	 84	 69	  1	
16-Apr-2013	sub2314	2314	  2	  1	112	  5	  2	  6	  6	  5	  1	  2	  1	0.47933	  1	0.60000	  0	 26	 65	 66	  1	
16-Apr-2013	sub2314	2314	  2	  1	113	  5	  2	  2	  1	  1	  1	  2	  1	0.60122	  1	0.60000	  1	 22	 60	 51	  0	
16-Apr-2013	sub2314	2314	  2	  1	114	  5	  2	  6	  6	  5	  0	  2	  0	0.46889	  1	0.70000	  0	 26	 67	 88	  1	
16-Apr-2013	sub2314	2314	  2	  1	115	  5	  2	  3	  4	  3	  1	  2	  0	0.48026	  0	0.70000	  0	 23	 82	 83	  1	
16-Apr-2013	sub2314	2314	  2	  1	116	  5	  2	  4	  5	  5	  0	  2	  0	0.54232	  1	0.70000	  0	 24	 64	 89	  0	
16-Apr-2013	sub2314	2314	  2	  1	117	  5	  2	  5	  2	  2	  0	  2	  1	0.43767	  0	0.70000	  0	 25	 87	 68	  1	
16-Apr-2013	sub2314	2314	  2	  1	118	  5	  2	  6	  6	  5	  1	  1	  0	0.42293	  0	0.70000	  0	 26	 85	 86	  1	
16-Apr-2013	sub2314	2314	  2	  1	119	  5	  2	  5	  2	  2	  0	  2	  1	0.39930	  0	0.70000	  0	 25	 87	 68	  1	
16-Apr-2013	sub2314	2314	  2	  1	120	  5	  2	  3	  4	  3	  1	  2	  0	0.51316	  0	0.70000	  0	 23	 82	 83	  0	
16-Apr-2013	sub2314	2314	  2	  1	121	  5	  2	  3	  4	  3	  0	  1	  0	0.41077	  1	0.60000	  0	 23	 64	 89	  1	
16-Apr-2013	sub2314	2314	  2	  1	122	  5	  2	  1	  3	  3	  1	  2	  0	0.37899	  0	0.60000	  0	 21	 80	 81	  1	
16-Apr-2013	sub2314	2314	  2	  1	123	  5	  2	  6	  6	  5	  0	  2	  0	0.64443	  1	0.60000	  1	 26	 67	 51	  0	
16-Apr-2013	sub2314	2314	  2	  1	124	  5	  2	  3	  4	  3	  1	  2	  0	0.45294	  0	0.70000	  0	 23	 82	 83	  1	
16-Apr-2013	sub2314	2314	  2	  1	125	  5	  2	  6	  6	  5	  1	  1	  0	0.42632	  0	0.70000	  0	 26	 85	 86	  1	
16-Apr-2013	sub2314	2314	  2	  1	126	  5	  2	  6	  6	  5	  0	  2	  0	0.42413	  1	0.70000	  0	 26	 67	 88	  1	
16-Apr-2013	sub2314	2314	  2	  1	127	  5	  2	  5	  2	  2	  0	  1	  0	0.50323	  1	0.70000	  0	 25	 67	 88	  0	
16-Apr-2013	sub2314	2314	  2	  1	128	  5	  2	  1	  3	  3	  1	  2	  0	0.45798	  0	0.70000	  0	 21	 80	 81	  1	
16-Apr-2013	sub2314	2314	  2	  1	129	  5	  2	  4	  5	  5	  1	  1	  0	0.36451	  0	0.70000	  0	 24	 82	 83	  1	
16-Apr-2013	sub2314	2314	  2	  1	130	  5	  2	  2	  1	  1	  1	  2	  1	0.52874	  1	0.70000	  0	 22	 60	 61	  0	
16-Apr-2013	sub2314	2314	  2	  1	131	  5	  2	  5	  2	  2	  0	  2	  1	0.46982	  0	0.70000	  0	 25	 87	 68	  1	
16-Apr-2013	sub2314	2314	  2	  1	132	  5	  2	  3	  4	  3	  1	  2	  0	0.53454	  0	0.70000	  0	 23	 82	 83	  0	
16-Apr-2013	sub2314	2314	  2	  1	133	  5	  2	  4	  5	  5	  1	  2	  1	0.45245	  1	0.70000	  0	 24	 62	 63	  1	
16-Apr-2013	sub2314	2314	  2	  1	134	  5	  2	  6	  6	  5	  0	  2	  0	0.40867	  1	0.70000	  0	 26	 67	 88	  1	
16-Apr-2013	sub2314	2314	  2	  1	135	  5	  2	  5	  2	  2	  0	  2	  1	0.39049	  0	0.70000	  0	 25	 87	 68	  1	
16-Apr-2013	sub2314	2314	  2	  1	136	  5	  2	  4	  5	  5	  1	  2	  1	0.57700	  1	0.70000	  0	 24	 62	 63	  0	
16-Apr-2013	sub2314	2314	  2	  1	137	  5	  2	  5	  2	  2	  0	  2	  1	0.56350	  0	0.70000	  0	 25	 87	 68	  0	
16-Apr-2013	sub2314	2314	  2	  1	138	  5	  2	  5	  2	  2	  0	  2	  1	0.58618	  0	0.70000	  0	 25	 87	 68	  0	
16-Apr-2013	sub2314	2314	  2	  1	139	  5	  2	  1	  3	  3	  1	  1	  1	0.48106	  1	0.70000	  0	 21	 60	 61	  1	
16-Apr-2013	sub2314	2314	  2	  1	140	  5	  2	  2	  1	  1	  1	  2	  1	0.50100	  1	0.70000	  0	 22	 60	 61	  0	
16-Apr-2013	sub2314	2314	  2	  1	141	  5	  2	  4	  5	  5	  1	  2	  1	0.51068	  1	0.60000	  0	 24	 62	 63	  0	
16-Apr-2013	sub2314	2314	  2	  1	142	  5	  2	  1	  3	  3	  1	  1	  1	0.62284	  1	0.60000	  1	 21	 60	 51	  0	
16-Apr-2013	sub2314	2314	  2	  1	143	  5	  2	  3	  4	  3	  1	  2	  0	0.63159	  0	0.70000	  0	 23	 82	 83	  0	
16-Apr-2013	sub2314	2314	  2	  1	144	  5	  2	  2	  1	  1	  1	  2	  1	0.59401	  1	0.70000	  0	 22	 60	 61	  0	
16-Apr-2013	sub2314	2314	  2	  1	145	  5	  2	  1	  3	  3	  1	  1	  1	0.52572	  1	0.70000	  0	 21	 60	 61	  0	
16-Apr-2013	sub2314	2314	  2	  1	146	  5	  2	  5	  2	  2	  0	  2	  1	0.41267	  0	0.70000	  0	 25	 87	 68	  1	
16-Apr-2013	sub2314	2314	  2	  1	147	  5	  2	  6	  6	  5	  1	  1	  0	0.49128	  0	0.70000	  0	 26	 85	 86	  1	
16-Apr-2013	sub2314	2314	  2	  1	148	  5	  2	  5	  2	  2	  0	  2	  1	0.57222	  0	0.70000	  0	 25	 87	 68	  0	
16-Apr-2013	sub2314	2314	  2	  1	149	  5	  2	  3	  4	  3	  1	  2	  0	0.49419	  0	0.70000	  0	 23	 82	 83	  1	
16-Apr-2013	sub2314	2314	  2	  1	150	  5	  2	  2	  1	  1	  1	  2	  1	0.48114	  1	0.70000	  0	 22	 60	 61	  1	
16-Apr-2013	sub2314	2314	  2	  1	  1	  6	  1	  4	  1	  6	  1	  1	  0	0.48267	  0	0.60000	  0	 14	 42	 43	  1	
16-Apr-2013	sub2314	2314	  2	  1	  2	  6	  1	  2	  3	  6	  1	  2	  1	0.47218	  1	0.30000	  1	 12	 30	 51	  1	
16-Apr-2013	sub2314	2314	  2	  1	  3	  6	  1	  2	  3	  6	  1	  2	  1	0.31607	  1	0.90000	  0	 12	 30	 31	  1	
16-Apr-2013	sub2314	2314	  2	  1	  4	  6	  1	  3	  2	  4	  1	  2	  0	0.43490	  0	0.90000	  0	 13	 42	 43	  1	
16-Apr-2013	sub2314	2314	  2	  1	  5	  6	  1	  1	  4	  6	  1	  2	  0	0.44847	  0	0.90000	  0	 11	 40	 41	  1	
16-Apr-2013	sub2314	2314	  2	  1	  6	  6	  1	  3	  2	  4	  1	  2	  0	0.36546	  0	0.90000	  0	 13	 42	 43	  1	
16-Apr-2013	sub2314	2314	  2	  1	  7	  6	  1	  6	  5	  2	  1	  2	  1	0.39175	  1	0.90000	  0	 16	 35	 36	  1	
16-Apr-2013	sub2314	2314	  2	  1	  8	  6	  1	  5	  6	  2	  0	  2	  1	0.47221	  0	0.90000	  0	 15	 47	 38	  1	
16-Apr-2013	sub2314	2314	  2	  1	  9	  6	  1	  4	  1	  6	  1	  2	  1	0.41643	  1	0.90000	  0	 14	 32	 33	  1	
16-Apr-2013	sub2314	2314	  2	  1	 10	  6	  1	  5	  6	  2	  0	  2	  1	0.51627	  0	0.90000	  0	 15	 47	 38	  0	
16-Apr-2013	sub2314	2314	  2	  1	 11	  6	  1	  1	  4	  6	  1	  2	  0	0.44289	  0	0.90000	  0	 11	 40	 41	  1	
16-Apr-2013	sub2314	2314	  2	  1	 12	  6	  1	  4	  1	  6	  1	  1	  0	0.52734	  0	0.90000	  0	 14	 42	 43	  0	
16-Apr-2013	sub2314	2314	  2	  1	 13	  6	  1	  5	  6	  2	  1	  2	  0	0.30826	  0	0.90000	  0	 15	 45	 46	  1	
16-Apr-2013	sub2314	2314	  2	  1	 14	  6	  1	  3	  2	  4	  1	  2	  0	0.44080	  0	0.90000	  0	 13	 42	 43	  1	
16-Apr-2013	sub2314	2314	  2	  1	 15	  6	  1	  5	  6	  2	  0	  1	  0	0.41169	  1	0.90000	  0	 15	 37	 48	  1	
16-Apr-2013	sub2314	2314	  2	  1	 16	  6	  1	  5	  6	  2	  1	  2	  0	0.38533	  0	0.80000	  0	 15	 45	 46	  1	
16-Apr-2013	sub2314	2314	  2	  1	 17	  6	  1	  3	  2	  4	  1	  2	  0	0.39356	  0	0.80000	  0	 13	 42	 43	  1	
16-Apr-2013	sub2314	2314	  2	  1	 18	  6	  1	  6	  5	  2	  0	  2	  0	0.37796	  1	0.70000	  0	 16	 37	 48	  1	
16-Apr-2013	sub2314	2314	  2	  1	 19	  6	  1	  1	  4	  6	  1	  2	  0	0.39531	  0	0.70000	  0	 11	 40	 41	  1	
16-Apr-2013	sub2314	2314	  2	  1	 20	  6	  1	  4	  1	  6	  1	  2	  1	0.43183	  1	0.70000	  0	 14	 32	 33	  1	
16-Apr-2013	sub2314	2314	  2	  1	 21	  6	  1	  2	  3	  6	  1	  1	  0	0.43485	  0	0.60000	  0	 12	 40	 41	  1	
16-Apr-2013	sub2314	2314	  2	  1	 22	  6	  1	  1	  4	  6	  1	  2	  0	0.44542	  0	0.60000	  0	 11	 40	 41	  1	
16-Apr-2013	sub2314	2314	  2	  1	 23	  6	  1	  4	  1	  6	  1	  1	  0	0.37933	  0	0.60000	  0	 14	 42	 43	  1	
16-Apr-2013	sub2314	2314	  2	  1	 24	  6	  1	  2	  3	  6	  1	  1	  0	0.43869	  0	0.60000	  0	 12	 40	 41	  1	
16-Apr-2013	sub2314	2314	  2	  1	 25	  6	  1	  2	  3	  6	  1	  2	  1	0.51704	  1	0.60000	  0	 12	 30	 31	  0	
16-Apr-2013	sub2314	2314	  2	  1	 26	  6	  1	  4	  1	  6	  1	  1	  0	0.42007	  0	0.50000	  0	 14	 42	 43	  1	
16-Apr-2013	sub2314	2314	  2	  1	 27	  6	  1	  3	  2	  4	  1	  1	  1	0.57518	  1	0.50000	  1	 13	 32	 51	  0	
16-Apr-2013	sub2314	2314	  2	  1	 28	  6	  1	  1	  4	  6	  1	  1	  1	0.34294	  1	0.90000	  0	 11	 30	 31	  1	
16-Apr-2013	sub2314	2314	  2	  1	 29	  6	  1	  6	  5	  2	  1	  1	  0	0.26650	  0	0.90000	  0	 16	 45	 46	  1	
16-Apr-2013	sub2314	2314	  2	  1	 30	  6	  1	  5	  6	  2	  0	  1	  0	0.35838	  1	0.80000	  0	 15	 37	 48	  1	
16-Apr-2013	sub2314	2314	  2	  1	 31	  6	  1	  6	  5	  2	  0	  1	  1	0.48874	  0	0.80000	  0	 16	 47	 38	  1	
16-Apr-2013	sub2314	2314	  2	  1	 32	  6	  1	  1	  4	  6	  1	  1	  1	0.41446	  1	0.80000	  0	 11	 30	 31	  1	
16-Apr-2013	sub2314	2314	  2	  1	 33	  6	  1	  4	  1	  6	  1	  2	  1	0.50803	  1	0.80000	  0	 14	 32	 33	  0	
16-Apr-2013	sub2314	2314	  2	  1	 34	  6	  1	  2	  3	  6	  1	  2	  1	0.39350	  1	0.80000	  0	 12	 30	 31	  1	
16-Apr-2013	sub2314	2314	  2	  1	 35	  6	  1	  2	  3	  6	  1	  2	  1	0.41855	  1	0.70000	  0	 12	 30	 31	  1	
16-Apr-2013	sub2314	2314	  2	  1	 36	  6	  1	  6	  5	  2	  1	  1	  0	0.51007	  0	0.70000	  0	 16	 45	 46	  0	
16-Apr-2013	sub2314	2314	  2	  1	 37	  6	  1	  6	  5	  2	  0	  2	  0	0.36924	  1	0.70000	  0	 16	 37	 48	  1	
16-Apr-2013	sub2314	2314	  2	  1	 38	  6	  1	  5	  6	  2	  1	  2	  0	0.44586	  0	0.70000	  0	 15	 45	 46	  1	
16-Apr-2013	sub2314	2314	  2	  1	 39	  6	  1	  4	  1	  6	  1	  2	  1	0.49195	  1	0.70000	  0	 14	 32	 33	  1	
16-Apr-2013	sub2314	2314	  2	  1	 40	  6	  1	  3	  2	  4	  0	  2	  1	0.51863	  0	0.70000	  0	 13	 44	 39	  0	
16-Apr-2013	sub2314	2314	  2	  1	 41	  6	  1	  1	  4	  6	  1	  2	  0	0.47501	  0	0.60000	  0	 11	 40	 41	  1	
16-Apr-2013	sub2314	2314	  2	  1	 42	  6	  1	  4	  1	  6	  1	  2	  1	2.16262	  1	0.60000	  1	 14	 32	 51	  0	
16-Apr-2013	sub2314	2314	  2	  1	 43	  6	  1	  3	  2	  4	  1	  2	  0	0.50976	  0	0.90000	  0	 13	 42	 43	  0	
16-Apr-2013	sub2314	2314	  2	  1	 44	  6	  1	  5	  6	  2	  1	  2	  0	0.49613	  0	0.80000	  0	 15	 45	 46	  1	
16-Apr-2013	sub2314	2314	  2	  1	 45	  6	  1	  5	  6	  2	  0	  2	  1	0.51935	  0	0.80000	  0	 15	 47	 38	  0	
16-Apr-2013	sub2314	2314	  2	  1	 46	  6	  1	  1	  4	  6	  1	  2	  0	0.46096	  0	0.80000	  0	 11	 40	 41	  1	
16-Apr-2013	sub2314	2314	  2	  1	 47	  6	  1	  2	  3	  6	  1	  1	  0	0.48838	  0	0.80000	  0	 12	 40	 41	  1	
16-Apr-2013	sub2314	2314	  2	  1	 48	  6	  1	  6	  5	  2	  0	  2	  0	0.47173	  1	0.80000	  0	 16	 37	 48	  1	
16-Apr-2013	sub2314	2314	  2	  1	 49	  6	  1	  4	  1	  6	  1	  2	  1	0.56148	  1	0.80000	  0	 14	 32	 33	  0	
16-Apr-2013	sub2314	2314	  2	  1	 50	  6	  1	  3	  2	  4	  1	  2	  0	0.51674	  0	0.80000	  0	 13	 42	 43	  0	
16-Apr-2013	sub2314	2314	  2	  1	 51	  6	  1	  3	  2	  4	  1	  2	  0	0.46838	  0	0.70000	  0	 13	 42	 43	  1	
16-Apr-2013	sub2314	2314	  2	  1	 52	  6	  1	  3	  2	  4	  1	  2	  0	0.46299	  0	0.70000	  0	 13	 42	 43	  1	
16-Apr-2013	sub2314	2314	  2	  1	 53	  6	  1	  5	  6	  2	  0	  1	  0	0.51975	  1	0.70000	  0	 15	 37	 48	  0	
16-Apr-2013	sub2314	2314	  2	  1	 54	  6	  1	  6	  5	  2	  1	  1	  0	0.44019	  0	0.70000	  0	 16	 45	 46	  1	
16-Apr-2013	sub2314	2314	  2	  1	 55	  6	  1	  6	  5	  2	  0	  2	  0	0.37906	  1	0.70000	  0	 16	 37	 48	  1	
16-Apr-2013	sub2314	2314	  2	  1	 56	  6	  1	  2	  3	  6	  1	  2	  1	0.49695	  1	0.70000	  0	 12	 30	 31	  1	
16-Apr-2013	sub2314	2314	  2	  1	 57	  6	  1	  4	  1	  6	  0	  2	  0	0.44925	  1	0.70000	  0	 14	 34	 49	  1	
16-Apr-2013	sub2314	2314	  2	  1	 58	  6	  1	  6	  5	  2	  1	  1	  0	0.43978	  0	0.70000	  0	 16	 45	 46	  1	
16-Apr-2013	sub2314	2314	  2	  1	 59	  6	  1	  5	  6	  2	  1	  2	  0	0.47641	  0	0.70000	  0	 15	 45	 46	  1	
16-Apr-2013	sub2314	2314	  2	  1	 60	  6	  1	  2	  3	  6	  1	  1	  0	0.49391	  0	0.70000	  0	 12	 40	 41	  1	
16-Apr-2013	sub2314	2314	  2	  1	 61	  6	  1	  6	  5	  2	  0	  2	  0	0.52712	  1	0.60000	  0	 16	 37	 48	  0	
16-Apr-2013	sub2314	2314	  2	  1	 62	  6	  1	  1	  4	  6	  1	  2	  0	0.61278	  0	0.60000	  1	 11	 40	 51	  0	
16-Apr-2013	sub2314	2314	  2	  1	 63	  6	  1	  1	  4	  6	  1	  2	  0	0.43555	  0	0.80000	  0	 11	 40	 41	  1	
16-Apr-2013	sub2314	2314	  2	  1	 64	  6	  1	  1	  4	  6	  1	  1	  1	0.40619	  1	0.80000	  0	 11	 30	 31	  1	
16-Apr-2013	sub2314	2314	  2	  1	 65	  6	  1	  1	  4	  6	  1	  1	  1	0.35097	  1	0.80000	  0	 11	 30	 31	  1	
16-Apr-2013	sub2314	2314	  2	  1	 66	  6	  1	  2	  3	  6	  1	  1	  0	0.44014	  0	0.80000	  0	 12	 40	 41	  1	
16-Apr-2013	sub2314	2314	  2	  1	 67	  6	  1	  6	  5	  2	  1	  2	  1	0.43691	  1	0.80000	  0	 16	 35	 36	  1	
16-Apr-2013	sub2314	2314	  2	  1	 68	  6	  1	  4	  1	  6	  0	  2	  0	0.52157	  1	0.70000	  0	 14	 34	 49	  0	
16-Apr-2013	sub2314	2314	  2	  1	 69	  6	  1	  6	  5	  2	  1	  2	  1	0.47573	  1	0.70000	  0	 16	 35	 36	  1	
16-Apr-2013	sub2314	2314	  2	  1	 70	  6	  1	  3	  2	  4	  0	  2	  1	0.47463	  0	0.70000	  0	 13	 44	 39	  1	
16-Apr-2013	sub2314	2314	  2	  1	 71	  6	  1	  2	  3	  6	  1	  2	  1	0.47836	  1	0.70000	  0	 12	 30	 31	  1	
16-Apr-2013	sub2314	2314	  2	  1	 72	  6	  1	  3	  2	  4	  1	  2	  0	0.43639	  0	0.70000	  0	 13	 42	 43	  1	
16-Apr-2013	sub2314	2314	  2	  1	 73	  6	  1	  2	  3	  6	  1	  1	  0	0.52007	  0	0.70000	  0	 12	 40	 41	  0	
16-Apr-2013	sub2314	2314	  2	  1	 74	  6	  1	  5	  6	  2	  1	  2	  0	0.41495	  0	0.70000	  0	 15	 45	 46	  1	
16-Apr-2013	sub2314	2314	  2	  1	 75	  6	  1	  3	  2	  4	  0	  1	  0	0.38110	  1	0.70000	  0	 13	 34	 49	  1	
16-Apr-2013	sub2314	2314	  2	  1	 76	  6	  2	  2	  3	  6	  1	  1	  0	0.35180	  0	0.70000	  0	 22	 80	 81	  1	
16-Apr-2013	sub2314	2314	  2	  1	 77	  6	  2	  1	  4	  6	  1	  2	  0	0.35186	  0	0.70000	  0	 21	 80	 81	  1	
16-Apr-2013	sub2314	2314	  2	  1	 78	  6	  2	  6	  5	  2	  0	  2	  0	0.50413	  1	0.70000	  0	 26	 67	 88	  0	
16-Apr-2013	sub2314	2314	  2	  1	 79	  6	  2	  1	  4	  6	  1	  1	  1	0.48231	  1	0.70000	  0	 21	 60	 61	  1	
16-Apr-2013	sub2314	2314	  2	  1	 80	  6	  2	  2	  3	  6	  1	  1	  0	0.36201	  0	0.70000	  0	 22	 80	 81	  1	
16-Apr-2013	sub2314	2314	  2	  1	 81	  6	  2	  4	  1	  6	  1	  2	  1	0.52178	  1	0.60000	  0	 24	 62	 63	  0	
16-Apr-2013	sub2314	2314	  2	  1	 82	  6	  2	  5	  6	  2	  0	  2	  1	0.47890	  0	0.60000	  0	 25	 87	 68	  1	
16-Apr-2013	sub2314	2314	  2	  1	 83	  6	  2	  2	  3	  6	  1	  1	  0	0.46506	  0	0.60000	  0	 22	 80	 81	  1	
16-Apr-2013	sub2314	2314	  2	  1	 84	  6	  2	  4	  1	  6	  1	  2	  1	0.39046	  1	0.60000	  0	 24	 62	 63	  1	
16-Apr-2013	sub2314	2314	  2	  1	 85	  6	  2	  5	  6	  2	  0	  2	  1	0.39820	  0	0.60000	  0	 25	 87	 68	  1	
16-Apr-2013	sub2314	2314	  2	  1	 86	  6	  2	  5	  6	  2	  0	  2	  1	0.57875	  0	0.60000	  0	 25	 87	 68	  0	
16-Apr-2013	sub2314	2314	  2	  1	 87	  6	  2	  1	  4	  6	  1	  2	  0	0.46506	  0	0.60000	  0	 21	 80	 81	  1	
16-Apr-2013	sub2314	2314	  2	  1	 88	  6	  2	  4	  1	  6	  1	  2	  1	0.50991	  1	0.60000	  0	 24	 62	 63	  0	
16-Apr-2013	sub2314	2314	  2	  1	 89	  6	  2	  2	  3	  6	  1	  1	  0	0.57977	  0	0.60000	  0	 22	 80	 81	  0	
16-Apr-2013	sub2314	2314	  2	  1	 90	  6	  2	  2	  3	  6	  1	  2	  1	0.83741	  1	0.60000	  1	 22	 60	 51	  0	
16-Apr-2013	sub2314	2314	  2	  1	 91	  6	  2	  1	  4	  6	  1	  1	  1	0.53410	  1	0.70000	  0	 21	 60	 61	  0	
16-Apr-2013	sub2314	2314	  2	  1	 92	  6	  2	  6	  5	  2	  1	  1	  0	0.43113	  0	0.70000	  0	 26	 85	 86	  1	
16-Apr-2013	sub2314	2314	  2	  1	 93	  6	  2	  2	  3	  6	  1	  2	  1	0.44133	  1	0.70000	  0	 22	 60	 61	  1	
16-Apr-2013	sub2314	2314	  2	  1	 94	  6	  2	  4	  1	  6	  0	  2	  0	0.35386	  1	0.70000	  0	 24	 64	 89	  1	
16-Apr-2013	sub2314	2314	  2	  1	 95	  6	  2	  6	  5	  2	  1	  2	  1	0.33530	  1	0.70000	  0	 26	 65	 66	  1	
16-Apr-2013	sub2314	2314	  2	  1	 96	  6	  2	  6	  5	  2	  0	  2	  0	0.39116	  1	0.70000	  0	 26	 67	 88	  1	
16-Apr-2013	sub2314	2314	  2	  1	 97	  6	  2	  2	  3	  6	  1	  2	  1	0.47911	  1	0.70000	  0	 22	 60	 61	  1	
16-Apr-2013	sub2314	2314	  2	  1	 98	  6	  2	  4	  1	  6	  1	  2	  1	0.49434	  1	0.70000	  0	 24	 62	 63	  1	
16-Apr-2013	sub2314	2314	  2	  1	 99	  6	  2	  3	  2	  4	  1	  2	  0	0.46631	  0	0.70000	  0	 23	 82	 83	  1	
16-Apr-2013	sub2314	2314	  2	  1	100	  6	  2	  1	  4	  6	  1	  2	  0	0.29014	  0	0.70000	  0	 21	 80	 81	  1	
16-Apr-2013	sub2314	2314	  2	  1	101	  6	  2	  5	  6	  2	  0	  1	  0	0.28973	  1	0.60000	  0	 25	 67	 88	  1	
16-Apr-2013	sub2314	2314	  2	  1	102	  6	  2	  6	  5	  2	  0	  2	  0	0.26672	  1	0.60000	  0	 26	 67	 88	  1	
16-Apr-2013	sub2314	2314	  2	  1	103	  6	  2	  5	  6	  2	  0	  2	  1	0.33154	  0	0.60000	  0	 25	 87	 68	  1	
16-Apr-2013	sub2314	2314	  2	  1	104	  6	  2	  3	  2	  4	  1	  2	  0	0.36606	  0	0.60000	  0	 23	 82	 83	  1	
16-Apr-2013	sub2314	2314	  2	  1	105	  6	  2	  2	  3	  6	  1	  2	  1	0.42460	  1	0.60000	  0	 22	 60	 61	  1	
16-Apr-2013	sub2314	2314	  2	  1	106	  6	  2	  3	  2	  4	  1	  2	  0	0.46194	  0	0.60000	  0	 23	 82	 83	  1	
16-Apr-2013	sub2314	2314	  2	  1	107	  6	  2	  6	  5	  2	  1	  2	  1	0.52496	  1	0.60000	  0	 26	 65	 66	  0	
16-Apr-2013	sub2314	2314	  2	  1	108	  6	  2	  2	  3	  6	  1	  2	  1	0.44442	  1	0.60000	  0	 22	 60	 61	  1	
16-Apr-2013	sub2314	2314	  2	  1	109	  6	  2	  3	  2	  4	  1	  1	  1	0.46878	  1	0.60000	  0	 23	 62	 63	  1	
16-Apr-2013	sub2314	2314	  2	  1	110	  6	  2	  6	  5	  2	  0	  2	  0	0.46572	  1	0.60000	  0	 26	 67	 88	  1	
16-Apr-2013	sub2314	2314	  2	  1	111	  6	  2	  4	  1	  6	  1	  2	  1	0.53506	  1	0.60000	  0	 24	 62	 63	  0	
16-Apr-2013	sub2314	2314	  2	  1	112	  6	  2	  3	  2	  4	  1	  2	  0	0.46125	  0	0.60000	  0	 23	 82	 83	  1	
16-Apr-2013	sub2314	2314	  2	  1	113	  6	  2	  1	  4	  6	  1	  1	  1	0.51168	  1	0.60000	  0	 21	 60	 61	  0	
16-Apr-2013	sub2314	2314	  2	  1	114	  6	  2	  3	  2	  4	  0	  1	  0	0.46413	  1	0.60000	  0	 23	 64	 89	  1	
16-Apr-2013	sub2314	2314	  2	  1	115	  6	  2	  5	  6	  2	  0	  2	  1	0.55368	  0	0.60000	  0	 25	 87	 68	  0	
16-Apr-2013	sub2314	2314	  2	  1	116	  6	  2	  3	  2	  4	  1	  2	  0	0.51528	  0	0.60000	  0	 23	 82	 83	  0	
16-Apr-2013	sub2314	2314	  2	  1	117	  6	  2	  5	  6	  2	  0	  1	  0	0.45826	  1	0.60000	  0	 25	 67	 88	  1	
16-Apr-2013	sub2314	2314	  2	  1	118	  6	  2	  2	  3	  6	  1	  2	  1	0.53249	  1	0.60000	  0	 22	 60	 61	  0	
16-Apr-2013	sub2314	2314	  2	  1	119	  6	  2	  4	  1	  6	  1	  2	  1	0.46987	  1	0.60000	  0	 24	 62	 63	  1	
16-Apr-2013	sub2314	2314	  2	  1	120	  6	  2	  5	  6	  2	  0	  2	  1	0.48430	  0	0.60000	  0	 25	 87	 68	  1	
16-Apr-2013	sub2314	2314	  2	  1	121	  6	  2	  2	  3	  6	  1	  2	  1	0.51618	  1	0.60000	  0	 22	 60	 61	  0	
16-Apr-2013	sub2314	2314	  2	  1	122	  6	  2	  6	  5	  2	  1	  2	  1	0.50020	  1	0.60000	  0	 26	 65	 66	  1	
16-Apr-2013	sub2314	2314	  2	  1	123	  6	  2	  2	  3	  6	  1	  2	  1	0.46745	  1	0.60000	  0	 22	 60	 61	  1	
16-Apr-2013	sub2314	2314	  2	  1	124	  6	  2	  3	  2	  4	  1	  2	  0	0.60562	  0	0.60000	  1	 23	 82	 51	  0	
16-Apr-2013	sub2314	2314	  2	  1	125	  6	  2	  1	  4	  6	  1	  2	  0	0.46867	  0	0.60000	  0	 21	 80	 81	  1	
16-Apr-2013	sub2314	2314	  2	  1	126	  6	  2	  6	  5	  2	  0	  2	  0	0.62686	  1	0.60000	  1	 26	 67	 51	  0	
16-Apr-2013	sub2314	2314	  2	  1	127	  6	  2	  6	  5	  2	  1	  2	  1	0.37875	  1	0.70000	  0	 26	 65	 66	  1	
16-Apr-2013	sub2314	2314	  2	  1	128	  6	  2	  5	  6	  2	  0	  2	  1	0.39833	  0	0.70000	  0	 25	 87	 68	  1	
16-Apr-2013	sub2314	2314	  2	  1	129	  6	  2	  1	  4	  6	  1	  2	  0	0.41324	  0	0.70000	  0	 21	 80	 81	  1	
16-Apr-2013	sub2314	2314	  2	  1	130	  6	  2	  5	  6	  2	  0	  2	  1	0.49712	  0	0.70000	  0	 25	 87	 68	  1	
16-Apr-2013	sub2314	2314	  2	  1	131	  6	  2	  4	  1	  6	  1	  1	  0	0.39992	  0	0.70000	  0	 24	 82	 83	  1	
16-Apr-2013	sub2314	2314	  2	  1	132	  6	  2	  6	  5	  2	  0	  2	  0	0.24946	  1	0.70000	  0	 26	 67	 88	  1	
16-Apr-2013	sub2314	2314	  2	  1	133	  6	  2	  6	  5	  2	  1	  2	  1	0.52584	  1	0.70000	  0	 26	 65	 66	  0	
16-Apr-2013	sub2314	2314	  2	  1	134	  6	  2	  4	  1	  6	  0	  2	  0	0.43887	  1	0.70000	  0	 24	 64	 89	  1	
16-Apr-2013	sub2314	2314	  2	  1	135	  6	  2	  4	  1	  6	  1	  2	  1	0.30048	  1	0.70000	  0	 24	 62	 63	  1	
16-Apr-2013	sub2314	2314	  2	  1	136	  6	  2	  3	  2	  4	  1	  2	  0	0.27938	  0	0.70000	  0	 23	 82	 83	  1	
16-Apr-2013	sub2314	2314	  2	  1	137	  6	  2	  1	  4	  6	  1	  2	  0	0.43695	  0	0.70000	  0	 21	 80	 81	  1	
16-Apr-2013	sub2314	2314	  2	  1	138	  6	  2	  1	  4	  6	  1	  1	  1	0.44969	  1	0.70000	  0	 21	 60	 61	  1	
16-Apr-2013	sub2314	2314	  2	  1	139	  6	  2	  1	  4	  6	  1	  1	  1	0.36346	  1	0.70000	  0	 21	 60	 61	  1	
16-Apr-2013	sub2314	2314	  2	  1	140	  6	  2	  5	  6	  2	  0	  1	  0	0.53180	  1	0.70000	  0	 25	 67	 88	  0	
16-Apr-2013	sub2314	2314	  2	  1	141	  6	  2	  4	  1	  6	  1	  2	  1	0.47986	  1	0.60000	  0	 24	 62	 63	  1	
16-Apr-2013	sub2314	2314	  2	  1	142	  6	  2	  5	  6	  2	  0	  2	  1	0.44883	  0	0.60000	  0	 25	 87	 68	  1	
16-Apr-2013	sub2314	2314	  2	  1	143	  6	  2	  1	  4	  6	  1	  2	  0	0.35725	  0	0.60000	  0	 21	 80	 81	  1	
16-Apr-2013	sub2314	2314	  2	  1	144	  6	  2	  3	  2	  4	  1	  1	  1	0.47229	  1	0.60000	  0	 23	 62	 63	  1	
16-Apr-2013	sub2314	2314	  2	  1	145	  6	  2	  3	  2	  4	  0	  1	  0	0.37107	  1	0.60000	  0	 23	 64	 89	  1	
16-Apr-2013	sub2314	2314	  2	  1	146	  6	  2	  4	  1	  6	  1	  1	  0	0.39085	  0	0.60000	  0	 24	 82	 83	  1	
16-Apr-2013	sub2314	2314	  2	  1	147	  6	  2	  4	  1	  6	  0	  2	  0	0.37473	  1	0.60000	  0	 24	 64	 89	  1	
16-Apr-2013	sub2314	2314	  2	  1	148	  6	  2	  5	  6	  2	  0	  2	  1	0.34099	  0	0.60000	  0	 25	 87	 68	  1	
16-Apr-2013	sub2314	2314	  2	  1	149	  6	  2	  3	  2	  4	  1	  2	  0	0.42694	  0	0.60000	  0	 23	 82	 83	  1	
16-Apr-2013	sub2314	2314	  2	  1	150	  6	  2	  1	  4	  6	  1	  2	  0	0.53640	  0	0.60000	  0	 21	 80	 81	  0	
