Date 	 Name 	 ID 	 Gender 	 Appearance 	 Trial 	 Block 	 Bin 	 Condition 	 Category 	 Number 	 Valid 	 Keypress 	 Correct 	 RT 	 Realcorrect 	 Deadline 	 Timeout 	 Stimtrigger 	 Resptrigger 	 Fedtrigger 	 WithinTime 	 
17-Apr-2013	sub2315	2315	  2	  1	  1	  1	  1	  5	  6	  2	  1	  1	  1	18.73978	  1	0.60000	  1	 15	 35	 51	  0	
17-Apr-2013	sub2315	2315	  2	  1	  2	  1	  1	  1	  4	  4	  1	  1	  1	0.87699	  1	0.90000	  0	 11	 30	 31	  0	
17-Apr-2013	sub2315	2315	  2	  1	  3	  1	  1	  5	  6	  2	  1	  2	  0	1.09206	  0	0.90000	  1	 15	 45	 51	  0	
17-Apr-2013	sub2315	2315	  2	  1	  4	  1	  1	  2	  3	  4	  1	  1	  0	0.53674	  0	0.90000	  0	 12	 40	 41	  0	
17-Apr-2013	sub2315	2315	  2	  1	  5	  1	  1	  5	  6	  2	  0	  2	  1	0.24063	  0	0.90000	  0	 15	 47	 38	  1	
17-Apr-2013	sub2315	2315	  2	  1	  6	  1	  1	  2	  3	  4	  1	  1	  0	0.33679	  0	0.90000	  0	 12	 40	 41	  1	
17-Apr-2013	sub2315	2315	  2	  1	  7	  1	  1	  6	  5	  6	  1	  2	  1	0.56661	  1	0.90000	  0	 16	 35	 36	  0	
17-Apr-2013	sub2315	2315	  2	  1	  8	  1	  1	  6	  5	  6	  1	  2	  1	0.80620	  1	0.90000	  0	 16	 35	 36	  0	
17-Apr-2013	sub2315	2315	  2	  1	  9	  1	  1	  4	  2	  1	  1	  2	  1	0.84610	  1	0.90000	  0	 14	 32	 33	  0	
17-Apr-2013	sub2315	2315	  2	  1	 10	  1	  1	  5	  6	  2	  1	  2	  0	1.10072	  0	0.90000	  1	 15	 45	 51	  0	
17-Apr-2013	sub2315	2315	  2	  1	 11	  1	  1	  2	  3	  4	  1	  1	  0	0.49520	  0	0.90000	  0	 12	 40	 41	  1	
17-Apr-2013	sub2315	2315	  2	  1	 12	  1	  1	  3	  1	  5	  1	  2	  0	0.53994	  0	0.90000	  0	 13	 42	 43	  0	
17-Apr-2013	sub2315	2315	  2	  1	 13	  1	  1	  6	  5	  6	  1	  2	  1	0.87428	  1	0.90000	  0	 16	 35	 36	  0	
17-Apr-2013	sub2315	2315	  2	  1	 14	  1	  1	  2	  3	  4	  1	  2	  1	0.91478	  1	0.90000	  1	 12	 30	 51	  0	
17-Apr-2013	sub2315	2315	  2	  1	 15	  1	  1	  3	  1	  5	  0	  2	  1	0.52534	  0	0.90000	  0	 13	 44	 39	  0	
17-Apr-2013	sub2315	2315	  2	  1	 16	  1	  1	  6	  5	  6	  1	  2	  1	0.42613	  1	0.90000	  0	 16	 35	 36	  1	
17-Apr-2013	sub2315	2315	  2	  1	 17	  1	  1	  2	  3	  4	  1	  2	  1	0.56667	  1	0.90000	  0	 12	 30	 31	  0	
17-Apr-2013	sub2315	2315	  2	  1	 18	  1	  1	  5	  6	  2	  0	  2	  1	0.82931	  0	0.90000	  0	 15	 47	 38	  0	
17-Apr-2013	sub2315	2315	  2	  1	 19	  1	  1	  1	  4	  4	  1	  1	  1	0.57478	  1	0.90000	  0	 11	 30	 31	  0	
17-Apr-2013	sub2315	2315	  2	  1	 20	  1	  1	  6	  5	  6	  0	  2	  0	0.89666	  1	0.90000	  0	 16	 37	 48	  0	
17-Apr-2013	sub2315	2315	  2	  1	 21	  1	  1	  6	  5	  6	  1	  2	  1	0.37694	  1	0.90000	  0	 16	 35	 36	  1	
17-Apr-2013	sub2315	2315	  2	  1	 22	  1	  1	  6	  5	  6	  0	  2	  0	0.92098	  1	0.90000	  1	 16	 37	 51	  0	
17-Apr-2013	sub2315	2315	  2	  1	 23	  1	  1	  1	  4	  4	  1	  2	  0	0.38604	  0	0.90000	  0	 11	 40	 41	  1	
17-Apr-2013	sub2315	2315	  2	  1	 24	  1	  1	  6	  5	  6	  1	  1	  0	0.63759	  0	0.90000	  0	 16	 45	 46	  0	
17-Apr-2013	sub2315	2315	  2	  1	 25	  1	  1	  2	  3	  4	  1	  2	  1	0.49182	  1	0.90000	  0	 12	 30	 31	  1	
17-Apr-2013	sub2315	2315	  2	  1	 26	  1	  1	  3	  1	  5	  0	  2	  1	0.51628	  0	0.90000	  0	 13	 44	 39	  0	
17-Apr-2013	sub2315	2315	  2	  1	 27	  1	  1	  4	  2	  1	  1	  2	  1	0.61574	  1	0.90000	  0	 14	 32	 33	  0	
17-Apr-2013	sub2315	2315	  2	  1	 28	  1	  1	  3	  1	  5	  1	  2	  0	0.91215	  0	0.90000	  1	 13	 42	 51	  0	
17-Apr-2013	sub2315	2315	  2	  1	 29	  1	  1	  3	  1	  5	  1	  2	  0	0.38025	  0	0.90000	  0	 13	 42	 43	  1	
17-Apr-2013	sub2315	2315	  2	  1	 30	  1	  1	  3	  1	  5	  1	  1	  1	0.47592	  1	0.90000	  0	 13	 32	 33	  1	
17-Apr-2013	sub2315	2315	  2	  1	 31	  1	  1	  4	  2	  1	  1	  2	  1	0.90240	  1	0.90000	  1	 14	 32	 51	  0	
17-Apr-2013	sub2315	2315	  2	  1	 32	  1	  1	  3	  1	  5	  0	  1	  0	0.45138	  1	0.90000	  0	 13	 34	 49	  1	
17-Apr-2013	sub2315	2315	  2	  1	 33	  1	  1	  3	  1	  5	  1	  2	  0	0.39253	  0	0.90000	  0	 13	 42	 43	  1	
17-Apr-2013	sub2315	2315	  2	  1	 34	  1	  1	  6	  5	  6	  0	  2	  0	0.37682	  1	0.90000	  0	 16	 37	 48	  1	
17-Apr-2013	sub2315	2315	  2	  1	 35	  1	  1	  6	  5	  6	  0	  1	  1	0.32741	  0	0.90000	  0	 16	 47	 38	  1	
17-Apr-2013	sub2315	2315	  2	  1	 36	  1	  1	  5	  6	  2	  0	  1	  0	0.66828	  1	0.90000	  0	 15	 37	 48	  0	
17-Apr-2013	sub2315	2315	  2	  1	 37	  1	  1	  4	  2	  1	  1	  2	  1	0.38063	  1	0.90000	  0	 14	 32	 33	  1	
17-Apr-2013	sub2315	2315	  2	  1	 38	  1	  1	  4	  2	  1	  1	  2	  1	0.45732	  1	0.90000	  0	 14	 32	 33	  1	
17-Apr-2013	sub2315	2315	  2	  1	 39	  1	  1	  1	  4	  4	  1	  1	  1	0.73793	  1	0.90000	  0	 11	 30	 31	  0	
17-Apr-2013	sub2315	2315	  2	  1	 40	  1	  1	  5	  6	  2	  0	  1	  0	0.52971	  1	0.90000	  0	 15	 37	 48	  0	
17-Apr-2013	sub2315	2315	  2	  1	 41	  1	  1	  5	  6	  2	  1	  2	  0	0.47645	  0	0.90000	  0	 15	 45	 46	  1	
17-Apr-2013	sub2315	2315	  2	  1	 42	  1	  1	  3	  1	  5	  1	  2	  0	0.45764	  0	0.90000	  0	 13	 42	 43	  1	
17-Apr-2013	sub2315	2315	  2	  1	 43	  1	  1	  1	  4	  4	  1	  1	  1	0.52431	  1	0.90000	  0	 11	 30	 31	  0	
17-Apr-2013	sub2315	2315	  2	  1	 44	  1	  1	  3	  1	  5	  1	  1	  1	0.67005	  1	0.90000	  0	 13	 32	 33	  0	
17-Apr-2013	sub2315	2315	  2	  1	 45	  1	  1	  1	  4	  4	  1	  2	  0	0.81820	  0	0.90000	  0	 11	 40	 41	  0	
17-Apr-2013	sub2315	2315	  2	  1	 46	  1	  1	  4	  2	  1	  1	  1	  0	0.87471	  0	0.90000	  0	 14	 42	 43	  0	
17-Apr-2013	sub2315	2315	  2	  1	 47	  1	  1	  2	  3	  4	  1	  1	  0	0.69322	  0	0.90000	  0	 12	 40	 41	  0	
17-Apr-2013	sub2315	2315	  2	  1	 48	  1	  1	  2	  3	  4	  1	  2	  1	0.35411	  1	0.90000	  0	 12	 30	 31	  1	
17-Apr-2013	sub2315	2315	  2	  1	 49	  1	  1	  1	  4	  4	  1	  2	  0	0.48179	  0	0.90000	  0	 11	 40	 41	  1	
17-Apr-2013	sub2315	2315	  2	  1	 50	  1	  1	  6	  5	  6	  0	  2	  0	0.70419	  1	0.90000	  0	 16	 37	 48	  0	
17-Apr-2013	sub2315	2315	  2	  1	 51	  1	  1	  4	  2	  1	  0	  1	  1	0.41342	  0	0.90000	  0	 14	 44	 39	  1	
17-Apr-2013	sub2315	2315	  2	  1	 52	  1	  1	  2	  3	  4	  1	  1	  0	0.62596	  0	0.90000	  0	 12	 40	 41	  0	
17-Apr-2013	sub2315	2315	  2	  1	 53	  1	  1	  6	  5	  6	  0	  2	  0	0.52284	  1	0.90000	  0	 16	 37	 48	  0	
17-Apr-2013	sub2315	2315	  2	  1	 54	  1	  1	  1	  4	  4	  1	  1	  1	0.43009	  1	0.90000	  0	 11	 30	 31	  1	
17-Apr-2013	sub2315	2315	  2	  1	 55	  1	  1	  5	  6	  2	  0	  1	  0	0.49118	  1	0.90000	  0	 15	 37	 48	  1	
17-Apr-2013	sub2315	2315	  2	  1	 56	  1	  1	  5	  6	  2	  1	  2	  0	0.45809	  0	0.90000	  0	 15	 45	 46	  1	
17-Apr-2013	sub2315	2315	  2	  1	 57	  1	  1	  1	  4	  4	  1	  1	  1	0.34476	  1	0.90000	  0	 11	 30	 31	  1	
17-Apr-2013	sub2315	2315	  2	  1	 58	  1	  1	  5	  6	  2	  1	  1	  1	0.54577	  1	0.90000	  0	 15	 35	 36	  0	
17-Apr-2013	sub2315	2315	  2	  1	 59	  1	  1	  2	  3	  4	  1	  1	  0	0.47984	  0	0.90000	  0	 12	 40	 41	  1	
17-Apr-2013	sub2315	2315	  2	  1	 60	  1	  1	  3	  1	  5	  1	  2	  0	0.39661	  0	0.90000	  0	 13	 42	 43	  1	
17-Apr-2013	sub2315	2315	  2	  1	 61	  1	  1	  4	  2	  1	  1	  1	  0	0.67874	  0	0.90000	  0	 14	 42	 43	  0	
17-Apr-2013	sub2315	2315	  2	  1	 62	  1	  1	  3	  1	  5	  1	  1	  1	0.45815	  1	0.90000	  0	 13	 32	 33	  1	
17-Apr-2013	sub2315	2315	  2	  1	 63	  1	  1	  2	  3	  4	  1	  1	  0	0.44739	  0	0.90000	  0	 12	 40	 41	  1	
17-Apr-2013	sub2315	2315	  2	  1	 64	  1	  1	  4	  2	  1	  1	  2	  1	0.33577	  1	0.90000	  0	 14	 32	 33	  1	
17-Apr-2013	sub2315	2315	  2	  1	 65	  1	  1	  2	  3	  4	  1	  2	  1	0.46137	  1	0.90000	  0	 12	 30	 31	  1	
17-Apr-2013	sub2315	2315	  2	  1	 66	  1	  1	  1	  4	  4	  1	  2	  0	0.48505	  0	0.90000	  0	 11	 40	 41	  1	
17-Apr-2013	sub2315	2315	  2	  1	 67	  1	  1	  4	  2	  1	  0	  1	  1	0.47435	  0	0.90000	  0	 14	 44	 39	  1	
17-Apr-2013	sub2315	2315	  2	  1	 68	  1	  1	  5	  6	  2	  1	  1	  1	0.53012	  1	0.90000	  0	 15	 35	 36	  0	
17-Apr-2013	sub2315	2315	  2	  1	 69	  1	  1	  4	  2	  1	  1	  1	  0	0.51702	  0	0.90000	  0	 14	 42	 43	  0	
17-Apr-2013	sub2315	2315	  2	  1	 70	  1	  1	  1	  4	  4	  1	  2	  0	0.54569	  0	0.90000	  0	 11	 40	 41	  0	
17-Apr-2013	sub2315	2315	  2	  1	 71	  1	  1	  2	  3	  4	  1	  1	  0	0.51950	  0	0.90000	  0	 12	 40	 41	  0	
17-Apr-2013	sub2315	2315	  2	  1	 72	  1	  1	  3	  1	  5	  1	  1	  1	0.55188	  1	0.90000	  0	 13	 32	 33	  0	
17-Apr-2013	sub2315	2315	  2	  1	 73	  1	  1	  1	  4	  4	  1	  2	  0	0.41261	  0	0.90000	  0	 11	 40	 41	  1	
17-Apr-2013	sub2315	2315	  2	  1	 74	  1	  1	  4	  2	  1	  1	  2	  1	0.50283	  1	0.90000	  0	 14	 32	 33	  0	
17-Apr-2013	sub2315	2315	  2	  1	 75	  1	  1	  6	  5	  6	  0	  1	  1	0.52943	  0	0.90000	  0	 16	 47	 38	  0	
17-Apr-2013	sub2315	2315	  2	  1	  1	  2	  1	  6	  1	  3	  1	  2	  1	0.82672	  1	0.60000	  1	 16	 35	 51	  0	
17-Apr-2013	sub2315	2315	  2	  1	  2	  2	  1	  4	  2	  6	  1	  2	  1	0.34126	  1	0.90000	  0	 14	 32	 33	  1	
17-Apr-2013	sub2315	2315	  2	  1	  3	  2	  1	  3	  4	  6	  1	  2	  0	0.33212	  0	0.90000	  0	 13	 42	 43	  1	
17-Apr-2013	sub2315	2315	  2	  1	  4	  2	  1	  2	  3	  6	  1	  2	  1	0.55449	  1	0.90000	  0	 12	 30	 31	  0	
17-Apr-2013	sub2315	2315	  2	  1	  5	  2	  1	  1	  5	  3	  1	  2	  0	0.41923	  0	0.90000	  0	 11	 40	 41	  1	
17-Apr-2013	sub2315	2315	  2	  1	  6	  2	  1	  5	  6	  5	  0	  2	  1	0.37921	  0	0.90000	  0	 15	 47	 38	  1	
17-Apr-2013	sub2315	2315	  2	  1	  7	  2	  1	  6	  1	  3	  0	  2	  0	0.47406	  1	0.90000	  0	 16	 37	 48	  1	
17-Apr-2013	sub2315	2315	  2	  1	  8	  2	  1	  5	  6	  5	  1	  2	  0	0.46643	  0	0.90000	  0	 15	 45	 46	  1	
17-Apr-2013	sub2315	2315	  2	  1	  9	  2	  1	  6	  1	  3	  0	  1	  1	0.38972	  0	0.90000	  0	 16	 47	 38	  1	
17-Apr-2013	sub2315	2315	  2	  1	 10	  2	  1	  2	  3	  6	  1	  1	  0	0.48763	  0	0.90000	  0	 12	 40	 41	  1	
17-Apr-2013	sub2315	2315	  2	  1	 11	  2	  1	  3	  4	  6	  1	  1	  1	0.50376	  1	0.90000	  0	 13	 32	 33	  0	
17-Apr-2013	sub2315	2315	  2	  1	 12	  2	  1	  5	  6	  5	  0	  1	  0	0.44821	  1	0.90000	  0	 15	 37	 48	  1	
17-Apr-2013	sub2315	2315	  2	  1	 13	  2	  1	  6	  1	  3	  0	  2	  0	0.48994	  1	0.90000	  0	 16	 37	 48	  1	
17-Apr-2013	sub2315	2315	  2	  1	 14	  2	  1	  3	  4	  6	  1	  1	  1	0.38412	  1	0.90000	  0	 13	 32	 33	  1	
17-Apr-2013	sub2315	2315	  2	  1	 15	  2	  1	  3	  4	  6	  1	  1	  1	0.55236	  1	0.90000	  0	 13	 32	 33	  0	
17-Apr-2013	sub2315	2315	  2	  1	 16	  2	  1	  4	  2	  6	  1	  1	  0	0.65797	  0	0.80000	  0	 14	 42	 43	  0	
17-Apr-2013	sub2315	2315	  2	  1	 17	  2	  1	  1	  5	  3	  1	  2	  0	0.67501	  0	0.80000	  0	 11	 40	 41	  0	
17-Apr-2013	sub2315	2315	  2	  1	 18	  2	  1	  2	  3	  6	  1	  1	  0	0.46266	  0	0.70000	  0	 12	 40	 41	  1	
17-Apr-2013	sub2315	2315	  2	  1	 19	  2	  1	  2	  3	  6	  1	  2	  1	0.62040	  1	0.70000	  0	 12	 30	 31	  0	
17-Apr-2013	sub2315	2315	  2	  1	 20	  2	  1	  2	  3	  6	  1	  2	  1	0.41558	  1	0.70000	  0	 12	 30	 31	  1	
17-Apr-2013	sub2315	2315	  2	  1	 21	  2	  1	  2	  3	  6	  1	  2	  1	0.40866	  1	0.60000	  0	 12	 30	 31	  1	
17-Apr-2013	sub2315	2315	  2	  1	 22	  2	  1	  6	  1	  3	  1	  2	  1	0.62183	  1	0.60000	  1	 16	 35	 51	  0	
17-Apr-2013	sub2315	2315	  2	  1	 23	  2	  1	  3	  4	  6	  1	  2	  0	0.58940	  0	0.90000	  0	 13	 42	 43	  0	
17-Apr-2013	sub2315	2315	  2	  1	 24	  2	  1	  5	  6	  5	  0	  2	  1	0.72726	  0	0.90000	  0	 15	 47	 38	  0	
17-Apr-2013	sub2315	2315	  2	  1	 25	  2	  1	  5	  6	  5	  1	  2	  0	0.47027	  0	0.90000	  0	 15	 45	 46	  1	
17-Apr-2013	sub2315	2315	  2	  1	 26	  2	  1	  3	  4	  6	  0	  2	  1	0.50433	  0	0.90000	  0	 13	 44	 39	  0	
17-Apr-2013	sub2315	2315	  2	  1	 27	  2	  1	  2	  3	  6	  1	  2	  1	0.62003	  1	0.90000	  0	 12	 30	 31	  0	
17-Apr-2013	sub2315	2315	  2	  1	 28	  2	  1	  4	  2	  6	  1	  2	  1	0.59954	  1	0.90000	  0	 14	 32	 33	  0	
17-Apr-2013	sub2315	2315	  2	  1	 29	  2	  1	  3	  4	  6	  1	  2	  0	0.85382	  0	0.90000	  0	 13	 42	 43	  0	
17-Apr-2013	sub2315	2315	  2	  1	 30	  2	  1	  1	  5	  3	  1	  2	  0	0.50183	  0	0.80000	  0	 11	 40	 41	  0	
17-Apr-2013	sub2315	2315	  2	  1	 31	  2	  1	  4	  2	  6	  1	  2	  1	0.53958	  1	0.80000	  0	 14	 32	 33	  0	
17-Apr-2013	sub2315	2315	  2	  1	 32	  2	  1	  5	  6	  5	  1	  2	  0	0.58621	  0	0.80000	  0	 15	 45	 46	  0	
17-Apr-2013	sub2315	2315	  2	  1	 33	  2	  1	  1	  5	  3	  1	  2	  0	0.63721	  0	0.80000	  0	 11	 40	 41	  0	
17-Apr-2013	sub2315	2315	  2	  1	 34	  2	  1	  4	  2	  6	  1	  2	  1	0.56335	  1	0.80000	  0	 14	 32	 33	  0	
17-Apr-2013	sub2315	2315	  2	  1	 35	  2	  1	  5	  6	  5	  0	  1	  0	0.64789	  1	0.70000	  0	 15	 37	 48	  0	
17-Apr-2013	sub2315	2315	  2	  1	 36	  2	  1	  1	  5	  3	  1	  1	  1	0.67621	  1	0.70000	  0	 11	 30	 31	  0	
17-Apr-2013	sub2315	2315	  2	  1	 37	  2	  1	  1	  5	  3	  1	  1	  1	0.84106	  1	0.70000	  1	 11	 30	 51	  0	
17-Apr-2013	sub2315	2315	  2	  1	 38	  2	  1	  2	  3	  6	  1	  2	  1	0.54211	  1	0.90000	  0	 12	 30	 31	  0	
17-Apr-2013	sub2315	2315	  2	  1	 39	  2	  1	  4	  2	  6	  1	  2	  1	0.57739	  1	0.90000	  0	 14	 32	 33	  0	
17-Apr-2013	sub2315	2315	  2	  1	 40	  2	  1	  6	  1	  3	  0	  2	  0	0.61337	  1	0.90000	  0	 16	 37	 48	  0	
17-Apr-2013	sub2315	2315	  2	  1	 41	  2	  1	  5	  6	  5	  0	  2	  1	0.45535	  0	0.90000	  0	 15	 47	 38	  1	
17-Apr-2013	sub2315	2315	  2	  1	 42	  2	  1	  6	  1	  3	  1	  1	  0	0.35061	  0	0.90000	  0	 16	 45	 46	  1	
17-Apr-2013	sub2315	2315	  2	  1	 43	  2	  1	  4	  2	  6	  1	  2	  1	0.49662	  1	0.90000	  0	 14	 32	 33	  1	
17-Apr-2013	sub2315	2315	  2	  1	 44	  2	  1	  5	  6	  5	  1	  2	  0	0.71220	  0	0.80000	  0	 15	 45	 46	  0	
17-Apr-2013	sub2315	2315	  2	  1	 45	  2	  1	  6	  1	  3	  1	  2	  1	0.43380	  1	0.80000	  0	 16	 35	 36	  1	
17-Apr-2013	sub2315	2315	  2	  1	 46	  2	  1	  3	  4	  6	  0	  1	  0	0.60595	  1	0.80000	  0	 13	 34	 49	  0	
17-Apr-2013	sub2315	2315	  2	  1	 47	  2	  1	  2	  3	  6	  1	  2	  1	0.39378	  1	0.80000	  0	 12	 30	 31	  1	
17-Apr-2013	sub2315	2315	  2	  1	 48	  2	  1	  6	  1	  3	  1	  2	  1	0.51559	  1	0.80000	  0	 16	 35	 36	  0	
17-Apr-2013	sub2315	2315	  2	  1	 49	  2	  1	  3	  4	  6	  1	  1	  1	0.65053	  1	0.80000	  0	 13	 32	 33	  0	
17-Apr-2013	sub2315	2315	  2	  1	 50	  2	  1	  4	  2	  6	  0	  2	  0	0.45992	  1	0.80000	  0	 14	 34	 49	  1	
17-Apr-2013	sub2315	2315	  2	  1	 51	  2	  1	  5	  6	  5	  1	  2	  0	0.51736	  0	0.70000	  0	 15	 45	 46	  0	
17-Apr-2013	sub2315	2315	  2	  1	 52	  2	  1	  1	  5	  3	  1	  1	  1	0.49652	  1	0.70000	  0	 11	 30	 31	  1	
17-Apr-2013	sub2315	2315	  2	  1	 53	  2	  1	  1	  5	  3	  1	  1	  1	0.52002	  1	0.70000	  0	 11	 30	 31	  0	
17-Apr-2013	sub2315	2315	  2	  1	 54	  2	  1	  6	  1	  3	  1	  2	  1	0.49885	  1	0.70000	  0	 16	 35	 36	  1	
17-Apr-2013	sub2315	2315	  2	  1	 55	  2	  1	  4	  2	  6	  1	  2	  1	0.47141	  1	0.70000	  0	 14	 32	 33	  1	
17-Apr-2013	sub2315	2315	  2	  1	 56	  2	  1	  2	  3	  6	  1	  2	  1	0.44120	  1	0.70000	  0	 12	 30	 31	  1	
17-Apr-2013	sub2315	2315	  2	  1	 57	  2	  1	  3	  4	  6	  1	  1	  1	0.55198	  1	0.70000	  0	 13	 32	 33	  0	
17-Apr-2013	sub2315	2315	  2	  1	 58	  2	  1	  1	  5	  3	  1	  1	  1	0.46175	  1	0.70000	  0	 11	 30	 31	  1	
17-Apr-2013	sub2315	2315	  2	  1	 59	  2	  1	  3	  4	  6	  0	  1	  0	0.46388	  1	0.70000	  0	 13	 34	 49	  1	
17-Apr-2013	sub2315	2315	  2	  1	 60	  2	  1	  2	  3	  6	  1	  2	  1	0.37437	  1	0.70000	  0	 12	 30	 31	  1	
17-Apr-2013	sub2315	2315	  2	  1	 61	  2	  1	  5	  6	  5	  1	  2	  0	0.42587	  0	0.60000	  0	 15	 45	 46	  1	
17-Apr-2013	sub2315	2315	  2	  1	 62	  2	  1	  2	  3	  6	  1	  2	  1	0.51372	  1	0.60000	  0	 12	 30	 31	  0	
17-Apr-2013	sub2315	2315	  2	  1	 63	  2	  1	  4	  2	  6	  1	  2	  1	0.46029	  1	0.60000	  0	 14	 32	 33	  1	
17-Apr-2013	sub2315	2315	  2	  1	 64	  2	  1	  3	  4	  6	  1	  1	  1	0.45739	  1	0.60000	  0	 13	 32	 33	  1	
17-Apr-2013	sub2315	2315	  2	  1	 65	  2	  1	  4	  2	  6	  1	  2	  1	0.48511	  1	0.60000	  0	 14	 32	 33	  1	
17-Apr-2013	sub2315	2315	  2	  1	 66	  2	  1	  6	  1	  3	  0	  1	  1	0.59040	  0	0.60000	  0	 16	 47	 38	  0	
17-Apr-2013	sub2315	2315	  2	  1	 67	  2	  1	  3	  4	  6	  1	  1	  1	0.48120	  1	0.60000	  0	 13	 32	 33	  1	
17-Apr-2013	sub2315	2315	  2	  1	 68	  2	  1	  1	  5	  3	  1	  2	  0	0.43912	  0	0.60000	  0	 11	 40	 41	  1	
17-Apr-2013	sub2315	2315	  2	  1	 69	  2	  1	  6	  1	  3	  0	  1	  1	0.45444	  0	0.60000	  0	 16	 47	 38	  1	
17-Apr-2013	sub2315	2315	  2	  1	 70	  2	  1	  5	  6	  5	  0	  2	  1	0.61846	  0	0.60000	  1	 15	 47	 51	  0	
17-Apr-2013	sub2315	2315	  2	  1	 71	  2	  1	  4	  2	  6	  0	  2	  0	0.45572	  1	0.70000	  0	 14	 34	 49	  1	
17-Apr-2013	sub2315	2315	  2	  1	 72	  2	  1	  6	  1	  3	  0	  2	  0	0.63549	  1	0.70000	  0	 16	 37	 48	  0	
17-Apr-2013	sub2315	2315	  2	  1	 73	  2	  1	  1	  5	  3	  1	  1	  1	0.42334	  1	0.70000	  0	 11	 30	 31	  1	
17-Apr-2013	sub2315	2315	  2	  1	 74	  2	  1	  1	  5	  3	  1	  1	  1	0.58168	  1	0.70000	  0	 11	 30	 31	  0	
17-Apr-2013	sub2315	2315	  2	  1	 75	  2	  1	  2	  3	  6	  1	  2	  1	0.48577	  1	0.70000	  0	 12	 30	 31	  1	
17-Apr-2013	sub2315	2315	  2	  1	 76	  2	  2	  5	  6	  5	  0	  2	  1	0.52885	  0	0.70000	  0	 25	 87	 68	  0	
17-Apr-2013	sub2315	2315	  2	  1	 77	  2	  2	  6	  1	  3	  0	  1	  1	0.44156	  0	0.70000	  0	 26	 87	 68	  1	
17-Apr-2013	sub2315	2315	  2	  1	 78	  2	  2	  3	  4	  6	  1	  1	  1	0.41679	  1	0.70000	  0	 23	 62	 63	  1	
17-Apr-2013	sub2315	2315	  2	  1	 79	  2	  2	  1	  5	  3	  1	  1	  1	0.46401	  1	0.70000	  0	 21	 60	 61	  1	
17-Apr-2013	sub2315	2315	  2	  1	 80	  2	  2	  2	  3	  6	  1	  2	  1	0.43122	  1	0.70000	  0	 22	 60	 61	  1	
17-Apr-2013	sub2315	2315	  2	  1	 81	  2	  2	  6	  1	  3	  1	  1	  0	0.44897	  0	0.60000	  0	 26	 85	 86	  1	
17-Apr-2013	sub2315	2315	  2	  1	 82	  2	  2	  3	  4	  6	  1	  1	  1	0.46276	  1	0.60000	  0	 23	 62	 63	  1	
17-Apr-2013	sub2315	2315	  2	  1	 83	  2	  2	  1	  5	  3	  1	  1	  1	0.59446	  1	0.60000	  0	 21	 60	 61	  0	
17-Apr-2013	sub2315	2315	  2	  1	 84	  2	  2	  4	  2	  6	  1	  1	  0	0.58150	  0	0.60000	  0	 24	 82	 83	  0	
17-Apr-2013	sub2315	2315	  2	  1	 85	  2	  2	  6	  1	  3	  1	  1	  0	0.47981	  0	0.60000	  0	 26	 85	 86	  1	
17-Apr-2013	sub2315	2315	  2	  1	 86	  2	  2	  3	  4	  6	  1	  1	  1	0.36021	  1	0.60000	  0	 23	 62	 63	  1	
17-Apr-2013	sub2315	2315	  2	  1	 87	  2	  2	  1	  5	  3	  1	  1	  1	0.50778	  1	0.60000	  0	 21	 60	 61	  0	
17-Apr-2013	sub2315	2315	  2	  1	 88	  2	  2	  3	  4	  6	  0	  1	  0	0.44426	  1	0.60000	  0	 23	 64	 89	  1	
17-Apr-2013	sub2315	2315	  2	  1	 89	  2	  2	  4	  2	  6	  1	  2	  1	0.49447	  1	0.60000	  0	 24	 62	 63	  1	
17-Apr-2013	sub2315	2315	  2	  1	 90	  2	  2	  5	  6	  5	  0	  2	  1	0.55554	  0	0.60000	  0	 25	 87	 68	  0	
17-Apr-2013	sub2315	2315	  2	  1	 91	  2	  2	  5	  6	  5	  0	  2	  1	0.43507	  0	0.60000	  0	 25	 87	 68	  1	
17-Apr-2013	sub2315	2315	  2	  1	 92	  2	  2	  6	  1	  3	  0	  1	  1	0.39121	  0	0.60000	  0	 26	 87	 68	  1	
17-Apr-2013	sub2315	2315	  2	  1	 93	  2	  2	  4	  2	  6	  1	  1	  0	0.44424	  0	0.60000	  0	 24	 82	 83	  1	
17-Apr-2013	sub2315	2315	  2	  1	 94	  2	  2	  5	  6	  5	  0	  1	  0	0.31194	  1	0.60000	  0	 25	 67	 88	  1	
17-Apr-2013	sub2315	2315	  2	  1	 95	  2	  2	  5	  6	  5	  0	  2	  1	0.40219	  0	0.60000	  0	 25	 87	 68	  1	
17-Apr-2013	sub2315	2315	  2	  1	 96	  2	  2	  4	  2	  6	  1	  2	  1	0.43046	  1	0.60000	  0	 24	 62	 63	  1	
17-Apr-2013	sub2315	2315	  2	  1	 97	  2	  2	  2	  3	  6	  1	  2	  1	0.46960	  1	0.60000	  0	 22	 60	 61	  1	
17-Apr-2013	sub2315	2315	  2	  1	 98	  2	  2	  3	  4	  6	  1	  1	  1	0.37089	  1	0.60000	  0	 23	 62	 63	  1	
17-Apr-2013	sub2315	2315	  2	  1	 99	  2	  2	  1	  5	  3	  1	  1	  1	0.34737	  1	0.60000	  0	 21	 60	 61	  1	
17-Apr-2013	sub2315	2315	  2	  1	100	  2	  2	  5	  6	  5	  0	  1	  0	0.42715	  1	0.60000	  0	 25	 67	 88	  1	
17-Apr-2013	sub2315	2315	  2	  1	101	  2	  2	  4	  2	  6	  1	  2	  1	0.47254	  1	0.50000	  0	 24	 62	 63	  1	
17-Apr-2013	sub2315	2315	  2	  1	102	  2	  2	  2	  3	  6	  1	  2	  1	0.36967	  1	0.50000	  0	 22	 60	 61	  1	
17-Apr-2013	sub2315	2315	  2	  1	103	  2	  2	  3	  4	  6	  1	  1	  1	0.41590	  1	0.50000	  0	 23	 62	 63	  1	
17-Apr-2013	sub2315	2315	  2	  1	104	  2	  2	  6	  1	  3	  1	  1	  0	0.47418	  0	0.50000	  0	 26	 85	 86	  1	
17-Apr-2013	sub2315	2315	  2	  1	105	  2	  2	  2	  3	  6	  1	  2	  1	0.52584	  1	0.50000	  1	 22	 60	 51	  0	
17-Apr-2013	sub2315	2315	  2	  1	106	  2	  2	  1	  5	  3	  1	  1	  1	0.45002	  1	0.60000	  0	 21	 60	 61	  1	
17-Apr-2013	sub2315	2315	  2	  1	107	  2	  2	  5	  6	  5	  0	  1	  0	0.45850	  1	0.60000	  0	 25	 67	 88	  1	
17-Apr-2013	sub2315	2315	  2	  1	108	  2	  2	  4	  2	  6	  0	  2	  0	0.42877	  1	0.60000	  0	 24	 64	 89	  1	
17-Apr-2013	sub2315	2315	  2	  1	109	  2	  2	  5	  6	  5	  0	  1	  0	0.38541	  1	0.60000	  0	 25	 67	 88	  1	
17-Apr-2013	sub2315	2315	  2	  1	110	  2	  2	  6	  1	  3	  1	  2	  1	0.38516	  1	0.60000	  0	 26	 65	 66	  1	
17-Apr-2013	sub2315	2315	  2	  1	111	  2	  2	  2	  3	  6	  1	  2	  1	0.40134	  1	0.60000	  0	 22	 60	 61	  1	
17-Apr-2013	sub2315	2315	  2	  1	112	  2	  2	  3	  4	  6	  1	  2	  0	0.39945	  0	0.60000	  0	 23	 82	 83	  1	
17-Apr-2013	sub2315	2315	  2	  1	113	  2	  2	  1	  5	  3	  1	  1	  1	0.50145	  1	0.60000	  0	 21	 60	 61	  0	
17-Apr-2013	sub2315	2315	  2	  1	114	  2	  2	  1	  5	  3	  1	  1	  1	0.42978	  1	0.60000	  0	 21	 60	 61	  1	
17-Apr-2013	sub2315	2315	  2	  1	115	  2	  2	  5	  6	  5	  0	  2	  1	0.51574	  0	0.60000	  0	 25	 87	 68	  0	
17-Apr-2013	sub2315	2315	  2	  1	116	  2	  2	  2	  3	  6	  1	  2	  1	0.46868	  1	0.60000	  0	 22	 60	 61	  1	
17-Apr-2013	sub2315	2315	  2	  1	117	  2	  2	  6	  1	  3	  0	  1	  1	0.64660	  0	0.60000	  1	 26	 87	 51	  0	
17-Apr-2013	sub2315	2315	  2	  1	118	  2	  2	  1	  5	  3	  1	  2	  0	0.37732	  0	0.70000	  0	 21	 80	 81	  1	
17-Apr-2013	sub2315	2315	  2	  1	119	  2	  2	  6	  1	  3	  0	  1	  1	0.52145	  0	0.70000	  0	 26	 87	 68	  0	
17-Apr-2013	sub2315	2315	  2	  1	120	  2	  2	  5	  6	  5	  0	  2	  1	0.36882	  0	0.70000	  0	 25	 87	 68	  1	
17-Apr-2013	sub2315	2315	  2	  1	121	  2	  2	  2	  3	  6	  1	  2	  1	0.45916	  1	0.60000	  0	 22	 60	 61	  1	
17-Apr-2013	sub2315	2315	  2	  1	122	  2	  2	  3	  4	  6	  1	  1	  1	0.54541	  1	0.60000	  0	 23	 62	 63	  0	
17-Apr-2013	sub2315	2315	  2	  1	123	  2	  2	  2	  3	  6	  1	  2	  1	0.42519	  1	0.60000	  0	 22	 60	 61	  1	
17-Apr-2013	sub2315	2315	  2	  1	124	  2	  2	  2	  3	  6	  1	  2	  1	0.43011	  1	0.60000	  0	 22	 60	 61	  1	
17-Apr-2013	sub2315	2315	  2	  1	125	  2	  2	  3	  4	  6	  1	  1	  1	0.46952	  1	0.60000	  0	 23	 62	 63	  1	
17-Apr-2013	sub2315	2315	  2	  1	126	  2	  2	  6	  1	  3	  0	  2	  0	0.38641	  1	0.60000	  0	 26	 67	 88	  1	
17-Apr-2013	sub2315	2315	  2	  1	127	  2	  2	  4	  2	  6	  1	  2	  1	0.44275	  1	0.60000	  0	 24	 62	 63	  1	
17-Apr-2013	sub2315	2315	  2	  1	128	  2	  2	  6	  1	  3	  0	  2	  0	0.57643	  1	0.60000	  0	 26	 67	 88	  0	
17-Apr-2013	sub2315	2315	  2	  1	129	  2	  2	  3	  4	  6	  0	  1	  0	0.44974	  1	0.60000	  0	 23	 64	 89	  1	
17-Apr-2013	sub2315	2315	  2	  1	130	  2	  2	  4	  2	  6	  1	  2	  1	0.48321	  1	0.60000	  0	 24	 62	 63	  1	
17-Apr-2013	sub2315	2315	  2	  1	131	  2	  2	  3	  4	  6	  1	  1	  1	0.48498	  1	0.60000	  0	 23	 62	 63	  1	
17-Apr-2013	sub2315	2315	  2	  1	132	  2	  2	  1	  5	  3	  1	  1	  1	0.48551	  1	0.60000	  0	 21	 60	 61	  1	
17-Apr-2013	sub2315	2315	  2	  1	133	  2	  2	  1	  5	  3	  1	  1	  1	0.41144	  1	0.60000	  0	 21	 60	 61	  1	
17-Apr-2013	sub2315	2315	  2	  1	134	  2	  2	  4	  2	  6	  1	  2	  1	0.41289	  1	0.60000	  0	 24	 62	 63	  1	
17-Apr-2013	sub2315	2315	  2	  1	135	  2	  2	  1	  5	  3	  1	  1	  1	0.46125	  1	0.60000	  0	 21	 60	 61	  1	
17-Apr-2013	sub2315	2315	  2	  1	136	  2	  2	  4	  2	  6	  0	  2	  0	0.55256	  1	0.60000	  0	 24	 64	 89	  0	
17-Apr-2013	sub2315	2315	  2	  1	137	  2	  2	  4	  2	  6	  1	  2	  1	0.45420	  1	0.60000	  0	 24	 62	 63	  1	
17-Apr-2013	sub2315	2315	  2	  1	138	  2	  2	  2	  3	  6	  1	  2	  1	0.45273	  1	0.60000	  0	 22	 60	 61	  1	
17-Apr-2013	sub2315	2315	  2	  1	139	  2	  2	  1	  5	  3	  1	  1	  1	0.41733	  1	0.60000	  0	 21	 60	 61	  1	
17-Apr-2013	sub2315	2315	  2	  1	140	  2	  2	  5	  6	  5	  0	  1	  0	0.44799	  1	0.60000	  0	 25	 67	 88	  1	
17-Apr-2013	sub2315	2315	  2	  1	141	  2	  2	  6	  1	  3	  1	  1	  0	0.39293	  0	0.60000	  0	 26	 85	 86	  1	
17-Apr-2013	sub2315	2315	  2	  1	142	  2	  2	  5	  6	  5	  0	  2	  1	0.56102	  0	0.60000	  0	 25	 87	 68	  0	
17-Apr-2013	sub2315	2315	  2	  1	143	  2	  2	  3	  4	  6	  1	  1	  1	0.47191	  1	0.60000	  0	 23	 62	 63	  1	
17-Apr-2013	sub2315	2315	  2	  1	144	  2	  2	  4	  2	  6	  0	  2	  0	0.37410	  1	0.60000	  0	 24	 64	 89	  1	
17-Apr-2013	sub2315	2315	  2	  1	145	  2	  2	  6	  1	  3	  1	  1	  0	0.47910	  0	0.60000	  0	 26	 85	 86	  1	
17-Apr-2013	sub2315	2315	  2	  1	146	  2	  2	  2	  3	  6	  1	  2	  1	0.45120	  1	0.60000	  0	 22	 60	 61	  1	
17-Apr-2013	sub2315	2315	  2	  1	147	  2	  2	  4	  2	  6	  1	  2	  1	0.42791	  1	0.60000	  0	 24	 62	 63	  1	
17-Apr-2013	sub2315	2315	  2	  1	148	  2	  2	  5	  6	  5	  0	  2	  1	0.43906	  0	0.60000	  0	 25	 87	 68	  1	
17-Apr-2013	sub2315	2315	  2	  1	149	  2	  2	  2	  3	  6	  1	  1	  0	0.42929	  0	0.60000	  0	 22	 80	 81	  1	
17-Apr-2013	sub2315	2315	  2	  1	150	  2	  2	  1	  5	  3	  1	  1	  1	0.55942	  1	0.60000	  0	 21	 60	 61	  0	
17-Apr-2013	sub2315	2315	  2	  1	  1	  3	  1	  6	  2	  2	  0	  2	  0	0.55625	  1	0.60000	  0	 16	 37	 48	  0	
17-Apr-2013	sub2315	2315	  2	  1	  2	  3	  1	  3	  3	  1	  0	  1	  0	0.60140	  1	0.30000	  1	 13	 34	 51	  0	
17-Apr-2013	sub2315	2315	  2	  1	  3	  3	  1	  3	  3	  1	  1	  1	  1	0.46192	  1	0.90000	  0	 13	 32	 33	  1	
17-Apr-2013	sub2315	2315	  2	  1	  4	  3	  1	  6	  2	  2	  1	  2	  1	0.54803	  1	0.90000	  0	 16	 35	 36	  0	
17-Apr-2013	sub2315	2315	  2	  1	  5	  3	  1	  5	  6	  3	  0	  1	  0	0.50138	  1	0.90000	  0	 15	 37	 48	  0	
17-Apr-2013	sub2315	2315	  2	  1	  6	  3	  1	  6	  2	  2	  1	  2	  1	0.54010	  1	0.90000	  0	 16	 35	 36	  0	
17-Apr-2013	sub2315	2315	  2	  1	  7	  3	  1	  2	  1	  2	  1	  1	  0	0.52941	  0	0.90000	  0	 12	 40	 41	  0	
17-Apr-2013	sub2315	2315	  2	  1	  8	  3	  1	  5	  6	  3	  0	  2	  1	0.41625	  0	0.90000	  0	 15	 47	 38	  1	
17-Apr-2013	sub2315	2315	  2	  1	  9	  3	  1	  4	  5	  5	  1	  2	  1	0.53974	  1	0.90000	  0	 14	 32	 33	  0	
17-Apr-2013	sub2315	2315	  2	  1	 10	  3	  1	  3	  3	  1	  0	  2	  1	0.52056	  0	0.90000	  0	 13	 44	 39	  0	
17-Apr-2013	sub2315	2315	  2	  1	 11	  3	  1	  5	  6	  3	  0	  2	  1	0.43703	  0	0.90000	  0	 15	 47	 38	  1	
17-Apr-2013	sub2315	2315	  2	  1	 12	  3	  1	  1	  4	  1	  1	  2	  0	0.39023	  0	0.90000	  0	 11	 40	 41	  1	
17-Apr-2013	sub2315	2315	  2	  1	 13	  3	  1	  5	  6	  3	  0	  2	  1	0.66024	  0	0.90000	  0	 15	 47	 38	  0	
17-Apr-2013	sub2315	2315	  2	  1	 14	  3	  1	  6	  2	  2	  1	  2	  1	0.56763	  1	0.90000	  0	 16	 35	 36	  0	
17-Apr-2013	sub2315	2315	  2	  1	 15	  3	  1	  2	  1	  2	  1	  2	  1	0.54275	  1	0.90000	  0	 12	 30	 31	  0	
17-Apr-2013	sub2315	2315	  2	  1	 16	  3	  1	  3	  3	  1	  1	  2	  0	0.65011	  0	0.80000	  0	 13	 42	 43	  0	
17-Apr-2013	sub2315	2315	  2	  1	 17	  3	  1	  4	  5	  5	  1	  1	  0	0.75948	  0	0.80000	  0	 14	 42	 43	  0	
17-Apr-2013	sub2315	2315	  2	  1	 18	  3	  1	  3	  3	  1	  1	  1	  1	0.45676	  1	0.70000	  0	 13	 32	 33	  1	
17-Apr-2013	sub2315	2315	  2	  1	 19	  3	  1	  3	  3	  1	  1	  1	  1	0.41447	  1	0.70000	  0	 13	 32	 33	  1	
17-Apr-2013	sub2315	2315	  2	  1	 20	  3	  1	  5	  6	  3	  1	  2	  0	0.63433	  0	0.70000	  0	 15	 45	 46	  0	
17-Apr-2013	sub2315	2315	  2	  1	 21	  3	  1	  1	  4	  1	  1	  2	  0	0.33580	  0	0.60000	  0	 11	 40	 41	  1	
17-Apr-2013	sub2315	2315	  2	  1	 22	  3	  1	  1	  4	  1	  1	  1	  1	0.58114	  1	0.60000	  0	 11	 30	 31	  0	
17-Apr-2013	sub2315	2315	  2	  1	 23	  3	  1	  6	  2	  2	  0	  2	  0	0.48331	  1	0.60000	  0	 16	 37	 48	  1	
17-Apr-2013	sub2315	2315	  2	  1	 24	  3	  1	  1	  4	  1	  1	  2	  0	0.57880	  0	0.60000	  0	 11	 40	 41	  0	
17-Apr-2013	sub2315	2315	  2	  1	 25	  3	  1	  3	  3	  1	  1	  1	  1	0.46915	  1	0.60000	  0	 13	 32	 33	  1	
17-Apr-2013	sub2315	2315	  2	  1	 26	  3	  1	  2	  1	  2	  1	  1	  0	0.80399	  0	0.50000	  1	 12	 40	 51	  0	
17-Apr-2013	sub2315	2315	  2	  1	 27	  3	  1	  6	  2	  2	  0	  2	  0	0.45165	  1	0.90000	  0	 16	 37	 48	  1	
17-Apr-2013	sub2315	2315	  2	  1	 28	  3	  1	  5	  6	  3	  1	  2	  0	0.47766	  0	0.90000	  0	 15	 45	 46	  1	
17-Apr-2013	sub2315	2315	  2	  1	 29	  3	  1	  5	  6	  3	  1	  2	  0	0.44373	  0	0.90000	  0	 15	 45	 46	  1	
17-Apr-2013	sub2315	2315	  2	  1	 30	  3	  1	  6	  2	  2	  1	  2	  1	0.51722	  1	0.80000	  0	 16	 35	 36	  0	
17-Apr-2013	sub2315	2315	  2	  1	 31	  3	  1	  1	  4	  1	  1	  1	  1	0.59149	  1	0.80000	  0	 11	 30	 31	  0	
17-Apr-2013	sub2315	2315	  2	  1	 32	  3	  1	  1	  4	  1	  1	  1	  1	0.49631	  1	0.80000	  0	 11	 30	 31	  1	
17-Apr-2013	sub2315	2315	  2	  1	 33	  3	  1	  5	  6	  3	  1	  1	  1	1.01648	  1	0.80000	  1	 15	 35	 51	  0	
17-Apr-2013	sub2315	2315	  2	  1	 34	  3	  1	  4	  5	  5	  1	  1	  0	0.64402	  0	0.90000	  0	 14	 42	 43	  0	
17-Apr-2013	sub2315	2315	  2	  1	 35	  3	  1	  4	  5	  5	  1	  1	  0	0.45090	  0	0.90000	  0	 14	 42	 43	  1	
17-Apr-2013	sub2315	2315	  2	  1	 36	  3	  1	  2	  1	  2	  1	  1	  0	0.61000	  0	0.90000	  0	 12	 40	 41	  0	
17-Apr-2013	sub2315	2315	  2	  1	 37	  3	  1	  5	  6	  3	  1	  2	  0	0.48729	  0	0.90000	  0	 15	 45	 46	  1	
17-Apr-2013	sub2315	2315	  2	  1	 38	  3	  1	  3	  3	  1	  1	  1	  1	0.51715	  1	0.90000	  0	 13	 32	 33	  0	
17-Apr-2013	sub2315	2315	  2	  1	 39	  3	  1	  2	  1	  2	  1	  1	  0	0.53384	  0	0.90000	  0	 12	 40	 41	  0	
17-Apr-2013	sub2315	2315	  2	  1	 40	  3	  1	  2	  1	  2	  1	  2	  1	0.44839	  1	0.90000	  0	 12	 30	 31	  1	
17-Apr-2013	sub2315	2315	  2	  1	 41	  3	  1	  3	  3	  1	  1	  1	  1	0.53961	  1	0.90000	  0	 13	 32	 33	  0	
17-Apr-2013	sub2315	2315	  2	  1	 42	  3	  1	  1	  4	  1	  1	  1	  1	0.57080	  1	0.90000	  0	 11	 30	 31	  0	
17-Apr-2013	sub2315	2315	  2	  1	 43	  3	  1	  4	  5	  5	  1	  1	  0	0.89009	  0	0.90000	  0	 14	 42	 43	  0	
17-Apr-2013	sub2315	2315	  2	  1	 44	  3	  1	  5	  6	  3	  1	  2	  0	0.44032	  0	0.80000	  0	 15	 45	 46	  1	
17-Apr-2013	sub2315	2315	  2	  1	 45	  3	  1	  2	  1	  2	  1	  1	  0	0.56930	  0	0.80000	  0	 12	 40	 41	  0	
17-Apr-2013	sub2315	2315	  2	  1	 46	  3	  1	  1	  4	  1	  1	  1	  1	0.50814	  1	0.80000	  0	 11	 30	 31	  0	
17-Apr-2013	sub2315	2315	  2	  1	 47	  3	  1	  5	  6	  3	  0	  2	  1	0.47599	  0	0.80000	  0	 15	 47	 38	  1	
17-Apr-2013	sub2315	2315	  2	  1	 48	  3	  1	  1	  4	  1	  1	  1	  1	0.49363	  1	0.80000	  0	 11	 30	 31	  1	
17-Apr-2013	sub2315	2315	  2	  1	 49	  3	  1	  4	  5	  5	  1	  1	  0	0.73362	  0	0.80000	  0	 14	 42	 43	  0	
17-Apr-2013	sub2315	2315	  2	  1	 50	  3	  1	  3	  3	  1	  1	  1	  1	0.49344	  1	0.80000	  0	 13	 32	 33	  1	
17-Apr-2013	sub2315	2315	  2	  1	 51	  3	  1	  2	  1	  2	  1	  2	  1	0.58484	  1	0.70000	  0	 12	 30	 31	  0	
17-Apr-2013	sub2315	2315	  2	  1	 52	  3	  1	  2	  1	  2	  1	  2	  1	0.52009	  1	0.70000	  0	 12	 30	 31	  0	
17-Apr-2013	sub2315	2315	  2	  1	 53	  3	  1	  6	  2	  2	  0	  2	  0	0.49004	  1	0.70000	  0	 16	 37	 48	  1	
17-Apr-2013	sub2315	2315	  2	  1	 54	  3	  1	  2	  1	  2	  1	  2	  1	0.59857	  1	0.70000	  0	 12	 30	 31	  0	
17-Apr-2013	sub2315	2315	  2	  1	 55	  3	  1	  3	  3	  1	  1	  1	  1	0.47114	  1	0.70000	  0	 13	 32	 33	  1	
17-Apr-2013	sub2315	2315	  2	  1	 56	  3	  1	  6	  2	  2	  0	  2	  0	0.43543	  1	0.70000	  0	 16	 37	 48	  1	
17-Apr-2013	sub2315	2315	  2	  1	 57	  3	  1	  2	  1	  2	  1	  1	  0	0.50257	  0	0.70000	  0	 12	 40	 41	  0	
17-Apr-2013	sub2315	2315	  2	  1	 58	  3	  1	  2	  1	  2	  1	  2	  1	0.45439	  1	0.70000	  0	 12	 30	 31	  1	
17-Apr-2013	sub2315	2315	  2	  1	 59	  3	  1	  3	  3	  1	  0	  1	  0	0.49500	  1	0.70000	  0	 13	 34	 49	  1	
17-Apr-2013	sub2315	2315	  2	  1	 60	  3	  1	  5	  6	  3	  0	  2	  1	0.50343	  0	0.70000	  0	 15	 47	 38	  0	
17-Apr-2013	sub2315	2315	  2	  1	 61	  3	  1	  1	  4	  1	  1	  2	  0	0.84023	  0	0.60000	  1	 11	 40	 51	  0	
17-Apr-2013	sub2315	2315	  2	  1	 62	  3	  1	  1	  4	  1	  1	  2	  0	0.76845	  0	0.80000	  0	 11	 40	 41	  0	
17-Apr-2013	sub2315	2315	  2	  1	 63	  3	  1	  2	  1	  2	  1	  1	  0	0.62412	  0	0.80000	  0	 12	 40	 41	  0	
17-Apr-2013	sub2315	2315	  2	  1	 64	  3	  1	  6	  2	  2	  1	  2	  1	0.55025	  1	0.80000	  0	 16	 35	 36	  0	
17-Apr-2013	sub2315	2315	  2	  1	 65	  3	  1	  4	  5	  5	  0	  2	  0	0.62146	  1	0.80000	  0	 14	 34	 49	  0	
17-Apr-2013	sub2315	2315	  2	  1	 66	  3	  1	  4	  5	  5	  1	  1	  0	0.51671	  0	0.80000	  0	 14	 42	 43	  0	
17-Apr-2013	sub2315	2315	  2	  1	 67	  3	  1	  4	  5	  5	  0	  2	  0	0.56811	  1	0.80000	  0	 14	 34	 49	  0	
17-Apr-2013	sub2315	2315	  2	  1	 68	  3	  1	  4	  5	  5	  1	  1	  0	0.51040	  0	0.70000	  0	 14	 42	 43	  0	
17-Apr-2013	sub2315	2315	  2	  1	 69	  3	  1	  6	  2	  2	  1	  2	  1	0.55574	  1	0.70000	  0	 16	 35	 36	  0	
17-Apr-2013	sub2315	2315	  2	  1	 70	  3	  1	  4	  5	  5	  1	  2	  1	0.44619	  1	0.70000	  0	 14	 32	 33	  1	
17-Apr-2013	sub2315	2315	  2	  1	 71	  3	  1	  4	  5	  5	  1	  2	  1	0.41516	  1	0.70000	  0	 14	 32	 33	  1	
17-Apr-2013	sub2315	2315	  2	  1	 72	  3	  1	  6	  2	  2	  0	  2	  0	0.42984	  1	0.70000	  0	 16	 37	 48	  1	
17-Apr-2013	sub2315	2315	  2	  1	 73	  3	  1	  3	  3	  1	  1	  1	  1	0.48181	  1	0.70000	  0	 13	 32	 33	  1	
17-Apr-2013	sub2315	2315	  2	  1	 74	  3	  1	  1	  4	  1	  1	  1	  1	0.66117	  1	0.70000	  0	 11	 30	 31	  0	
17-Apr-2013	sub2315	2315	  2	  1	 75	  3	  1	  6	  2	  2	  1	  1	  0	0.46911	  0	0.70000	  0	 16	 45	 46	  1	
17-Apr-2013	sub2315	2315	  2	  1	 76	  3	  2	  2	  1	  2	  1	  2	  1	0.52768	  1	0.70000	  0	 22	 60	 61	  0	
17-Apr-2013	sub2315	2315	  2	  1	 77	  3	  2	  2	  1	  2	  1	  2	  1	0.46067	  1	0.70000	  0	 22	 60	 61	  1	
17-Apr-2013	sub2315	2315	  2	  1	 78	  3	  2	  1	  4	  1	  1	  1	  1	0.47439	  1	0.70000	  0	 21	 60	 61	  1	
17-Apr-2013	sub2315	2315	  2	  1	 79	  3	  2	  2	  1	  2	  1	  1	  0	0.48962	  0	0.70000	  0	 22	 80	 81	  1	
17-Apr-2013	sub2315	2315	  2	  1	 80	  3	  2	  4	  5	  5	  1	  2	  1	0.51730	  1	0.70000	  0	 24	 62	 63	  0	
17-Apr-2013	sub2315	2315	  2	  1	 81	  3	  2	  4	  5	  5	  1	  2	  1	0.43288	  1	0.60000	  0	 24	 62	 63	  1	
17-Apr-2013	sub2315	2315	  2	  1	 82	  3	  2	  4	  5	  5	  1	  2	  1	0.58268	  1	0.60000	  0	 24	 62	 63	  0	
17-Apr-2013	sub2315	2315	  2	  1	 83	  3	  2	  1	  4	  1	  1	  2	  0	0.47224	  0	0.60000	  0	 21	 80	 81	  1	
17-Apr-2013	sub2315	2315	  2	  1	 84	  3	  2	  2	  1	  2	  1	  2	  1	0.59115	  1	0.60000	  0	 22	 60	 61	  0	
17-Apr-2013	sub2315	2315	  2	  1	 85	  3	  2	  1	  4	  1	  1	  1	  1	0.42538	  1	0.60000	  0	 21	 60	 61	  1	
17-Apr-2013	sub2315	2315	  2	  1	 86	  3	  2	  5	  6	  3	  0	  2	  1	0.42128	  0	0.60000	  0	 25	 87	 68	  1	
17-Apr-2013	sub2315	2315	  2	  1	 87	  3	  2	  1	  4	  1	  1	  1	  1	0.53709	  1	0.60000	  0	 21	 60	 61	  0	
17-Apr-2013	sub2315	2315	  2	  1	 88	  3	  2	  5	  6	  3	  0	  2	  1	0.39574	  0	0.60000	  0	 25	 87	 68	  1	
17-Apr-2013	sub2315	2315	  2	  1	 89	  3	  2	  6	  2	  2	  0	  2	  0	0.53551	  1	0.60000	  0	 26	 67	 88	  0	
17-Apr-2013	sub2315	2315	  2	  1	 90	  3	  2	  6	  2	  2	  0	  1	  1	0.43844	  0	0.60000	  0	 26	 87	 68	  1	
17-Apr-2013	sub2315	2315	  2	  1	 91	  3	  2	  1	  4	  1	  1	  2	  0	0.46940	  0	0.60000	  0	 21	 80	 81	  1	
17-Apr-2013	sub2315	2315	  2	  1	 92	  3	  2	  6	  2	  2	  1	  1	  0	0.67787	  0	0.60000	  1	 26	 85	 51	  0	
17-Apr-2013	sub2315	2315	  2	  1	 93	  3	  2	  3	  3	  1	  1	  1	  1	0.47627	  1	0.70000	  0	 23	 62	 63	  1	
17-Apr-2013	sub2315	2315	  2	  1	 94	  3	  2	  4	  5	  5	  1	  2	  1	0.50907	  1	0.70000	  0	 24	 62	 63	  0	
17-Apr-2013	sub2315	2315	  2	  1	 95	  3	  2	  5	  6	  3	  0	  2	  1	0.55409	  0	0.70000	  0	 25	 87	 68	  0	
17-Apr-2013	sub2315	2315	  2	  1	 96	  3	  2	  2	  1	  2	  1	  1	  0	0.48007	  0	0.70000	  0	 22	 80	 81	  1	
17-Apr-2013	sub2315	2315	  2	  1	 97	  3	  2	  6	  2	  2	  0	  2	  0	0.47226	  1	0.70000	  0	 26	 67	 88	  1	
17-Apr-2013	sub2315	2315	  2	  1	 98	  3	  2	  5	  6	  3	  0	  2	  1	0.50171	  0	0.70000	  0	 25	 87	 68	  0	
17-Apr-2013	sub2315	2315	  2	  1	 99	  3	  2	  4	  5	  5	  0	  1	  1	0.67030	  0	0.70000	  0	 24	 84	 69	  0	
17-Apr-2013	sub2315	2315	  2	  1	100	  3	  2	  5	  6	  3	  0	  2	  1	0.63725	  0	0.70000	  0	 25	 87	 68	  0	
17-Apr-2013	sub2315	2315	  2	  1	101	  3	  2	  5	  6	  3	  0	  2	  1	0.46569	  0	0.60000	  0	 25	 87	 68	  1	
17-Apr-2013	sub2315	2315	  2	  1	102	  3	  2	  4	  5	  5	  0	  1	  1	0.81016	  0	0.60000	  1	 24	 84	 51	  0	
17-Apr-2013	sub2315	2315	  2	  1	103	  3	  2	  1	  4	  1	  1	  1	  1	0.42037	  1	0.70000	  0	 21	 60	 61	  1	
17-Apr-2013	sub2315	2315	  2	  1	104	  3	  2	  4	  5	  5	  1	  2	  1	0.44503	  1	0.70000	  0	 24	 62	 63	  1	
17-Apr-2013	sub2315	2315	  2	  1	105	  3	  2	  5	  6	  3	  0	  2	  1	0.51199	  0	0.70000	  0	 25	 87	 68	  0	
17-Apr-2013	sub2315	2315	  2	  1	106	  3	  2	  6	  2	  2	  1	  1	  0	0.65927	  0	0.70000	  0	 26	 85	 86	  0	
17-Apr-2013	sub2315	2315	  2	  1	107	  3	  2	  3	  3	  1	  1	  1	  1	0.47950	  1	0.70000	  0	 23	 62	 63	  1	
17-Apr-2013	sub2315	2315	  2	  1	108	  3	  2	  6	  2	  2	  1	  1	  0	0.53886	  0	0.70000	  0	 26	 85	 86	  0	
17-Apr-2013	sub2315	2315	  2	  1	109	  3	  2	  6	  2	  2	  0	  2	  0	0.45754	  1	0.70000	  0	 26	 67	 88	  1	
17-Apr-2013	sub2315	2315	  2	  1	110	  3	  2	  2	  1	  2	  1	  2	  1	0.71606	  1	0.70000	  1	 22	 60	 51	  0	
17-Apr-2013	sub2315	2315	  2	  1	111	  3	  2	  3	  3	  1	  1	  1	  1	0.44940	  1	0.80000	  0	 23	 62	 63	  1	
17-Apr-2013	sub2315	2315	  2	  1	112	  3	  2	  4	  5	  5	  1	  2	  1	0.56293	  1	0.80000	  0	 24	 62	 63	  0	
17-Apr-2013	sub2315	2315	  2	  1	113	  3	  2	  2	  1	  2	  1	  1	  0	0.50177	  0	0.80000	  0	 22	 80	 81	  0	
17-Apr-2013	sub2315	2315	  2	  1	114	  3	  2	  6	  2	  2	  1	  1	  0	0.61270	  0	0.80000	  0	 26	 85	 86	  0	
17-Apr-2013	sub2315	2315	  2	  1	115	  3	  2	  2	  1	  2	  1	  2	  1	0.59500	  1	0.80000	  0	 22	 60	 61	  0	
17-Apr-2013	sub2315	2315	  2	  1	116	  3	  2	  1	  4	  1	  1	  1	  1	0.86360	  1	0.80000	  1	 21	 60	 51	  0	
17-Apr-2013	sub2315	2315	  2	  1	117	  3	  2	  1	  4	  1	  1	  2	  0	0.38691	  0	0.80000	  0	 21	 80	 81	  1	
17-Apr-2013	sub2315	2315	  2	  1	118	  3	  2	  3	  3	  1	  1	  1	  1	0.48950	  1	0.80000	  0	 23	 62	 63	  1	
17-Apr-2013	sub2315	2315	  2	  1	119	  3	  2	  3	  3	  1	  0	  1	  0	0.42006	  1	0.80000	  0	 23	 64	 89	  1	
17-Apr-2013	sub2315	2315	  2	  1	120	  3	  2	  5	  6	  3	  0	  2	  1	0.52763	  0	0.80000	  0	 25	 87	 68	  0	
17-Apr-2013	sub2315	2315	  2	  1	121	  3	  2	  2	  1	  2	  1	  1	  0	0.67273	  0	0.80000	  0	 22	 80	 81	  0	
17-Apr-2013	sub2315	2315	  2	  1	122	  3	  2	  1	  4	  1	  1	  1	  1	0.55227	  1	0.80000	  0	 21	 60	 61	  0	
17-Apr-2013	sub2315	2315	  2	  1	123	  3	  2	  3	  3	  1	  1	  2	  0	0.58061	  0	0.80000	  0	 23	 82	 83	  0	
17-Apr-2013	sub2315	2315	  2	  1	124	  3	  2	  2	  1	  2	  1	  1	  0	0.53200	  0	0.80000	  0	 22	 80	 81	  0	
17-Apr-2013	sub2315	2315	  2	  1	125	  3	  2	  5	  6	  3	  0	  2	  1	0.43313	  0	0.80000	  0	 25	 87	 68	  1	
17-Apr-2013	sub2315	2315	  2	  1	126	  3	  2	  3	  3	  1	  1	  1	  1	0.41064	  1	0.80000	  0	 23	 62	 63	  1	
17-Apr-2013	sub2315	2315	  2	  1	127	  3	  2	  1	  4	  1	  1	  1	  1	0.45694	  1	0.80000	  0	 21	 60	 61	  1	
17-Apr-2013	sub2315	2315	  2	  1	128	  3	  2	  2	  1	  2	  1	  1	  0	0.47769	  0	0.80000	  0	 22	 80	 81	  1	
17-Apr-2013	sub2315	2315	  2	  1	129	  3	  2	  4	  5	  5	  1	  2	  1	0.54236	  1	0.80000	  0	 24	 62	 63	  0	
17-Apr-2013	sub2315	2315	  2	  1	130	  3	  2	  6	  2	  2	  1	  2	  1	0.53655	  1	0.80000	  0	 26	 65	 66	  0	
17-Apr-2013	sub2315	2315	  2	  1	131	  3	  2	  5	  6	  3	  0	  2	  1	0.51740	  0	0.80000	  0	 25	 87	 68	  0	
17-Apr-2013	sub2315	2315	  2	  1	132	  3	  2	  2	  1	  2	  1	  2	  1	0.53194	  1	0.80000	  0	 22	 60	 61	  0	
17-Apr-2013	sub2315	2315	  2	  1	133	  3	  2	  5	  6	  3	  0	  2	  1	0.49346	  0	0.80000	  0	 25	 87	 68	  1	
17-Apr-2013	sub2315	2315	  2	  1	134	  3	  2	  3	  3	  1	  1	  1	  1	0.62015	  1	0.80000	  0	 23	 62	 63	  0	
17-Apr-2013	sub2315	2315	  2	  1	135	  3	  2	  5	  6	  3	  0	  2	  1	0.46462	  0	0.70000	  0	 25	 87	 68	  1	
17-Apr-2013	sub2315	2315	  2	  1	136	  3	  2	  1	  4	  1	  1	  1	  1	0.57592	  1	0.70000	  0	 21	 60	 61	  0	
17-Apr-2013	sub2315	2315	  2	  1	137	  3	  2	  3	  3	  1	  1	  2	  0	0.40172	  0	0.70000	  0	 23	 82	 83	  1	
17-Apr-2013	sub2315	2315	  2	  1	138	  3	  2	  1	  4	  1	  1	  1	  1	0.50782	  1	0.70000	  0	 21	 60	 61	  0	
17-Apr-2013	sub2315	2315	  2	  1	139	  3	  2	  3	  3	  1	  1	  1	  1	0.50503	  1	0.70000	  0	 23	 62	 63	  0	
17-Apr-2013	sub2315	2315	  2	  1	140	  3	  2	  6	  2	  2	  0	  2	  0	0.40809	  1	0.70000	  0	 26	 67	 88	  1	
17-Apr-2013	sub2315	2315	  2	  1	141	  3	  2	  4	  5	  5	  1	  1	  0	0.48686	  0	0.70000	  0	 24	 82	 83	  1	
17-Apr-2013	sub2315	2315	  2	  1	142	  3	  2	  6	  2	  2	  0	  2	  0	0.59051	  1	0.70000	  0	 26	 67	 88	  0	
17-Apr-2013	sub2315	2315	  2	  1	143	  3	  2	  4	  5	  5	  0	  2	  0	0.58910	  1	0.70000	  0	 24	 64	 89	  0	
17-Apr-2013	sub2315	2315	  2	  1	144	  3	  2	  3	  3	  1	  1	  1	  1	0.41350	  1	0.70000	  0	 23	 62	 63	  1	
17-Apr-2013	sub2315	2315	  2	  1	145	  3	  2	  3	  3	  1	  0	  1	  0	0.42705	  1	0.70000	  0	 23	 64	 89	  1	
17-Apr-2013	sub2315	2315	  2	  1	146	  3	  2	  4	  5	  5	  1	  2	  1	0.43354	  1	0.70000	  0	 24	 62	 63	  1	
17-Apr-2013	sub2315	2315	  2	  1	147	  3	  2	  5	  6	  3	  0	  2	  1	0.42745	  0	0.70000	  0	 25	 87	 68	  1	
17-Apr-2013	sub2315	2315	  2	  1	148	  3	  2	  4	  5	  5	  1	  2	  1	0.37557	  1	0.70000	  0	 24	 62	 63	  1	
17-Apr-2013	sub2315	2315	  2	  1	149	  3	  2	  6	  2	  2	  1	  2	  1	0.39782	  1	0.70000	  0	 26	 65	 66	  1	
17-Apr-2013	sub2315	2315	  2	  1	150	  3	  2	  1	  4	  1	  1	  1	  1	0.51867	  1	0.70000	  0	 21	 60	 61	  0	
17-Apr-2013	sub2315	2315	  2	  1	  1	  4	  1	  1	  5	  2	  1	  1	  1	0.63447	  1	0.60000	  1	 11	 30	 51	  0	
17-Apr-2013	sub2315	2315	  2	  1	  2	  4	  1	  3	  2	  5	  1	  2	  0	0.26459	  0	0.90000	  0	 13	 42	 43	  1	
17-Apr-2013	sub2315	2315	  2	  1	  3	  4	  1	  3	  2	  5	  1	  1	  1	0.33987	  1	0.90000	  0	 13	 32	 33	  1	
17-Apr-2013	sub2315	2315	  2	  1	  4	  4	  1	  1	  5	  2	  1	  2	  0	0.40024	  0	0.90000	  0	 11	 40	 41	  1	
17-Apr-2013	sub2315	2315	  2	  1	  5	  4	  1	  3	  2	  5	  0	  1	  0	0.50528	  1	0.90000	  0	 13	 34	 49	  0	
17-Apr-2013	sub2315	2315	  2	  1	  6	  4	  1	  4	  3	  3	  1	  2	  1	0.42484	  1	0.90000	  0	 14	 32	 33	  1	
17-Apr-2013	sub2315	2315	  2	  1	  7	  4	  1	  2	  1	  4	  1	  1	  0	0.57219	  0	0.90000	  0	 12	 40	 41	  0	
17-Apr-2013	sub2315	2315	  2	  1	  8	  4	  1	  1	  5	  2	  1	  2	  0	0.64957	  0	0.90000	  0	 11	 40	 41	  0	
17-Apr-2013	sub2315	2315	  2	  1	  9	  4	  1	  4	  3	  3	  1	  2	  1	0.75369	  1	0.90000	  0	 14	 32	 33	  0	
17-Apr-2013	sub2315	2315	  2	  1	 10	  4	  1	  6	  4	  3	  0	  2	  0	0.54780	  1	0.90000	  0	 16	 37	 48	  0	
17-Apr-2013	sub2315	2315	  2	  1	 11	  4	  1	  3	  2	  5	  0	  1	  0	0.42139	  1	0.90000	  0	 13	 34	 49	  1	
17-Apr-2013	sub2315	2315	  2	  1	 12	  4	  1	  6	  4	  3	  1	  2	  1	0.54253	  1	0.90000	  0	 16	 35	 36	  0	
17-Apr-2013	sub2315	2315	  2	  1	 13	  4	  1	  3	  2	  5	  0	  2	  1	0.60007	  0	0.90000	  0	 13	 44	 39	  0	
17-Apr-2013	sub2315	2315	  2	  1	 14	  4	  1	  2	  1	  4	  1	  1	  0	0.49814	  0	0.90000	  0	 12	 40	 41	  1	
17-Apr-2013	sub2315	2315	  2	  1	 15	  4	  1	  4	  3	  3	  1	  2	  1	0.54453	  1	0.90000	  0	 14	 32	 33	  0	
17-Apr-2013	sub2315	2315	  2	  1	 16	  4	  1	  2	  1	  4	  1	  2	  1	0.49030	  1	0.80000	  0	 12	 30	 31	  1	
17-Apr-2013	sub2315	2315	  2	  1	 17	  4	  1	  1	  5	  2	  1	  2	  0	0.49788	  0	0.80000	  0	 11	 40	 41	  1	
17-Apr-2013	sub2315	2315	  2	  1	 18	  4	  1	  5	  6	  1	  0	  2	  1	0.52979	  0	0.70000	  0	 15	 47	 38	  0	
17-Apr-2013	sub2315	2315	  2	  1	 19	  4	  1	  2	  1	  4	  1	  2	  1	0.55122	  1	0.70000	  0	 12	 30	 31	  0	
17-Apr-2013	sub2315	2315	  2	  1	 20	  4	  1	  3	  2	  5	  1	  2	  0	0.45352	  0	0.70000	  0	 13	 42	 43	  1	
17-Apr-2013	sub2315	2315	  2	  1	 21	  4	  1	  2	  1	  4	  1	  2	  1	0.48248	  1	0.60000	  0	 12	 30	 31	  1	
17-Apr-2013	sub2315	2315	  2	  1	 22	  4	  1	  1	  5	  2	  1	  1	  1	0.60300	  1	0.60000	  1	 11	 30	 51	  0	
17-Apr-2013	sub2315	2315	  2	  1	 23	  4	  1	  6	  4	  3	  0	  2	  0	0.38434	  1	0.90000	  0	 16	 37	 48	  1	
17-Apr-2013	sub2315	2315	  2	  1	 24	  4	  1	  6	  4	  3	  0	  1	  1	0.58476	  0	0.90000	  0	 16	 47	 38	  0	
17-Apr-2013	sub2315	2315	  2	  1	 25	  4	  1	  6	  4	  3	  1	  1	  0	0.41846	  0	0.90000	  0	 16	 45	 46	  1	
17-Apr-2013	sub2315	2315	  2	  1	 26	  4	  1	  3	  2	  5	  1	  1	  1	0.45760	  1	0.90000	  0	 13	 32	 33	  1	
17-Apr-2013	sub2315	2315	  2	  1	 27	  4	  1	  2	  1	  4	  1	  1	  0	0.42995	  0	0.90000	  0	 12	 40	 41	  1	
17-Apr-2013	sub2315	2315	  2	  1	 28	  4	  1	  4	  3	  3	  0	  2	  0	0.52414	  1	0.90000	  0	 14	 34	 49	  0	
17-Apr-2013	sub2315	2315	  2	  1	 29	  4	  1	  2	  1	  4	  1	  2	  1	0.40639	  1	0.90000	  0	 12	 30	 31	  1	
17-Apr-2013	sub2315	2315	  2	  1	 30	  4	  1	  1	  5	  2	  1	  2	  0	0.42676	  0	0.80000	  0	 11	 40	 41	  1	
17-Apr-2013	sub2315	2315	  2	  1	 31	  4	  1	  6	  4	  3	  1	  1	  0	0.37307	  0	0.80000	  0	 16	 45	 46	  1	
17-Apr-2013	sub2315	2315	  2	  1	 32	  4	  1	  4	  3	  3	  1	  2	  1	0.49789	  1	0.80000	  0	 14	 32	 33	  1	
17-Apr-2013	sub2315	2315	  2	  1	 33	  4	  1	  1	  5	  2	  1	  1	  1	0.43372	  1	0.80000	  0	 11	 30	 31	  1	
17-Apr-2013	sub2315	2315	  2	  1	 34	  4	  1	  5	  6	  1	  0	  1	  0	0.38895	  1	0.80000	  0	 15	 37	 48	  1	
17-Apr-2013	sub2315	2315	  2	  1	 35	  4	  1	  4	  3	  3	  1	  2	  1	0.35604	  1	0.70000	  0	 14	 32	 33	  1	
17-Apr-2013	sub2315	2315	  2	  1	 36	  4	  1	  2	  1	  4	  1	  2	  1	0.35513	  1	0.70000	  0	 12	 30	 31	  1	
17-Apr-2013	sub2315	2315	  2	  1	 37	  4	  1	  5	  6	  1	  1	  2	  0	0.40761	  0	0.70000	  0	 15	 45	 46	  1	
17-Apr-2013	sub2315	2315	  2	  1	 38	  4	  1	  5	  6	  1	  0	  2	  1	0.40279	  0	0.70000	  0	 15	 47	 38	  1	
17-Apr-2013	sub2315	2315	  2	  1	 39	  4	  1	  2	  1	  4	  1	  2	  1	0.44330	  1	0.70000	  0	 12	 30	 31	  1	
17-Apr-2013	sub2315	2315	  2	  1	 40	  4	  1	  5	  6	  1	  1	  2	  0	0.43657	  0	0.70000	  0	 15	 45	 46	  1	
17-Apr-2013	sub2315	2315	  2	  1	 41	  4	  1	  3	  2	  5	  1	  1	  1	0.46816	  1	0.60000	  0	 13	 32	 33	  1	
17-Apr-2013	sub2315	2315	  2	  1	 42	  4	  1	  6	  4	  3	  0	  2	  0	0.32021	  1	0.60000	  0	 16	 37	 48	  1	
17-Apr-2013	sub2315	2315	  2	  1	 43	  4	  1	  3	  2	  5	  1	  1	  1	0.47417	  1	0.60000	  0	 13	 32	 33	  1	
17-Apr-2013	sub2315	2315	  2	  1	 44	  4	  1	  4	  3	  3	  1	  2	  1	0.51917	  1	0.60000	  0	 14	 32	 33	  0	
17-Apr-2013	sub2315	2315	  2	  1	 45	  4	  1	  1	  5	  2	  1	  2	  0	0.45282	  0	0.60000	  0	 11	 40	 41	  1	
17-Apr-2013	sub2315	2315	  2	  1	 46	  4	  1	  5	  6	  1	  1	  1	  1	0.40893	  1	0.60000	  0	 15	 35	 36	  1	
17-Apr-2013	sub2315	2315	  2	  1	 47	  4	  1	  6	  4	  3	  0	  1	  1	0.82489	  0	0.60000	  1	 16	 47	 51	  0	
17-Apr-2013	sub2315	2315	  2	  1	 48	  4	  1	  5	  6	  1	  1	  1	  1	0.45708	  1	0.80000	  0	 15	 35	 36	  1	
17-Apr-2013	sub2315	2315	  2	  1	 49	  4	  1	  4	  3	  3	  1	  2	  1	0.51550	  1	0.80000	  0	 14	 32	 33	  0	
17-Apr-2013	sub2315	2315	  2	  1	 50	  4	  1	  4	  3	  3	  1	  2	  1	0.52090	  1	0.80000	  0	 14	 32	 33	  0	
17-Apr-2013	sub2315	2315	  2	  1	 51	  4	  1	  4	  3	  3	  1	  2	  1	0.45475	  1	0.70000	  0	 14	 32	 33	  1	
17-Apr-2013	sub2315	2315	  2	  1	 52	  4	  1	  1	  5	  2	  1	  1	  1	0.51601	  1	0.70000	  0	 11	 30	 31	  0	
17-Apr-2013	sub2315	2315	  2	  1	 53	  4	  1	  2	  1	  4	  1	  2	  1	0.50110	  1	0.70000	  0	 12	 30	 31	  0	
17-Apr-2013	sub2315	2315	  2	  1	 54	  4	  1	  3	  2	  5	  1	  1	  1	0.47117	  1	0.70000	  0	 13	 32	 33	  1	
17-Apr-2013	sub2315	2315	  2	  1	 55	  4	  1	  2	  1	  4	  1	  2	  1	0.45752	  1	0.70000	  0	 12	 30	 31	  1	
17-Apr-2013	sub2315	2315	  2	  1	 56	  4	  1	  3	  2	  5	  1	  2	  0	0.51208	  0	0.70000	  0	 13	 42	 43	  0	
17-Apr-2013	sub2315	2315	  2	  1	 57	  4	  1	  5	  6	  1	  1	  2	  0	0.65371	  0	0.70000	  0	 15	 45	 46	  0	
17-Apr-2013	sub2315	2315	  2	  1	 58	  4	  1	  3	  2	  5	  1	  1	  1	0.74795	  1	0.70000	  1	 13	 32	 51	  0	
17-Apr-2013	sub2315	2315	  2	  1	 59	  4	  1	  5	  6	  1	  0	  2	  1	0.64576	  0	0.80000	  0	 15	 47	 38	  0	
17-Apr-2013	sub2315	2315	  2	  1	 60	  4	  1	  4	  3	  3	  1	  2	  1	0.53142	  1	0.80000	  0	 14	 32	 33	  0	
17-Apr-2013	sub2315	2315	  2	  1	 61	  4	  1	  6	  4	  3	  1	  1	  0	0.51616	  0	0.80000	  0	 16	 45	 46	  0	
17-Apr-2013	sub2315	2315	  2	  1	 62	  4	  1	  4	  3	  3	  0	  2	  0	0.49834	  1	0.80000	  0	 14	 34	 49	  1	
17-Apr-2013	sub2315	2315	  2	  1	 63	  4	  1	  5	  6	  1	  1	  2	  0	0.58789	  0	0.80000	  0	 15	 45	 46	  0	
17-Apr-2013	sub2315	2315	  2	  1	 64	  4	  1	  6	  4	  3	  0	  1	  1	0.47578	  0	0.80000	  0	 16	 47	 38	  1	
17-Apr-2013	sub2315	2315	  2	  1	 65	  4	  1	  1	  5	  2	  1	  1	  1	0.51686	  1	0.80000	  0	 11	 30	 31	  0	
17-Apr-2013	sub2315	2315	  2	  1	 66	  4	  1	  6	  4	  3	  0	  1	  1	0.65562	  0	0.80000	  0	 16	 47	 38	  0	
17-Apr-2013	sub2315	2315	  2	  1	 67	  4	  1	  2	  1	  4	  1	  2	  1	0.60113	  1	0.80000	  0	 12	 30	 31	  0	
17-Apr-2013	sub2315	2315	  2	  1	 68	  4	  1	  5	  6	  1	  1	  2	  0	0.58217	  0	0.70000	  0	 15	 45	 46	  0	
17-Apr-2013	sub2315	2315	  2	  1	 69	  4	  1	  6	  4	  3	  1	  1	  0	0.58893	  0	0.70000	  0	 16	 45	 46	  0	
17-Apr-2013	sub2315	2315	  2	  1	 70	  4	  1	  3	  2	  5	  1	  1	  1	0.57330	  1	0.70000	  0	 13	 32	 33	  0	
17-Apr-2013	sub2315	2315	  2	  1	 71	  4	  1	  5	  6	  1	  0	  2	  1	0.39927	  0	0.70000	  0	 15	 47	 38	  1	
17-Apr-2013	sub2315	2315	  2	  1	 72	  4	  1	  2	  1	  4	  1	  2	  1	0.52983	  1	0.70000	  0	 12	 30	 31	  0	
17-Apr-2013	sub2315	2315	  2	  1	 73	  4	  1	  1	  5	  2	  1	  1	  1	0.63661	  1	0.70000	  0	 11	 30	 31	  0	
17-Apr-2013	sub2315	2315	  2	  1	 74	  4	  1	  1	  5	  2	  1	  1	  1	0.50746	  1	0.70000	  0	 11	 30	 31	  0	
17-Apr-2013	sub2315	2315	  2	  1	 75	  4	  1	  6	  4	  3	  0	  2	  0	0.59922	  1	0.70000	  0	 16	 37	 48	  0	
17-Apr-2013	sub2315	2315	  2	  1	 76	  4	  2	  4	  3	  3	  0	  2	  0	0.50302	  1	0.70000	  0	 24	 64	 89	  0	
17-Apr-2013	sub2315	2315	  2	  1	 77	  4	  2	  6	  4	  3	  0	  1	  1	0.46420	  0	0.70000	  0	 26	 87	 68	  1	
17-Apr-2013	sub2315	2315	  2	  1	 78	  4	  2	  1	  5	  2	  1	  1	  1	0.54577	  1	0.70000	  0	 21	 60	 61	  0	
17-Apr-2013	sub2315	2315	  2	  1	 79	  4	  2	  4	  3	  3	  1	  2	  1	0.53993	  1	0.70000	  0	 24	 62	 63	  0	
17-Apr-2013	sub2315	2315	  2	  1	 80	  4	  2	  3	  2	  5	  1	  1	  1	0.57926	  1	0.70000	  0	 23	 62	 63	  0	
17-Apr-2013	sub2315	2315	  2	  1	 81	  4	  2	  1	  5	  2	  1	  1	  1	0.54369	  1	0.60000	  0	 21	 60	 61	  0	
17-Apr-2013	sub2315	2315	  2	  1	 82	  4	  2	  3	  2	  5	  1	  1	  1	0.49094	  1	0.60000	  0	 23	 62	 63	  1	
17-Apr-2013	sub2315	2315	  2	  1	 83	  4	  2	  5	  6	  1	  0	  1	  0	0.46393	  1	0.60000	  0	 25	 67	 88	  1	
17-Apr-2013	sub2315	2315	  2	  1	 84	  4	  2	  2	  1	  4	  1	  1	  0	0.41703	  0	0.60000	  0	 22	 80	 81	  1	
17-Apr-2013	sub2315	2315	  2	  1	 85	  4	  2	  3	  2	  5	  1	  1	  1	0.53051	  1	0.60000	  0	 23	 62	 63	  0	
17-Apr-2013	sub2315	2315	  2	  1	 86	  4	  2	  4	  3	  3	  1	  2	  1	0.58541	  1	0.60000	  0	 24	 62	 63	  0	
17-Apr-2013	sub2315	2315	  2	  1	 87	  4	  2	  3	  2	  5	  1	  1	  1	0.55844	  1	0.60000	  0	 23	 62	 63	  0	
17-Apr-2013	sub2315	2315	  2	  1	 88	  4	  2	  2	  1	  4	  1	  2	  1	0.40890	  1	0.60000	  0	 22	 60	 61	  1	
17-Apr-2013	sub2315	2315	  2	  1	 89	  4	  2	  4	  3	  3	  1	  2	  1	0.54992	  1	0.60000	  0	 24	 62	 63	  0	
17-Apr-2013	sub2315	2315	  2	  1	 90	  4	  2	  5	  6	  1	  0	  1	  0	0.51047	  1	0.60000	  0	 25	 67	 88	  0	
17-Apr-2013	sub2315	2315	  2	  1	 91	  4	  2	  2	  1	  4	  1	  2	  1	0.53989	  1	0.60000	  0	 22	 60	 61	  0	
17-Apr-2013	sub2315	2315	  2	  1	 92	  4	  2	  2	  1	  4	  1	  2	  1	0.50975	  1	0.60000	  0	 22	 60	 61	  0	
17-Apr-2013	sub2315	2315	  2	  1	 93	  4	  2	  4	  3	  3	  1	  2	  1	0.48027	  1	0.60000	  0	 24	 62	 63	  1	
17-Apr-2013	sub2315	2315	  2	  1	 94	  4	  2	  5	  6	  1	  0	  2	  1	0.59783	  0	0.60000	  0	 25	 87	 68	  0	
17-Apr-2013	sub2315	2315	  2	  1	 95	  4	  2	  6	  4	  3	  0	  1	  1	0.46488	  0	0.60000	  0	 26	 87	 68	  1	
17-Apr-2013	sub2315	2315	  2	  1	 96	  4	  2	  1	  5	  2	  1	  1	  1	0.50682	  1	0.60000	  0	 21	 60	 61	  0	
17-Apr-2013	sub2315	2315	  2	  1	 97	  4	  2	  2	  1	  4	  1	  2	  1	0.49329	  1	0.60000	  0	 22	 60	 61	  1	
17-Apr-2013	sub2315	2315	  2	  1	 98	  4	  2	  4	  3	  3	  0	  2	  0	0.50859	  1	0.60000	  0	 24	 64	 89	  0	
17-Apr-2013	sub2315	2315	  2	  1	 99	  4	  2	  1	  5	  2	  1	  1	  1	0.42026	  1	0.60000	  0	 21	 60	 61	  1	
17-Apr-2013	sub2315	2315	  2	  1	100	  4	  2	  1	  5	  2	  1	  1	  1	0.49198	  1	0.60000	  0	 21	 60	 61	  1	
17-Apr-2013	sub2315	2315	  2	  1	101	  4	  2	  6	  4	  3	  0	  1	  1	0.51515	  0	0.50000	  1	 26	 87	 51	  0	
17-Apr-2013	sub2315	2315	  2	  1	102	  4	  2	  3	  2	  5	  1	  1	  1	0.53088	  1	0.60000	  0	 23	 62	 63	  0	
17-Apr-2013	sub2315	2315	  2	  1	103	  4	  2	  6	  4	  3	  1	  2	  1	0.61926	  1	0.60000	  1	 26	 65	 51	  0	
17-Apr-2013	sub2315	2315	  2	  1	104	  4	  2	  5	  6	  1	  0	  1	  0	0.43232	  1	0.70000	  0	 25	 67	 88	  1	
17-Apr-2013	sub2315	2315	  2	  1	105	  4	  2	  4	  3	  3	  0	  2	  0	0.44341	  1	0.70000	  0	 24	 64	 89	  1	
17-Apr-2013	sub2315	2315	  2	  1	106	  4	  2	  1	  5	  2	  1	  1	  1	0.46209	  1	0.70000	  0	 21	 60	 61	  1	
17-Apr-2013	sub2315	2315	  2	  1	107	  4	  2	  6	  4	  3	  0	  2	  0	0.57165	  1	0.70000	  0	 26	 67	 88	  0	
17-Apr-2013	sub2315	2315	  2	  1	108	  4	  2	  4	  3	  3	  1	  2	  1	0.41965	  1	0.70000	  0	 24	 62	 63	  1	
17-Apr-2013	sub2315	2315	  2	  1	109	  4	  2	  1	  5	  2	  1	  1	  1	0.46010	  1	0.70000	  0	 21	 60	 61	  1	
17-Apr-2013	sub2315	2315	  2	  1	110	  4	  2	  6	  4	  3	  1	  1	  0	0.37257	  0	0.70000	  0	 26	 85	 86	  1	
17-Apr-2013	sub2315	2315	  2	  1	111	  4	  2	  5	  6	  1	  0	  2	  1	0.49376	  0	0.70000	  0	 25	 87	 68	  1	
17-Apr-2013	sub2315	2315	  2	  1	112	  4	  2	  3	  2	  5	  1	  1	  1	0.47197	  1	0.70000	  0	 23	 62	 63	  1	
17-Apr-2013	sub2315	2315	  2	  1	113	  4	  2	  6	  4	  3	  1	  2	  1	0.41269	  1	0.70000	  0	 26	 65	 66	  1	
17-Apr-2013	sub2315	2315	  2	  1	114	  4	  2	  5	  6	  1	  0	  2	  1	0.42351	  0	0.70000	  0	 25	 87	 68	  1	
17-Apr-2013	sub2315	2315	  2	  1	115	  4	  2	  1	  5	  2	  1	  2	  0	0.43549	  0	0.70000	  0	 21	 80	 81	  1	
17-Apr-2013	sub2315	2315	  2	  1	116	  4	  2	  6	  4	  3	  0	  1	  1	0.44528	  0	0.70000	  0	 26	 87	 68	  1	
17-Apr-2013	sub2315	2315	  2	  1	117	  4	  2	  5	  6	  1	  0	  1	  0	0.42269	  1	0.70000	  0	 25	 67	 88	  1	
17-Apr-2013	sub2315	2315	  2	  1	118	  4	  2	  1	  5	  2	  1	  1	  1	0.53390	  1	0.70000	  0	 21	 60	 61	  0	
17-Apr-2013	sub2315	2315	  2	  1	119	  4	  2	  1	  5	  2	  1	  1	  1	0.44506	  1	0.70000	  0	 21	 60	 61	  1	
17-Apr-2013	sub2315	2315	  2	  1	120	  4	  2	  2	  1	  4	  1	  2	  1	0.47471	  1	0.70000	  0	 22	 60	 61	  1	
17-Apr-2013	sub2315	2315	  2	  1	121	  4	  2	  4	  3	  3	  1	  2	  1	0.49607	  1	0.60000	  0	 24	 62	 63	  1	
17-Apr-2013	sub2315	2315	  2	  1	122	  4	  2	  6	  4	  3	  0	  1	  1	0.51856	  0	0.60000	  0	 26	 87	 68	  0	
17-Apr-2013	sub2315	2315	  2	  1	123	  4	  2	  2	  1	  4	  1	  2	  1	0.55450	  1	0.60000	  0	 22	 60	 61	  0	
17-Apr-2013	sub2315	2315	  2	  1	124	  4	  2	  5	  6	  1	  0	  2	  1	0.54471	  0	0.60000	  0	 25	 87	 68	  0	
17-Apr-2013	sub2315	2315	  2	  1	125	  4	  2	  2	  1	  4	  1	  2	  1	0.41992	  1	0.60000	  0	 22	 60	 61	  1	
17-Apr-2013	sub2315	2315	  2	  1	126	  4	  2	  6	  4	  3	  1	  1	  0	0.56623	  0	0.60000	  0	 26	 85	 86	  0	
17-Apr-2013	sub2315	2315	  2	  1	127	  4	  2	  3	  2	  5	  0	  1	  0	0.51526	  1	0.60000	  0	 23	 64	 89	  0	
17-Apr-2013	sub2315	2315	  2	  1	128	  4	  2	  5	  6	  1	  0	  2	  1	0.45220	  0	0.60000	  0	 25	 87	 68	  1	
17-Apr-2013	sub2315	2315	  2	  1	129	  4	  2	  3	  2	  5	  1	  1	  1	0.52456	  1	0.60000	  0	 23	 62	 63	  0	
17-Apr-2013	sub2315	2315	  2	  1	130	  4	  2	  6	  4	  3	  1	  1	  0	0.39823	  0	0.60000	  0	 26	 85	 86	  1	
17-Apr-2013	sub2315	2315	  2	  1	131	  4	  2	  4	  3	  3	  1	  1	  0	0.40949	  0	0.60000	  0	 24	 82	 83	  1	
17-Apr-2013	sub2315	2315	  2	  1	132	  4	  2	  4	  3	  3	  1	  2	  1	0.42172	  1	0.60000	  0	 24	 62	 63	  1	
17-Apr-2013	sub2315	2315	  2	  1	133	  4	  2	  1	  5	  2	  1	  1	  1	0.45704	  1	0.60000	  0	 21	 60	 61	  1	
17-Apr-2013	sub2315	2315	  2	  1	134	  4	  2	  3	  2	  5	  0	  1	  0	0.45422	  1	0.60000	  0	 23	 64	 89	  1	
17-Apr-2013	sub2315	2315	  2	  1	135	  4	  2	  4	  3	  3	  1	  2	  1	0.41558	  1	0.60000	  0	 24	 62	 63	  1	
17-Apr-2013	sub2315	2315	  2	  1	136	  4	  2	  5	  6	  1	  0	  1	  0	0.43346	  1	0.60000	  0	 25	 67	 88	  1	
17-Apr-2013	sub2315	2315	  2	  1	137	  4	  2	  2	  1	  4	  1	  2	  1	0.48474	  1	0.60000	  0	 22	 60	 61	  1	
17-Apr-2013	sub2315	2315	  2	  1	138	  4	  2	  2	  1	  4	  1	  2	  1	0.44172	  1	0.60000	  0	 22	 60	 61	  1	
17-Apr-2013	sub2315	2315	  2	  1	139	  4	  2	  6	  4	  3	  1	  1	  0	0.47966	  0	0.60000	  0	 26	 85	 86	  1	
17-Apr-2013	sub2315	2315	  2	  1	140	  4	  2	  3	  2	  5	  1	  1	  1	0.45890	  1	0.60000	  0	 23	 62	 63	  1	
17-Apr-2013	sub2315	2315	  2	  1	141	  4	  2	  2	  1	  4	  1	  2	  1	0.53620	  1	0.60000	  0	 22	 60	 61	  0	
17-Apr-2013	sub2315	2315	  2	  1	142	  4	  2	  4	  3	  3	  1	  2	  1	0.50297	  1	0.60000	  0	 24	 62	 63	  0	
17-Apr-2013	sub2315	2315	  2	  1	143	  4	  2	  3	  2	  5	  1	  2	  0	0.44464	  0	0.60000	  0	 23	 82	 83	  1	
17-Apr-2013	sub2315	2315	  2	  1	144	  4	  2	  5	  6	  1	  0	  2	  1	0.49143	  0	0.60000	  0	 25	 87	 68	  1	
17-Apr-2013	sub2315	2315	  2	  1	145	  4	  2	  1	  5	  2	  1	  1	  1	0.57237	  1	0.60000	  0	 21	 60	 61	  0	
17-Apr-2013	sub2315	2315	  2	  1	146	  4	  2	  2	  1	  4	  1	  2	  1	0.46052	  1	0.60000	  0	 22	 60	 61	  1	
17-Apr-2013	sub2315	2315	  2	  1	147	  4	  2	  1	  5	  2	  1	  1	  1	0.51194	  1	0.60000	  0	 21	 60	 61	  0	
17-Apr-2013	sub2315	2315	  2	  1	148	  4	  2	  3	  2	  5	  1	  2	  0	0.42967	  0	0.60000	  0	 23	 82	 83	  1	
17-Apr-2013	sub2315	2315	  2	  1	149	  4	  2	  5	  6	  1	  0	  2	  1	0.41005	  0	0.60000	  0	 25	 87	 68	  1	
17-Apr-2013	sub2315	2315	  2	  1	150	  4	  2	  5	  6	  1	  0	  1	  0	0.33010	  1	0.60000	  0	 25	 67	 88	  1	
17-Apr-2013	sub2315	2315	  2	  1	  1	  5	  1	  6	  1	  6	  0	  2	  0	0.60082	  1	0.60000	  1	 16	 37	 51	  0	
17-Apr-2013	sub2315	2315	  2	  1	  2	  5	  1	  2	  3	  5	  1	  2	  1	0.40329	  1	0.90000	  0	 12	 30	 31	  1	
17-Apr-2013	sub2315	2315	  2	  1	  3	  5	  1	  6	  1	  6	  0	  2	  0	0.34543	  1	0.90000	  0	 16	 37	 48	  1	
17-Apr-2013	sub2315	2315	  2	  1	  4	  5	  1	  1	  2	  4	  1	  2	  0	0.48827	  0	0.90000	  0	 11	 40	 41	  1	
17-Apr-2013	sub2315	2315	  2	  1	  5	  5	  1	  6	  1	  6	  1	  2	  1	0.35012	  1	0.90000	  0	 16	 35	 36	  1	
17-Apr-2013	sub2315	2315	  2	  1	  6	  5	  1	  4	  6	  6	  1	  1	  0	0.47259	  0	0.90000	  0	 14	 42	 43	  1	
17-Apr-2013	sub2315	2315	  2	  1	  7	  5	  1	  5	  5	  4	  0	  2	  1	0.43039	  0	0.90000	  0	 15	 47	 38	  1	
17-Apr-2013	sub2315	2315	  2	  1	  8	  5	  1	  3	  4	  5	  1	  2	  0	0.43217	  0	0.90000	  0	 13	 42	 43	  1	
17-Apr-2013	sub2315	2315	  2	  1	  9	  5	  1	  4	  6	  6	  1	  2	  1	0.44763	  1	0.90000	  0	 14	 32	 33	  1	
17-Apr-2013	sub2315	2315	  2	  1	 10	  5	  1	  2	  3	  5	  1	  2	  1	0.44621	  1	0.90000	  0	 12	 30	 31	  1	
17-Apr-2013	sub2315	2315	  2	  1	 11	  5	  1	  3	  4	  5	  1	  2	  0	0.44647	  0	0.90000	  0	 13	 42	 43	  1	
17-Apr-2013	sub2315	2315	  2	  1	 12	  5	  1	  4	  6	  6	  0	  2	  0	0.39594	  1	0.90000	  0	 14	 34	 49	  1	
17-Apr-2013	sub2315	2315	  2	  1	 13	  5	  1	  1	  2	  4	  1	  2	  0	0.41819	  0	0.90000	  0	 11	 40	 41	  1	
17-Apr-2013	sub2315	2315	  2	  1	 14	  5	  1	  5	  5	  4	  0	  1	  0	0.45298	  1	0.90000	  0	 15	 37	 48	  1	
17-Apr-2013	sub2315	2315	  2	  1	 15	  5	  1	  2	  3	  5	  1	  2	  1	0.42417	  1	0.90000	  0	 12	 30	 31	  1	
17-Apr-2013	sub2315	2315	  2	  1	 16	  5	  1	  4	  6	  6	  1	  1	  0	0.43142	  0	0.80000	  0	 14	 42	 43	  1	
17-Apr-2013	sub2315	2315	  2	  1	 17	  5	  1	  4	  6	  6	  1	  2	  1	0.35996	  1	0.80000	  0	 14	 32	 33	  1	
17-Apr-2013	sub2315	2315	  2	  1	 18	  5	  1	  5	  5	  4	  1	  2	  0	0.46202	  0	0.70000	  0	 15	 45	 46	  1	
17-Apr-2013	sub2315	2315	  2	  1	 19	  5	  1	  5	  5	  4	  1	  2	  0	0.39343	  0	0.70000	  0	 15	 45	 46	  1	
17-Apr-2013	sub2315	2315	  2	  1	 20	  5	  1	  3	  4	  5	  1	  1	  1	0.61461	  1	0.70000	  0	 13	 32	 33	  0	
17-Apr-2013	sub2315	2315	  2	  1	 21	  5	  1	  6	  1	  6	  1	  2	  1	0.48947	  1	0.60000	  0	 16	 35	 36	  1	
17-Apr-2013	sub2315	2315	  2	  1	 22	  5	  1	  3	  4	  5	  0	  1	  0	0.42856	  1	0.60000	  0	 13	 34	 49	  1	
17-Apr-2013	sub2315	2315	  2	  1	 23	  5	  1	  3	  4	  5	  0	  2	  1	0.43636	  0	0.60000	  0	 13	 44	 39	  1	
17-Apr-2013	sub2315	2315	  2	  1	 24	  5	  1	  4	  6	  6	  0	  2	  0	0.45518	  1	0.60000	  0	 14	 34	 49	  1	
17-Apr-2013	sub2315	2315	  2	  1	 25	  5	  1	  6	  1	  6	  1	  2	  1	0.48836	  1	0.60000	  0	 16	 35	 36	  1	
17-Apr-2013	sub2315	2315	  2	  1	 26	  5	  1	  2	  3	  5	  1	  1	  0	0.39410	  0	0.50000	  0	 12	 40	 41	  1	
17-Apr-2013	sub2315	2315	  2	  1	 27	  5	  1	  6	  1	  6	  1	  2	  1	0.38441	  1	0.50000	  0	 16	 35	 36	  1	
17-Apr-2013	sub2315	2315	  2	  1	 28	  5	  1	  2	  3	  5	  1	  2	  1	0.40662	  1	0.50000	  0	 12	 30	 31	  1	
17-Apr-2013	sub2315	2315	  2	  1	 29	  5	  1	  2	  3	  5	  1	  2	  1	0.37880	  1	0.50000	  0	 12	 30	 31	  1	
17-Apr-2013	sub2315	2315	  2	  1	 30	  5	  1	  6	  1	  6	  0	  2	  0	0.42219	  1	0.50000	  0	 16	 37	 48	  1	
17-Apr-2013	sub2315	2315	  2	  1	 31	  5	  1	  2	  3	  5	  1	  2	  1	0.47653	  1	0.50000	  0	 12	 30	 31	  1	
17-Apr-2013	sub2315	2315	  2	  1	 32	  5	  1	  4	  6	  6	  1	  1	  0	0.58035	  0	0.50000	  1	 14	 42	 51	  0	
17-Apr-2013	sub2315	2315	  2	  1	 33	  5	  1	  1	  2	  4	  1	  2	  0	0.25949	  0	0.80000	  0	 11	 40	 41	  1	
17-Apr-2013	sub2315	2315	  2	  1	 34	  5	  1	  5	  5	  4	  0	  2	  1	0.32606	  0	0.80000	  0	 15	 47	 38	  1	
17-Apr-2013	sub2315	2315	  2	  1	 35	  5	  1	  2	  3	  5	  1	  2	  1	0.53729	  1	0.70000	  0	 12	 30	 31	  0	
17-Apr-2013	sub2315	2315	  2	  1	 36	  5	  1	  3	  4	  5	  1	  1	  1	0.39095	  1	0.70000	  0	 13	 32	 33	  1	
17-Apr-2013	sub2315	2315	  2	  1	 37	  5	  1	  1	  2	  4	  1	  1	  1	0.44743	  1	0.70000	  0	 11	 30	 31	  1	
17-Apr-2013	sub2315	2315	  2	  1	 38	  5	  1	  6	  1	  6	  0	  2	  0	0.39467	  1	0.70000	  0	 16	 37	 48	  1	
17-Apr-2013	sub2315	2315	  2	  1	 39	  5	  1	  5	  5	  4	  1	  2	  0	0.49173	  0	0.70000	  0	 15	 45	 46	  1	
17-Apr-2013	sub2315	2315	  2	  1	 40	  5	  1	  4	  6	  6	  1	  2	  1	0.45431	  1	0.70000	  0	 14	 32	 33	  1	
17-Apr-2013	sub2315	2315	  2	  1	 41	  5	  1	  6	  1	  6	  1	  2	  1	0.49030	  1	0.60000	  0	 16	 35	 36	  1	
17-Apr-2013	sub2315	2315	  2	  1	 42	  5	  1	  5	  5	  4	  1	  1	  1	0.48894	  1	0.60000	  0	 15	 35	 36	  1	
17-Apr-2013	sub2315	2315	  2	  1	 43	  5	  1	  5	  5	  4	  0	  1	  0	0.51239	  1	0.60000	  0	 15	 37	 48	  0	
17-Apr-2013	sub2315	2315	  2	  1	 44	  5	  1	  3	  4	  5	  1	  1	  1	0.49561	  1	0.60000	  0	 13	 32	 33	  1	
17-Apr-2013	sub2315	2315	  2	  1	 45	  5	  1	  4	  6	  6	  1	  2	  1	0.56424	  1	0.60000	  0	 14	 32	 33	  0	
17-Apr-2013	sub2315	2315	  2	  1	 46	  5	  1	  1	  2	  4	  1	  1	  1	0.46827	  1	0.60000	  0	 11	 30	 31	  1	
17-Apr-2013	sub2315	2315	  2	  1	 47	  5	  1	  2	  3	  5	  1	  2	  1	0.58108	  1	0.60000	  0	 12	 30	 31	  0	
17-Apr-2013	sub2315	2315	  2	  1	 48	  5	  1	  6	  1	  6	  1	  2	  1	0.50522	  1	0.60000	  0	 16	 35	 36	  0	
17-Apr-2013	sub2315	2315	  2	  1	 49	  5	  1	  4	  6	  6	  1	  1	  0	0.48942	  0	0.60000	  0	 14	 42	 43	  1	
17-Apr-2013	sub2315	2315	  2	  1	 50	  5	  1	  1	  2	  4	  1	  1	  1	0.49039	  1	0.60000	  0	 11	 30	 31	  1	
17-Apr-2013	sub2315	2315	  2	  1	 51	  5	  1	  2	  3	  5	  1	  2	  1	0.51780	  1	0.50000	  1	 12	 30	 51	  0	
17-Apr-2013	sub2315	2315	  2	  1	 52	  5	  1	  6	  1	  6	  1	  2	  1	0.39171	  1	0.70000	  0	 16	 35	 36	  1	
17-Apr-2013	sub2315	2315	  2	  1	 53	  5	  1	  1	  2	  4	  1	  1	  1	0.59018	  1	0.70000	  0	 11	 30	 31	  0	
17-Apr-2013	sub2315	2315	  2	  1	 54	  5	  1	  2	  3	  5	  1	  2	  1	0.49836	  1	0.70000	  0	 12	 30	 31	  1	
17-Apr-2013	sub2315	2315	  2	  1	 55	  5	  1	  5	  5	  4	  1	  1	  1	0.45099	  1	0.70000	  0	 15	 35	 36	  1	
17-Apr-2013	sub2315	2315	  2	  1	 56	  5	  1	  2	  3	  5	  1	  1	  0	0.46465	  0	0.70000	  0	 12	 40	 41	  1	
17-Apr-2013	sub2315	2315	  2	  1	 57	  5	  1	  1	  2	  4	  1	  1	  1	0.42966	  1	0.70000	  0	 11	 30	 31	  1	
17-Apr-2013	sub2315	2315	  2	  1	 58	  5	  1	  3	  4	  5	  1	  1	  1	0.57510	  1	0.70000	  0	 13	 32	 33	  0	
17-Apr-2013	sub2315	2315	  2	  1	 59	  5	  1	  3	  4	  5	  0	  1	  0	0.41934	  1	0.70000	  0	 13	 34	 49	  1	
17-Apr-2013	sub2315	2315	  2	  1	 60	  5	  1	  5	  5	  4	  1	  2	  0	0.42697	  0	0.70000	  0	 15	 45	 46	  1	
17-Apr-2013	sub2315	2315	  2	  1	 61	  5	  1	  5	  5	  4	  0	  1	  0	0.54911	  1	0.60000	  0	 15	 37	 48	  0	
17-Apr-2013	sub2315	2315	  2	  1	 62	  5	  1	  4	  6	  6	  1	  2	  1	0.43609	  1	0.60000	  0	 14	 32	 33	  1	
17-Apr-2013	sub2315	2315	  2	  1	 63	  5	  1	  4	  6	  6	  1	  2	  1	0.44505	  1	0.60000	  0	 14	 32	 33	  1	
17-Apr-2013	sub2315	2315	  2	  1	 64	  5	  1	  6	  1	  6	  0	  2	  0	0.47234	  1	0.60000	  0	 16	 37	 48	  1	
17-Apr-2013	sub2315	2315	  2	  1	 65	  5	  1	  3	  4	  5	  1	  1	  1	0.56384	  1	0.60000	  0	 13	 32	 33	  0	
17-Apr-2013	sub2315	2315	  2	  1	 66	  5	  1	  1	  2	  4	  1	  1	  1	0.45839	  1	0.60000	  0	 11	 30	 31	  1	
17-Apr-2013	sub2315	2315	  2	  1	 67	  5	  1	  1	  2	  4	  1	  1	  1	0.41513	  1	0.60000	  0	 11	 30	 31	  1	
17-Apr-2013	sub2315	2315	  2	  1	 68	  5	  1	  6	  1	  6	  0	  2	  0	0.45377	  1	0.60000	  0	 16	 37	 48	  1	
17-Apr-2013	sub2315	2315	  2	  1	 69	  5	  1	  5	  5	  4	  0	  1	  0	0.42308	  1	0.60000	  0	 15	 37	 48	  1	
17-Apr-2013	sub2315	2315	  2	  1	 70	  5	  1	  2	  3	  5	  1	  2	  1	0.54500	  1	0.60000	  0	 12	 30	 31	  0	
17-Apr-2013	sub2315	2315	  2	  1	 71	  5	  1	  3	  4	  5	  1	  1	  1	0.46951	  1	0.60000	  0	 13	 32	 33	  1	
17-Apr-2013	sub2315	2315	  2	  1	 72	  5	  1	  3	  4	  5	  1	  1	  1	0.44369	  1	0.60000	  0	 13	 32	 33	  1	
17-Apr-2013	sub2315	2315	  2	  1	 73	  5	  1	  1	  2	  4	  1	  1	  1	0.51264	  1	0.60000	  0	 11	 30	 31	  0	
17-Apr-2013	sub2315	2315	  2	  1	 74	  5	  1	  1	  2	  4	  1	  1	  1	0.42404	  1	0.60000	  0	 11	 30	 31	  1	
17-Apr-2013	sub2315	2315	  2	  1	 75	  5	  1	  3	  4	  5	  1	  1	  1	0.45592	  1	0.60000	  0	 13	 32	 33	  1	
17-Apr-2013	sub2315	2315	  2	  1	 76	  5	  2	  4	  6	  6	  0	  1	  1	0.39927	  0	0.50000	  0	 24	 84	 69	  1	
17-Apr-2013	sub2315	2315	  2	  1	 77	  5	  2	  5	  5	  4	  0	  1	  0	0.31217	  1	0.50000	  0	 25	 67	 88	  1	
17-Apr-2013	sub2315	2315	  2	  1	 78	  5	  2	  1	  2	  4	  1	  1	  1	0.31616	  1	0.50000	  0	 21	 60	 61	  1	
17-Apr-2013	sub2315	2315	  2	  1	 79	  5	  2	  1	  2	  4	  1	  1	  1	0.36752	  1	0.50000	  0	 21	 60	 61	  1	
17-Apr-2013	sub2315	2315	  2	  1	 80	  5	  2	  6	  1	  6	  1	  1	  0	0.31277	  0	0.50000	  0	 26	 85	 86	  1	
17-Apr-2013	sub2315	2315	  2	  1	 81	  5	  2	  3	  4	  5	  1	  1	  1	0.50287	  1	0.50000	  1	 23	 62	 51	  0	
17-Apr-2013	sub2315	2315	  2	  1	 82	  5	  2	  4	  6	  6	  1	  1	  0	0.48884	  0	0.60000	  0	 24	 82	 83	  1	
17-Apr-2013	sub2315	2315	  2	  1	 83	  5	  2	  4	  6	  6	  1	  2	  1	0.48746	  1	0.60000	  0	 24	 62	 63	  1	
17-Apr-2013	sub2315	2315	  2	  1	 84	  5	  2	  2	  3	  5	  1	  2	  1	0.47083	  1	0.60000	  0	 22	 60	 61	  1	
17-Apr-2013	sub2315	2315	  2	  1	 85	  5	  2	  4	  6	  6	  1	  2	  1	0.60335	  1	0.60000	  1	 24	 62	 51	  0	
17-Apr-2013	sub2315	2315	  2	  1	 86	  5	  2	  4	  6	  6	  1	  2	  1	0.39661	  1	0.70000	  0	 24	 62	 63	  1	
17-Apr-2013	sub2315	2315	  2	  1	 87	  5	  2	  3	  4	  5	  1	  1	  1	0.48747	  1	0.70000	  0	 23	 62	 63	  1	
17-Apr-2013	sub2315	2315	  2	  1	 88	  5	  2	  2	  3	  5	  1	  2	  1	0.44918	  1	0.70000	  0	 22	 60	 61	  1	
17-Apr-2013	sub2315	2315	  2	  1	 89	  5	  2	  2	  3	  5	  1	  2	  1	0.42636	  1	0.70000	  0	 22	 60	 61	  1	
17-Apr-2013	sub2315	2315	  2	  1	 90	  5	  2	  1	  2	  4	  1	  1	  1	0.43892	  1	0.70000	  0	 21	 60	 61	  1	
17-Apr-2013	sub2315	2315	  2	  1	 91	  5	  2	  1	  2	  4	  1	  1	  1	0.42616	  1	0.70000	  0	 21	 60	 61	  1	
17-Apr-2013	sub2315	2315	  2	  1	 92	  5	  2	  4	  6	  6	  1	  1	  0	0.42830	  0	0.70000	  0	 24	 82	 83	  1	
17-Apr-2013	sub2315	2315	  2	  1	 93	  5	  2	  3	  4	  5	  1	  1	  1	0.37362	  1	0.70000	  0	 23	 62	 63	  1	
17-Apr-2013	sub2315	2315	  2	  1	 94	  5	  2	  3	  4	  5	  1	  1	  1	0.41643	  1	0.70000	  0	 23	 62	 63	  1	
17-Apr-2013	sub2315	2315	  2	  1	 95	  5	  2	  1	  2	  4	  1	  1	  1	0.44493	  1	0.70000	  0	 21	 60	 61	  1	
17-Apr-2013	sub2315	2315	  2	  1	 96	  5	  2	  3	  4	  5	  1	  1	  1	0.53890	  1	0.70000	  0	 23	 62	 63	  0	
17-Apr-2013	sub2315	2315	  2	  1	 97	  5	  2	  5	  5	  4	  0	  2	  1	0.51841	  0	0.70000	  0	 25	 87	 68	  0	
17-Apr-2013	sub2315	2315	  2	  1	 98	  5	  2	  1	  2	  4	  1	  1	  1	0.49864	  1	0.70000	  0	 21	 60	 61	  1	
17-Apr-2013	sub2315	2315	  2	  1	 99	  5	  2	  5	  5	  4	  0	  1	  0	0.42134	  1	0.70000	  0	 25	 67	 88	  1	
17-Apr-2013	sub2315	2315	  2	  1	100	  5	  2	  6	  1	  6	  1	  1	  0	0.38883	  0	0.70000	  0	 26	 85	 86	  1	
17-Apr-2013	sub2315	2315	  2	  1	101	  5	  2	  3	  4	  5	  1	  1	  1	0.46415	  1	0.60000	  0	 23	 62	 63	  1	
17-Apr-2013	sub2315	2315	  2	  1	102	  5	  2	  2	  3	  5	  1	  2	  1	0.41630	  1	0.60000	  0	 22	 60	 61	  1	
17-Apr-2013	sub2315	2315	  2	  1	103	  5	  2	  3	  4	  5	  1	  1	  1	0.49713	  1	0.60000	  0	 23	 62	 63	  1	
17-Apr-2013	sub2315	2315	  2	  1	104	  5	  2	  5	  5	  4	  0	  2	  1	0.61872	  0	0.60000	  1	 25	 87	 51	  0	
17-Apr-2013	sub2315	2315	  2	  1	105	  5	  2	  3	  4	  5	  1	  1	  1	0.48158	  1	0.70000	  0	 23	 62	 63	  1	
17-Apr-2013	sub2315	2315	  2	  1	106	  5	  2	  6	  1	  6	  1	  2	  1	0.35766	  1	0.70000	  0	 26	 65	 66	  1	
17-Apr-2013	sub2315	2315	  2	  1	107	  5	  2	  5	  5	  4	  0	  1	  0	0.38310	  1	0.70000	  0	 25	 67	 88	  1	
17-Apr-2013	sub2315	2315	  2	  1	108	  5	  2	  5	  5	  4	  0	  2	  1	0.36339	  0	0.70000	  0	 25	 87	 68	  1	
17-Apr-2013	sub2315	2315	  2	  1	109	  5	  2	  2	  3	  5	  1	  2	  1	0.50665	  1	0.70000	  0	 22	 60	 61	  0	
17-Apr-2013	sub2315	2315	  2	  1	110	  5	  2	  6	  1	  6	  0	  2	  0	0.46970	  1	0.70000	  0	 26	 67	 88	  1	
17-Apr-2013	sub2315	2315	  2	  1	111	  5	  2	  4	  6	  6	  1	  2	  1	0.57828	  1	0.70000	  0	 24	 62	 63	  0	
17-Apr-2013	sub2315	2315	  2	  1	112	  5	  2	  6	  1	  6	  0	  1	  1	0.37586	  0	0.70000	  0	 26	 87	 68	  1	
17-Apr-2013	sub2315	2315	  2	  1	113	  5	  2	  3	  4	  5	  0	  1	  0	0.37524	  1	0.70000	  0	 23	 64	 89	  1	
17-Apr-2013	sub2315	2315	  2	  1	114	  5	  2	  6	  1	  6	  1	  2	  1	0.36546	  1	0.70000	  0	 26	 65	 66	  1	
17-Apr-2013	sub2315	2315	  2	  1	115	  5	  2	  3	  4	  5	  1	  1	  1	0.38907	  1	0.70000	  0	 23	 62	 63	  1	
17-Apr-2013	sub2315	2315	  2	  1	116	  5	  2	  2	  3	  5	  1	  1	  0	0.42736	  0	0.70000	  0	 22	 80	 81	  1	
17-Apr-2013	sub2315	2315	  2	  1	117	  5	  2	  5	  5	  4	  0	  1	  0	0.42396	  1	0.70000	  0	 25	 67	 88	  1	
17-Apr-2013	sub2315	2315	  2	  1	118	  5	  2	  1	  2	  4	  1	  2	  0	0.38457	  0	0.70000	  0	 21	 80	 81	  1	
17-Apr-2013	sub2315	2315	  2	  1	119	  5	  2	  6	  1	  6	  0	  2	  0	0.41102	  1	0.70000	  0	 26	 67	 88	  1	
17-Apr-2013	sub2315	2315	  2	  1	120	  5	  2	  6	  1	  6	  0	  2	  0	0.41816	  1	0.70000	  0	 26	 67	 88	  1	
17-Apr-2013	sub2315	2315	  2	  1	121	  5	  2	  5	  5	  4	  0	  2	  1	0.60933	  0	0.60000	  1	 25	 87	 51	  0	
17-Apr-2013	sub2315	2315	  2	  1	122	  5	  2	  5	  5	  4	  0	  2	  1	0.43328	  0	0.70000	  0	 25	 87	 68	  1	
17-Apr-2013	sub2315	2315	  2	  1	123	  5	  2	  4	  6	  6	  1	  2	  1	0.48442	  1	0.70000	  0	 24	 62	 63	  1	
17-Apr-2013	sub2315	2315	  2	  1	124	  5	  2	  1	  2	  4	  1	  2	  0	0.40332	  0	0.70000	  0	 21	 80	 81	  1	
17-Apr-2013	sub2315	2315	  2	  1	125	  5	  2	  2	  3	  5	  1	  2	  1	0.45220	  1	0.70000	  0	 22	 60	 61	  1	
17-Apr-2013	sub2315	2315	  2	  1	126	  5	  2	  2	  3	  5	  1	  2	  1	0.37880	  1	0.70000	  0	 22	 60	 61	  1	
17-Apr-2013	sub2315	2315	  2	  1	127	  5	  2	  1	  2	  4	  1	  1	  1	0.45049	  1	0.70000	  0	 21	 60	 61	  1	
17-Apr-2013	sub2315	2315	  2	  1	128	  5	  2	  4	  6	  6	  1	  2	  1	0.54504	  1	0.70000	  0	 24	 62	 63	  0	
17-Apr-2013	sub2315	2315	  2	  1	129	  5	  2	  4	  6	  6	  0	  2	  0	0.38802	  1	0.70000	  0	 24	 64	 89	  1	
17-Apr-2013	sub2315	2315	  2	  1	130	  5	  2	  6	  1	  6	  1	  2	  1	0.43498	  1	0.70000	  0	 26	 65	 66	  1	
17-Apr-2013	sub2315	2315	  2	  1	131	  5	  2	  3	  4	  5	  0	  1	  0	0.47196	  1	0.70000	  0	 23	 64	 89	  1	
17-Apr-2013	sub2315	2315	  2	  1	132	  5	  2	  1	  2	  4	  1	  1	  1	0.43631	  1	0.70000	  0	 21	 60	 61	  1	
17-Apr-2013	sub2315	2315	  2	  1	133	  5	  2	  2	  3	  5	  1	  2	  1	0.45617	  1	0.70000	  0	 22	 60	 61	  1	
17-Apr-2013	sub2315	2315	  2	  1	134	  5	  2	  1	  2	  4	  1	  1	  1	0.53352	  1	0.70000	  0	 21	 60	 61	  0	
17-Apr-2013	sub2315	2315	  2	  1	135	  5	  2	  2	  3	  5	  1	  2	  1	0.48016	  1	0.70000	  0	 22	 60	 61	  1	
17-Apr-2013	sub2315	2315	  2	  1	136	  5	  2	  2	  3	  5	  1	  2	  1	0.45691	  1	0.70000	  0	 22	 60	 61	  1	
17-Apr-2013	sub2315	2315	  2	  1	137	  5	  2	  1	  2	  4	  1	  1	  1	0.46868	  1	0.70000	  0	 21	 60	 61	  1	
17-Apr-2013	sub2315	2315	  2	  1	138	  5	  2	  4	  6	  6	  1	  2	  1	0.56130	  1	0.70000	  0	 24	 62	 63	  0	
17-Apr-2013	sub2315	2315	  2	  1	139	  5	  2	  4	  6	  6	  1	  2	  1	0.39845	  1	0.70000	  0	 24	 62	 63	  1	
17-Apr-2013	sub2315	2315	  2	  1	140	  5	  2	  3	  4	  5	  1	  2	  0	0.38647	  0	0.70000	  0	 23	 82	 83	  1	
17-Apr-2013	sub2315	2315	  2	  1	141	  5	  2	  5	  5	  4	  0	  2	  1	0.52906	  0	0.60000	  0	 25	 87	 68	  0	
17-Apr-2013	sub2315	2315	  2	  1	142	  5	  2	  4	  6	  6	  0	  2	  0	0.50011	  1	0.60000	  0	 24	 64	 89	  1	
17-Apr-2013	sub2315	2315	  2	  1	143	  5	  2	  5	  5	  4	  0	  2	  1	0.55269	  0	0.60000	  0	 25	 87	 68	  0	
17-Apr-2013	sub2315	2315	  2	  1	144	  5	  2	  6	  1	  6	  0	  2	  0	0.53336	  1	0.60000	  0	 26	 67	 88	  0	
17-Apr-2013	sub2315	2315	  2	  1	145	  5	  2	  6	  1	  6	  1	  1	  0	0.52487	  0	0.60000	  0	 26	 85	 86	  0	
17-Apr-2013	sub2315	2315	  2	  1	146	  5	  2	  6	  1	  6	  0	  2	  0	0.35624	  1	0.60000	  0	 26	 67	 88	  1	
17-Apr-2013	sub2315	2315	  2	  1	147	  5	  2	  5	  5	  4	  0	  2	  1	0.51937	  0	0.60000	  0	 25	 87	 68	  0	
17-Apr-2013	sub2315	2315	  2	  1	148	  5	  2	  1	  2	  4	  1	  1	  1	0.61835	  1	0.60000	  1	 21	 60	 51	  0	
17-Apr-2013	sub2315	2315	  2	  1	149	  5	  2	  5	  5	  4	  0	  2	  1	0.41931	  0	0.70000	  0	 25	 87	 68	  1	
17-Apr-2013	sub2315	2315	  2	  1	150	  5	  2	  2	  3	  5	  1	  2	  1	0.58604	  1	0.70000	  0	 22	 60	 61	  0	
17-Apr-2013	sub2315	2315	  2	  1	  1	  6	  1	  2	  2	  3	  1	  2	  1	0.57876	  1	0.60000	  0	 12	 30	 31	  0	
17-Apr-2013	sub2315	2315	  2	  1	  2	  6	  1	  1	  6	  4	  1	  2	  0	0.51998	  0	0.30000	  1	 11	 40	 51	  0	
17-Apr-2013	sub2315	2315	  2	  1	  3	  6	  1	  6	  3	  2	  0	  2	  0	0.45916	  1	0.90000	  0	 16	 37	 48	  1	
17-Apr-2013	sub2315	2315	  2	  1	  4	  6	  1	  1	  6	  4	  1	  2	  0	0.47282	  0	0.90000	  0	 11	 40	 41	  1	
17-Apr-2013	sub2315	2315	  2	  1	  5	  6	  1	  3	  5	  1	  0	  2	  1	0.52870	  0	0.90000	  0	 13	 44	 39	  0	
17-Apr-2013	sub2315	2315	  2	  1	  6	  6	  1	  2	  2	  3	  1	  2	  1	0.44666	  1	0.90000	  0	 12	 30	 31	  1	
17-Apr-2013	sub2315	2315	  2	  1	  7	  6	  1	  2	  2	  3	  1	  2	  1	0.40369	  1	0.90000	  0	 12	 30	 31	  1	
17-Apr-2013	sub2315	2315	  2	  1	  8	  6	  1	  6	  3	  2	  1	  2	  1	0.44956	  1	0.90000	  0	 16	 35	 36	  1	
17-Apr-2013	sub2315	2315	  2	  1	  9	  6	  1	  2	  2	  3	  1	  2	  1	0.42718	  1	0.90000	  0	 12	 30	 31	  1	
17-Apr-2013	sub2315	2315	  2	  1	 10	  6	  1	  4	  1	  1	  1	  2	  1	0.48848	  1	0.90000	  0	 14	 32	 33	  1	
17-Apr-2013	sub2315	2315	  2	  1	 11	  6	  1	  3	  5	  1	  1	  2	  0	0.48395	  0	0.90000	  0	 13	 42	 43	  1	
17-Apr-2013	sub2315	2315	  2	  1	 12	  6	  1	  6	  3	  2	  0	  2	  0	0.48012	  1	0.90000	  0	 16	 37	 48	  1	
17-Apr-2013	sub2315	2315	  2	  1	 13	  6	  1	  5	  4	  2	  0	  1	  0	0.56046	  1	0.90000	  0	 15	 37	 48	  0	
17-Apr-2013	sub2315	2315	  2	  1	 14	  6	  1	  2	  2	  3	  1	  2	  1	0.55942	  1	0.90000	  0	 12	 30	 31	  0	
17-Apr-2013	sub2315	2315	  2	  1	 15	  6	  1	  3	  5	  1	  1	  1	  1	0.60422	  1	0.90000	  0	 13	 32	 33	  0	
17-Apr-2013	sub2315	2315	  2	  1	 16	  6	  1	  6	  3	  2	  1	  1	  0	0.66554	  0	0.80000	  0	 16	 45	 46	  0	
17-Apr-2013	sub2315	2315	  2	  1	 17	  6	  1	  1	  6	  4	  1	  1	  1	0.47338	  1	0.80000	  0	 11	 30	 31	  1	
17-Apr-2013	sub2315	2315	  2	  1	 18	  6	  1	  5	  4	  2	  0	  1	  0	0.51179	  1	0.70000	  0	 15	 37	 48	  0	
17-Apr-2013	sub2315	2315	  2	  1	 19	  6	  1	  6	  3	  2	  1	  2	  1	0.48593	  1	0.70000	  0	 16	 35	 36	  1	
17-Apr-2013	sub2315	2315	  2	  1	 20	  6	  1	  6	  3	  2	  1	  2	  1	0.41245	  1	0.70000	  0	 16	 35	 36	  1	
17-Apr-2013	sub2315	2315	  2	  1	 21	  6	  1	  1	  6	  4	  1	  2	  0	0.57501	  0	0.60000	  0	 11	 40	 41	  0	
17-Apr-2013	sub2315	2315	  2	  1	 22	  6	  1	  1	  6	  4	  1	  1	  1	0.57499	  1	0.60000	  0	 11	 30	 31	  0	
17-Apr-2013	sub2315	2315	  2	  1	 23	  6	  1	  6	  3	  2	  0	  2	  0	0.51871	  1	0.60000	  0	 16	 37	 48	  0	
17-Apr-2013	sub2315	2315	  2	  1	 24	  6	  1	  5	  4	  2	  1	  1	  1	0.42694	  1	0.60000	  0	 15	 35	 36	  1	
17-Apr-2013	sub2315	2315	  2	  1	 25	  6	  1	  4	  1	  1	  1	  2	  1	0.47126	  1	0.60000	  0	 14	 32	 33	  1	
17-Apr-2013	sub2315	2315	  2	  1	 26	  6	  1	  6	  3	  2	  0	  2	  0	0.45427	  1	0.50000	  0	 16	 37	 48	  1	
17-Apr-2013	sub2315	2315	  2	  1	 27	  6	  1	  5	  4	  2	  0	  1	  0	0.43133	  1	0.50000	  0	 15	 37	 48	  1	
17-Apr-2013	sub2315	2315	  2	  1	 28	  6	  1	  5	  4	  2	  1	  1	  1	0.40420	  1	0.50000	  0	 15	 35	 36	  1	
17-Apr-2013	sub2315	2315	  2	  1	 29	  6	  1	  3	  5	  1	  1	  1	  1	0.51025	  1	0.50000	  1	 13	 32	 51	  0	
17-Apr-2013	sub2315	2315	  2	  1	 30	  6	  1	  5	  4	  2	  1	  1	  1	0.41834	  1	0.80000	  0	 15	 35	 36	  1	
17-Apr-2013	sub2315	2315	  2	  1	 31	  6	  1	  3	  5	  1	  1	  1	  1	0.37324	  1	0.80000	  0	 13	 32	 33	  1	
17-Apr-2013	sub2315	2315	  2	  1	 32	  6	  1	  3	  5	  1	  0	  1	  0	0.47680	  1	0.80000	  0	 13	 34	 49	  1	
17-Apr-2013	sub2315	2315	  2	  1	 33	  6	  1	  3	  5	  1	  1	  1	  1	0.37691	  1	0.80000	  0	 13	 32	 33	  1	
17-Apr-2013	sub2315	2315	  2	  1	 34	  6	  1	  5	  4	  2	  1	  1	  1	0.40585	  1	0.80000	  0	 15	 35	 36	  1	
17-Apr-2013	sub2315	2315	  2	  1	 35	  6	  1	  1	  6	  4	  1	  2	  0	0.51130	  0	0.70000	  0	 11	 40	 41	  0	
17-Apr-2013	sub2315	2315	  2	  1	 36	  6	  1	  4	  1	  1	  1	  2	  1	0.47651	  1	0.70000	  0	 14	 32	 33	  1	
17-Apr-2013	sub2315	2315	  2	  1	 37	  6	  1	  3	  5	  1	  1	  1	  1	0.54453	  1	0.70000	  0	 13	 32	 33	  0	
17-Apr-2013	sub2315	2315	  2	  1	 38	  6	  1	  3	  5	  1	  0	  1	  0	0.41655	  1	0.70000	  0	 13	 34	 49	  1	
17-Apr-2013	sub2315	2315	  2	  1	 39	  6	  1	  6	  3	  2	  1	  1	  0	0.41665	  0	0.70000	  0	 16	 45	 46	  1	
17-Apr-2013	sub2315	2315	  2	  1	 40	  6	  1	  1	  6	  4	  1	  2	  0	0.54862	  0	0.70000	  0	 11	 40	 41	  0	
17-Apr-2013	sub2315	2315	  2	  1	 41	  6	  1	  2	  2	  3	  1	  2	  1	0.52954	  1	0.60000	  0	 12	 30	 31	  0	
17-Apr-2013	sub2315	2315	  2	  1	 42	  6	  1	  3	  5	  1	  1	  1	  1	0.47523	  1	0.60000	  0	 13	 32	 33	  1	
17-Apr-2013	sub2315	2315	  2	  1	 43	  6	  1	  5	  4	  2	  1	  1	  1	0.52595	  1	0.60000	  0	 15	 35	 36	  0	
17-Apr-2013	sub2315	2315	  2	  1	 44	  6	  1	  2	  2	  3	  1	  2	  1	0.62831	  1	0.60000	  1	 12	 30	 51	  0	
17-Apr-2013	sub2315	2315	  2	  1	 45	  6	  1	  1	  6	  4	  1	  1	  1	0.48703	  1	0.80000	  0	 11	 30	 31	  1	
17-Apr-2013	sub2315	2315	  2	  1	 46	  6	  1	  1	  6	  4	  1	  1	  1	0.40552	  1	0.80000	  0	 11	 30	 31	  1	
17-Apr-2013	sub2315	2315	  2	  1	 47	  6	  1	  5	  4	  2	  0	  1	  0	0.50120	  1	0.80000	  0	 15	 37	 48	  0	
17-Apr-2013	sub2315	2315	  2	  1	 48	  6	  1	  5	  4	  2	  1	  1	  1	0.45162	  1	0.80000	  0	 15	 35	 36	  1	
17-Apr-2013	sub2315	2315	  2	  1	 49	  6	  1	  4	  1	  1	  0	  2	  0	0.49958	  1	0.80000	  0	 14	 34	 49	  1	
17-Apr-2013	sub2315	2315	  2	  1	 50	  6	  1	  4	  1	  1	  1	  2	  1	0.49392	  1	0.80000	  0	 14	 32	 33	  1	
17-Apr-2013	sub2315	2315	  2	  1	 51	  6	  1	  4	  1	  1	  0	  2	  0	0.59424	  1	0.70000	  0	 14	 34	 49	  0	
17-Apr-2013	sub2315	2315	  2	  1	 52	  6	  1	  2	  2	  3	  1	  2	  1	0.49052	  1	0.70000	  0	 12	 30	 31	  1	
17-Apr-2013	sub2315	2315	  2	  1	 53	  6	  1	  3	  5	  1	  1	  1	  1	0.53735	  1	0.70000	  0	 13	 32	 33	  0	
17-Apr-2013	sub2315	2315	  2	  1	 54	  6	  1	  3	  5	  1	  1	  1	  1	0.51070	  1	0.70000	  0	 13	 32	 33	  0	
17-Apr-2013	sub2315	2315	  2	  1	 55	  6	  1	  2	  2	  3	  1	  2	  1	0.57037	  1	0.70000	  0	 12	 30	 31	  0	
17-Apr-2013	sub2315	2315	  2	  1	 56	  6	  1	  4	  1	  1	  1	  2	  1	0.54869	  1	0.70000	  0	 14	 32	 33	  0	
17-Apr-2013	sub2315	2315	  2	  1	 57	  6	  1	  2	  2	  3	  1	  2	  1	0.49997	  1	0.70000	  0	 12	 30	 31	  1	
17-Apr-2013	sub2315	2315	  2	  1	 58	  6	  1	  2	  2	  3	  1	  2	  1	0.49051	  1	0.70000	  0	 12	 30	 31	  1	
17-Apr-2013	sub2315	2315	  2	  1	 59	  6	  1	  4	  1	  1	  1	  2	  1	0.51758	  1	0.70000	  0	 14	 32	 33	  0	
17-Apr-2013	sub2315	2315	  2	  1	 60	  6	  1	  5	  4	  2	  0	  1	  0	0.50905	  1	0.70000	  0	 15	 37	 48	  0	
17-Apr-2013	sub2315	2315	  2	  1	 61	  6	  1	  6	  3	  2	  1	  2	  1	0.52696	  1	0.60000	  0	 16	 35	 36	  0	
17-Apr-2013	sub2315	2315	  2	  1	 62	  6	  1	  6	  3	  2	  0	  2	  0	0.47270	  1	0.60000	  0	 16	 37	 48	  1	
17-Apr-2013	sub2315	2315	  2	  1	 63	  6	  1	  4	  1	  1	  1	  2	  1	0.54267	  1	0.60000	  0	 14	 32	 33	  0	
17-Apr-2013	sub2315	2315	  2	  1	 64	  6	  1	  6	  3	  2	  0	  2	  0	0.91383	  1	0.60000	  1	 16	 37	 51	  0	
17-Apr-2013	sub2315	2315	  2	  1	 65	  6	  1	  1	  6	  4	  1	  1	  1	0.52207	  1	0.80000	  0	 11	 30	 31	  0	
17-Apr-2013	sub2315	2315	  2	  1	 66	  6	  1	  4	  1	  1	  1	  2	  1	0.55502	  1	0.80000	  0	 14	 32	 33	  0	
17-Apr-2013	sub2315	2315	  2	  1	 67	  6	  1	  6	  3	  2	  0	  2	  0	0.55548	  1	0.80000	  0	 16	 37	 48	  0	
17-Apr-2013	sub2315	2315	  2	  1	 68	  6	  1	  5	  4	  2	  1	  1	  1	0.50448	  1	0.70000	  0	 15	 35	 36	  0	
17-Apr-2013	sub2315	2315	  2	  1	 69	  6	  1	  4	  1	  1	  1	  2	  1	0.79626	  1	0.70000	  1	 14	 32	 51	  0	
17-Apr-2013	sub2315	2315	  2	  1	 70	  6	  1	  1	  6	  4	  1	  1	  1	0.49497	  1	0.90000	  0	 11	 30	 31	  1	
17-Apr-2013	sub2315	2315	  2	  1	 71	  6	  1	  1	  6	  4	  1	  1	  1	0.51751	  1	0.90000	  0	 11	 30	 31	  0	
17-Apr-2013	sub2315	2315	  2	  1	 72	  6	  1	  2	  2	  3	  1	  2	  1	0.48400	  1	0.90000	  0	 12	 30	 31	  1	
17-Apr-2013	sub2315	2315	  2	  1	 73	  6	  1	  4	  1	  1	  1	  2	  1	0.52175	  1	0.80000	  0	 14	 32	 33	  0	
17-Apr-2013	sub2315	2315	  2	  1	 74	  6	  1	  3	  5	  1	  1	  1	  1	0.52151	  1	0.80000	  0	 13	 32	 33	  0	
17-Apr-2013	sub2315	2315	  2	  1	 75	  6	  1	  2	  2	  3	  1	  2	  1	0.48950	  1	0.80000	  0	 12	 30	 31	  1	
17-Apr-2013	sub2315	2315	  2	  1	 76	  6	  2	  4	  1	  1	  0	  2	  0	0.57637	  1	0.80000	  0	 24	 64	 89	  0	
17-Apr-2013	sub2315	2315	  2	  1	 77	  6	  2	  2	  2	  3	  1	  2	  1	0.48667	  1	0.80000	  0	 22	 60	 61	  1	
17-Apr-2013	sub2315	2315	  2	  1	 78	  6	  2	  3	  5	  1	  1	  1	  1	0.52279	  1	0.80000	  0	 23	 62	 63	  0	
17-Apr-2013	sub2315	2315	  2	  1	 79	  6	  2	  2	  2	  3	  1	  2	  1	0.59136	  1	0.80000	  0	 22	 60	 61	  0	
17-Apr-2013	sub2315	2315	  2	  1	 80	  6	  2	  2	  2	  3	  1	  2	  1	0.48624	  1	0.80000	  0	 22	 60	 61	  1	
17-Apr-2013	sub2315	2315	  2	  1	 81	  6	  2	  3	  5	  1	  1	  1	  1	0.50489	  1	0.80000	  0	 23	 62	 63	  0	
17-Apr-2013	sub2315	2315	  2	  1	 82	  6	  2	  4	  1	  1	  1	  2	  1	0.50374	  1	0.80000	  0	 24	 62	 63	  0	
17-Apr-2013	sub2315	2315	  2	  1	 83	  6	  2	  4	  1	  1	  0	  1	  1	0.48139	  0	0.80000	  0	 24	 84	 69	  1	
17-Apr-2013	sub2315	2315	  2	  1	 84	  6	  2	  2	  2	  3	  1	  2	  1	0.50736	  1	0.80000	  0	 22	 60	 61	  0	
17-Apr-2013	sub2315	2315	  2	  1	 85	  6	  2	  4	  1	  1	  1	  2	  1	0.43996	  1	0.70000	  0	 24	 62	 63	  1	
17-Apr-2013	sub2315	2315	  2	  1	 86	  6	  2	  2	  2	  3	  1	  2	  1	0.47933	  1	0.70000	  0	 22	 60	 61	  1	
17-Apr-2013	sub2315	2315	  2	  1	 87	  6	  2	  5	  4	  2	  0	  1	  0	0.51357	  1	0.70000	  0	 25	 67	 88	  0	
17-Apr-2013	sub2315	2315	  2	  1	 88	  6	  2	  1	  6	  4	  1	  1	  1	0.45789	  1	0.70000	  0	 21	 60	 61	  1	
17-Apr-2013	sub2315	2315	  2	  1	 89	  6	  2	  2	  2	  3	  1	  2	  1	0.48616	  1	0.70000	  0	 22	 60	 61	  1	
17-Apr-2013	sub2315	2315	  2	  1	 90	  6	  2	  5	  4	  2	  0	  1	  0	0.49610	  1	0.70000	  0	 25	 67	 88	  1	
17-Apr-2013	sub2315	2315	  2	  1	 91	  6	  2	  1	  6	  4	  1	  1	  1	0.53750	  1	0.70000	  0	 21	 60	 61	  0	
17-Apr-2013	sub2315	2315	  2	  1	 92	  6	  2	  3	  5	  1	  1	  1	  1	0.56075	  1	0.70000	  0	 23	 62	 63	  0	
17-Apr-2013	sub2315	2315	  2	  1	 93	  6	  2	  1	  6	  4	  1	  1	  1	0.39714	  1	0.70000	  0	 21	 60	 61	  1	
17-Apr-2013	sub2315	2315	  2	  1	 94	  6	  2	  5	  4	  2	  0	  1	  0	0.46519	  1	0.70000	  0	 25	 67	 88	  1	
17-Apr-2013	sub2315	2315	  2	  1	 95	  6	  2	  6	  3	  2	  1	  2	  1	0.57501	  1	0.70000	  0	 26	 65	 66	  0	
17-Apr-2013	sub2315	2315	  2	  1	 96	  6	  2	  2	  2	  3	  1	  2	  1	0.48112	  1	0.70000	  0	 22	 60	 61	  1	
17-Apr-2013	sub2315	2315	  2	  1	 97	  6	  2	  6	  3	  2	  1	  2	  1	0.45502	  1	0.70000	  0	 26	 65	 66	  1	
17-Apr-2013	sub2315	2315	  2	  1	 98	  6	  2	  4	  1	  1	  1	  2	  1	0.56976	  1	0.70000	  0	 24	 62	 63	  0	
17-Apr-2013	sub2315	2315	  2	  1	 99	  6	  2	  5	  4	  2	  0	  1	  0	0.45980	  1	0.70000	  0	 25	 67	 88	  1	
17-Apr-2013	sub2315	2315	  2	  1	100	  6	  2	  4	  1	  1	  1	  2	  1	0.52074	  1	0.70000	  0	 24	 62	 63	  0	
17-Apr-2013	sub2315	2315	  2	  1	101	  6	  2	  4	  1	  1	  1	  2	  1	0.43295	  1	0.60000	  0	 24	 62	 63	  1	
17-Apr-2013	sub2315	2315	  2	  1	102	  6	  2	  4	  1	  1	  1	  2	  1	0.42839	  1	0.60000	  0	 24	 62	 63	  1	
17-Apr-2013	sub2315	2315	  2	  1	103	  6	  2	  6	  3	  2	  1	  2	  1	0.54458	  1	0.60000	  0	 26	 65	 66	  0	
17-Apr-2013	sub2315	2315	  2	  1	104	  6	  2	  4	  1	  1	  1	  2	  1	0.51509	  1	0.60000	  0	 24	 62	 63	  0	
17-Apr-2013	sub2315	2315	  2	  1	105	  6	  2	  5	  4	  2	  0	  1	  0	0.61271	  1	0.60000	  1	 25	 67	 51	  0	
17-Apr-2013	sub2315	2315	  2	  1	106	  6	  2	  5	  4	  2	  0	  2	  1	0.56198	  0	0.70000	  0	 25	 87	 68	  0	
17-Apr-2013	sub2315	2315	  2	  1	107	  6	  2	  3	  5	  1	  1	  1	  1	0.46589	  1	0.70000	  0	 23	 62	 63	  1	
17-Apr-2013	sub2315	2315	  2	  1	108	  6	  2	  6	  3	  2	  0	  2	  0	0.54367	  1	0.70000	  0	 26	 67	 88	  0	
17-Apr-2013	sub2315	2315	  2	  1	109	  6	  2	  4	  1	  1	  0	  2	  0	0.48209	  1	0.70000	  0	 24	 64	 89	  1	
17-Apr-2013	sub2315	2315	  2	  1	110	  6	  2	  6	  3	  2	  1	  2	  1	0.40757	  1	0.70000	  0	 26	 65	 66	  1	
17-Apr-2013	sub2315	2315	  2	  1	111	  6	  2	  2	  2	  3	  1	  2	  1	0.48781	  1	0.70000	  0	 22	 60	 61	  1	
17-Apr-2013	sub2315	2315	  2	  1	112	  6	  2	  1	  6	  4	  1	  1	  1	0.53460	  1	0.70000	  0	 21	 60	 61	  0	
17-Apr-2013	sub2315	2315	  2	  1	113	  6	  2	  1	  6	  4	  1	  1	  1	0.44042	  1	0.70000	  0	 21	 60	 61	  1	
17-Apr-2013	sub2315	2315	  2	  1	114	  6	  2	  5	  4	  2	  0	  2	  1	0.50959	  0	0.70000	  0	 25	 87	 68	  0	
17-Apr-2013	sub2315	2315	  2	  1	115	  6	  2	  5	  4	  2	  0	  2	  1	0.65386	  0	0.70000	  0	 25	 87	 68	  0	
17-Apr-2013	sub2315	2315	  2	  1	116	  6	  2	  6	  3	  2	  1	  2	  1	0.35170	  1	0.70000	  0	 26	 65	 66	  1	
17-Apr-2013	sub2315	2315	  2	  1	117	  6	  2	  3	  5	  1	  1	  2	  0	0.48607	  0	0.70000	  0	 23	 82	 83	  1	
17-Apr-2013	sub2315	2315	  2	  1	118	  6	  2	  1	  6	  4	  1	  1	  1	0.40153	  1	0.70000	  0	 21	 60	 61	  1	
17-Apr-2013	sub2315	2315	  2	  1	119	  6	  2	  3	  5	  1	  0	  1	  0	0.96809	  1	0.70000	  1	 23	 64	 51	  0	
17-Apr-2013	sub2315	2315	  2	  1	120	  6	  2	  1	  6	  4	  1	  1	  1	0.46783	  1	0.70000	  0	 21	 60	 61	  1	
17-Apr-2013	sub2315	2315	  2	  1	121	  6	  2	  1	  6	  4	  1	  1	  1	0.35697	  1	0.70000	  0	 21	 60	 61	  1	
17-Apr-2013	sub2315	2315	  2	  1	122	  6	  2	  3	  5	  1	  1	  1	  1	0.42595	  1	0.70000	  0	 23	 62	 63	  1	
17-Apr-2013	sub2315	2315	  2	  1	123	  6	  2	  4	  1	  1	  1	  2	  1	0.59206	  1	0.70000	  0	 24	 62	 63	  0	
17-Apr-2013	sub2315	2315	  2	  1	124	  6	  2	  3	  5	  1	  1	  2	  0	0.48956	  0	0.70000	  0	 23	 82	 83	  1	
17-Apr-2013	sub2315	2315	  2	  1	125	  6	  2	  5	  4	  2	  0	  1	  0	0.51047	  1	0.70000	  0	 25	 67	 88	  0	
17-Apr-2013	sub2315	2315	  2	  1	126	  6	  2	  3	  5	  1	  0	  2	  1	0.40504	  0	0.70000	  0	 23	 84	 69	  1	
17-Apr-2013	sub2315	2315	  2	  1	127	  6	  2	  2	  2	  3	  1	  2	  1	0.51624	  1	0.70000	  0	 22	 60	 61	  0	
17-Apr-2013	sub2315	2315	  2	  1	128	  6	  2	  1	  6	  4	  1	  1	  1	0.56283	  1	0.70000	  0	 21	 60	 61	  0	
17-Apr-2013	sub2315	2315	  2	  1	129	  6	  2	  1	  6	  4	  1	  1	  1	0.43961	  1	0.70000	  0	 21	 60	 61	  1	
17-Apr-2013	sub2315	2315	  2	  1	130	  6	  2	  6	  3	  2	  0	  1	  1	74.78263	  0	0.70000	  1	 26	 87	 51	  0	
17-Apr-2013	sub2315	2315	  2	  1	131	  6	  2	  5	  4	  2	  0	  2	  1	5.33450	  0	0.80000	  1	 25	 87	 51	  0	
17-Apr-2013	sub2315	2315	  2	  1	132	  6	  2	  5	  4	  2	  0	  1	  0	1.05253	  1	0.80000	  1	 25	 67	 51	  0	
17-Apr-2013	sub2315	2315	  2	  1	133	  6	  2	  6	  3	  2	  0	  2	  0	0.66151	  1	0.90000	  0	 26	 67	 88	  0	
17-Apr-2013	sub2315	2315	  2	  1	134	  6	  2	  4	  1	  1	  1	  2	  1	0.62948	  1	0.90000	  0	 24	 62	 63	  0	
17-Apr-2013	sub2315	2315	  2	  1	135	  6	  2	  5	  4	  2	  0	  1	  0	0.49061	  1	0.90000	  0	 25	 67	 88	  1	
17-Apr-2013	sub2315	2315	  2	  1	136	  6	  2	  4	  1	  1	  1	  2	  1	0.48652	  1	0.90000	  0	 24	 62	 63	  1	
17-Apr-2013	sub2315	2315	  2	  1	137	  6	  2	  5	  4	  2	  0	  1	  0	0.56435	  1	0.90000	  0	 25	 67	 88	  0	
17-Apr-2013	sub2315	2315	  2	  1	138	  6	  2	  2	  2	  3	  1	  2	  1	0.35712	  1	0.90000	  0	 22	 60	 61	  1	
17-Apr-2013	sub2315	2315	  2	  1	139	  6	  2	  6	  3	  2	  1	  2	  1	0.45115	  1	0.90000	  0	 26	 65	 66	  1	
17-Apr-2013	sub2315	2315	  2	  1	140	  6	  2	  6	  3	  2	  0	  2	  0	0.39771	  1	0.90000	  0	 26	 67	 88	  1	
17-Apr-2013	sub2315	2315	  2	  1	141	  6	  2	  2	  2	  3	  1	  2	  1	0.47004	  1	0.90000	  0	 22	 60	 61	  1	
17-Apr-2013	sub2315	2315	  2	  1	142	  6	  2	  3	  5	  1	  1	  1	  1	0.62233	  1	0.90000	  0	 23	 62	 63	  0	
17-Apr-2013	sub2315	2315	  2	  1	143	  6	  2	  3	  5	  1	  1	  1	  1	0.46917	  1	0.90000	  0	 23	 62	 63	  1	
17-Apr-2013	sub2315	2315	  2	  1	144	  6	  2	  6	  3	  2	  0	  2	  0	0.51236	  1	0.80000	  0	 26	 67	 88	  0	
17-Apr-2013	sub2315	2315	  2	  1	145	  6	  2	  2	  2	  3	  1	  2	  1	0.66552	  1	0.80000	  0	 22	 60	 61	  0	
17-Apr-2013	sub2315	2315	  2	  1	146	  6	  2	  1	  6	  4	  1	  1	  1	0.54636	  1	0.80000	  0	 21	 60	 61	  0	
17-Apr-2013	sub2315	2315	  2	  1	147	  6	  2	  6	  3	  2	  0	  2	  0	0.55128	  1	0.80000	  0	 26	 67	 88	  0	
17-Apr-2013	sub2315	2315	  2	  1	148	  6	  2	  1	  6	  4	  1	  1	  1	0.45133	  1	0.80000	  0	 21	 60	 61	  1	
17-Apr-2013	sub2315	2315	  2	  1	149	  6	  2	  3	  5	  1	  1	  1	  1	0.53590	  1	0.80000	  0	 23	 62	 63	  0	
17-Apr-2013	sub2315	2315	  2	  1	150	  6	  2	  1	  6	  4	  1	  1	  1	0.48039	  1	0.80000	  0	 21	 60	 61	  1	
