Date 	 Name 	 ID 	 Gender 	 Appearance 	 Trial 	 Block 	 Bin 	 Condition 	 Category 	 Number 	 Valid 	 Keypress 	 Correct 	 RT 	 Realcorrect 	 Deadline 	 Timeout 	 Stimtrigger 	 Resptrigger 	 Fedtrigger 	 WithinTime 	 
17-Apr-2013	sub2316	2316	  2	  0	  1	  1	  1	  3	  3	  4	  1	  1	  1	40.66449	  1	0.60000	  1	 13	 32	 51	  0	
17-Apr-2013	sub2316	2316	  2	  0	  2	  1	  1	  1	  6	  3	  1	  1	  1	0.46094	  1	0.90000	  0	 11	 30	 31	  1	
17-Apr-2013	sub2316	2316	  2	  0	  3	  1	  1	  3	  3	  4	  1	  2	  0	0.17797	  0	0.90000	  0	 13	 42	 43	  1	
17-Apr-2013	sub2316	2316	  2	  0	  4	  1	  1	  1	  6	  3	  1	  2	  0	0.44511	  0	0.90000	  0	 11	 40	 41	  1	
17-Apr-2013	sub2316	2316	  2	  0	  5	  1	  1	  5	  4	  4	  1	  1	  1	0.78308	  1	0.90000	  0	 15	 35	 36	  0	
17-Apr-2013	sub2316	2316	  2	  0	  6	  1	  1	  4	  5	  4	  0	  2	  0	0.40313	  1	0.90000	  0	 14	 34	 49	  1	
17-Apr-2013	sub2316	2316	  2	  0	  7	  1	  1	  6	  1	  3	  0	  1	  1	0.38003	  0	0.90000	  0	 16	 47	 38	  1	
17-Apr-2013	sub2316	2316	  2	  0	  8	  1	  1	  4	  5	  4	  1	  1	  0	0.27442	  0	0.90000	  0	 14	 42	 43	  1	
17-Apr-2013	sub2316	2316	  2	  0	  9	  1	  1	  6	  1	  3	  0	  1	  1	0.60931	  0	0.90000	  0	 16	 47	 38	  0	
17-Apr-2013	sub2316	2316	  2	  0	 10	  1	  1	  5	  4	  4	  0	  1	  0	0.66148	  1	0.90000	  0	 15	 37	 48	  0	
17-Apr-2013	sub2316	2316	  2	  0	 11	  1	  1	  2	  2	  2	  1	  1	  0	0.45961	  0	0.90000	  0	 12	 40	 41	  1	
17-Apr-2013	sub2316	2316	  2	  0	 12	  1	  1	  5	  4	  4	  0	  2	  1	0.34818	  0	0.90000	  0	 15	 47	 38	  1	
17-Apr-2013	sub2316	2316	  2	  0	 13	  1	  1	  2	  2	  2	  1	  2	  1	0.53764	  1	0.90000	  0	 12	 30	 31	  0	
17-Apr-2013	sub2316	2316	  2	  0	 14	  1	  1	  4	  5	  4	  1	  1	  0	0.40424	  0	0.90000	  0	 14	 42	 43	  1	
17-Apr-2013	sub2316	2316	  2	  0	 15	  1	  1	  6	  1	  3	  0	  2	  0	0.39312	  1	0.90000	  0	 16	 37	 48	  1	
17-Apr-2013	sub2316	2316	  2	  0	 16	  1	  1	  2	  2	  2	  1	  1	  0	0.42283	  0	0.80000	  0	 12	 40	 41	  1	
17-Apr-2013	sub2316	2316	  2	  0	 17	  1	  1	  6	  1	  3	  0	  1	  1	0.55760	  0	0.80000	  0	 16	 47	 38	  0	
17-Apr-2013	sub2316	2316	  2	  0	 18	  1	  1	  5	  4	  4	  1	  1	  1	0.61937	  1	0.70000	  0	 15	 35	 36	  0	
17-Apr-2013	sub2316	2316	  2	  0	 19	  1	  1	  2	  2	  2	  1	  1	  0	0.48477	  0	0.70000	  0	 12	 40	 41	  1	
17-Apr-2013	sub2316	2316	  2	  0	 20	  1	  1	  3	  3	  4	  1	  1	  1	0.58554	  1	0.70000	  0	 13	 32	 33	  0	
17-Apr-2013	sub2316	2316	  2	  0	 21	  1	  1	  4	  5	  4	  0	  1	  1	0.50297	  0	0.60000	  0	 14	 44	 39	  0	
17-Apr-2013	sub2316	2316	  2	  0	 22	  1	  1	  2	  2	  2	  1	  2	  1	0.38945	  1	0.60000	  0	 12	 30	 31	  1	
17-Apr-2013	sub2316	2316	  2	  0	 23	  1	  1	  5	  4	  4	  1	  1	  1	0.40484	  1	0.60000	  0	 15	 35	 36	  1	
17-Apr-2013	sub2316	2316	  2	  0	 24	  1	  1	  5	  4	  4	  1	  1	  1	0.45318	  1	0.60000	  0	 15	 35	 36	  1	
17-Apr-2013	sub2316	2316	  2	  0	 25	  1	  1	  3	  3	  4	  1	  2	  0	0.45006	  0	0.60000	  0	 13	 42	 43	  1	
17-Apr-2013	sub2316	2316	  2	  0	 26	  1	  1	  6	  1	  3	  1	  1	  0	0.40807	  0	0.50000	  0	 16	 45	 46	  1	
17-Apr-2013	sub2316	2316	  2	  0	 27	  1	  1	  2	  2	  2	  1	  2	  1	0.51341	  1	0.50000	  1	 12	 30	 51	  0	
17-Apr-2013	sub2316	2316	  2	  0	 28	  1	  1	  2	  2	  2	  1	  2	  1	0.56995	  1	0.90000	  0	 12	 30	 31	  0	
17-Apr-2013	sub2316	2316	  2	  0	 29	  1	  1	  3	  3	  4	  1	  1	  1	0.50327	  1	0.90000	  0	 13	 32	 33	  0	
17-Apr-2013	sub2316	2316	  2	  0	 30	  1	  1	  2	  2	  2	  1	  1	  0	0.41509	  0	0.80000	  0	 12	 40	 41	  1	
17-Apr-2013	sub2316	2316	  2	  0	 31	  1	  1	  6	  1	  3	  1	  1	  0	0.54255	  0	0.80000	  0	 16	 45	 46	  0	
17-Apr-2013	sub2316	2316	  2	  0	 32	  1	  1	  1	  6	  3	  1	  1	  1	0.50555	  1	0.80000	  0	 11	 30	 31	  0	
17-Apr-2013	sub2316	2316	  2	  0	 33	  1	  1	  3	  3	  4	  1	  1	  1	0.51042	  1	0.80000	  0	 13	 32	 33	  0	
17-Apr-2013	sub2316	2316	  2	  0	 34	  1	  1	  4	  5	  4	  1	  1	  0	0.38794	  0	0.80000	  0	 14	 42	 43	  1	
17-Apr-2013	sub2316	2316	  2	  0	 35	  1	  1	  5	  4	  4	  0	  1	  0	0.42715	  1	0.70000	  0	 15	 37	 48	  1	
17-Apr-2013	sub2316	2316	  2	  0	 36	  1	  1	  6	  1	  3	  1	  2	  1	0.39992	  1	0.70000	  0	 16	 35	 36	  1	
17-Apr-2013	sub2316	2316	  2	  0	 37	  1	  1	  6	  1	  3	  0	  2	  0	0.46632	  1	0.70000	  0	 16	 37	 48	  1	
17-Apr-2013	sub2316	2316	  2	  0	 38	  1	  1	  5	  4	  4	  0	  2	  1	0.66678	  0	0.70000	  0	 15	 47	 38	  0	
17-Apr-2013	sub2316	2316	  2	  0	 39	  1	  1	  5	  4	  4	  1	  2	  0	0.55209	  0	0.70000	  0	 15	 45	 46	  0	
17-Apr-2013	sub2316	2316	  2	  0	 40	  1	  1	  1	  6	  3	  1	  2	  0	0.53600	  0	0.70000	  0	 11	 40	 41	  0	
17-Apr-2013	sub2316	2316	  2	  0	 41	  1	  1	  4	  5	  4	  1	  1	  0	0.27414	  0	0.60000	  0	 14	 42	 43	  1	
17-Apr-2013	sub2316	2316	  2	  0	 42	  1	  1	  1	  6	  3	  1	  2	  0	0.39246	  0	0.60000	  0	 11	 40	 41	  1	
17-Apr-2013	sub2316	2316	  2	  0	 43	  1	  1	  1	  6	  3	  1	  1	  1	0.36025	  1	0.60000	  0	 11	 30	 31	  1	
17-Apr-2013	sub2316	2316	  2	  0	 44	  1	  1	  4	  5	  4	  1	  1	  0	0.41903	  0	0.60000	  0	 14	 42	 43	  1	
17-Apr-2013	sub2316	2316	  2	  0	 45	  1	  1	  4	  5	  4	  1	  1	  0	0.42063	  0	0.60000	  0	 14	 42	 43	  1	
17-Apr-2013	sub2316	2316	  2	  0	 46	  1	  1	  5	  4	  4	  0	  2	  1	0.55804	  0	0.60000	  0	 15	 47	 38	  0	
17-Apr-2013	sub2316	2316	  2	  0	 47	  1	  1	  2	  2	  2	  1	  2	  1	0.35946	  1	0.60000	  0	 12	 30	 31	  1	
17-Apr-2013	sub2316	2316	  2	  0	 48	  1	  1	  1	  6	  3	  1	  1	  1	0.57498	  1	0.60000	  0	 11	 30	 31	  0	
17-Apr-2013	sub2316	2316	  2	  0	 49	  1	  1	  6	  1	  3	  1	  1	  0	0.48307	  0	0.60000	  0	 16	 45	 46	  1	
17-Apr-2013	sub2316	2316	  2	  0	 50	  1	  1	  1	  6	  3	  1	  2	  0	0.59259	  0	0.60000	  0	 11	 40	 41	  0	
17-Apr-2013	sub2316	2316	  2	  0	 51	  1	  1	  1	  6	  3	  1	  1	  1	0.43048	  1	0.50000	  0	 11	 30	 31	  1	
17-Apr-2013	sub2316	2316	  2	  0	 52	  1	  1	  3	  3	  4	  0	  1	  0	0.44093	  1	0.50000	  0	 13	 34	 49	  1	
17-Apr-2013	sub2316	2316	  2	  0	 53	  1	  1	  6	  1	  3	  0	  2	  0	0.70563	  1	0.50000	  1	 16	 37	 51	  0	
17-Apr-2013	sub2316	2316	  2	  0	 54	  1	  1	  2	  2	  2	  1	  1	  0	0.46404	  0	0.70000	  0	 12	 40	 41	  1	
17-Apr-2013	sub2316	2316	  2	  0	 55	  1	  1	  5	  4	  4	  0	  1	  0	0.45555	  1	0.70000	  0	 15	 37	 48	  1	
17-Apr-2013	sub2316	2316	  2	  0	 56	  1	  1	  3	  3	  4	  0	  1	  0	0.50159	  1	0.70000	  0	 13	 34	 49	  0	
17-Apr-2013	sub2316	2316	  2	  0	 57	  1	  1	  6	  1	  3	  1	  2	  1	0.32539	  1	0.70000	  0	 16	 35	 36	  1	
17-Apr-2013	sub2316	2316	  2	  0	 58	  1	  1	  3	  3	  4	  1	  2	  0	0.45448	  0	0.70000	  0	 13	 42	 43	  1	
17-Apr-2013	sub2316	2316	  2	  0	 59	  1	  1	  1	  6	  3	  1	  2	  0	0.65296	  0	0.70000	  0	 11	 40	 41	  0	
17-Apr-2013	sub2316	2316	  2	  0	 60	  1	  1	  4	  5	  4	  1	  1	  0	0.40715	  0	0.70000	  0	 14	 42	 43	  1	
17-Apr-2013	sub2316	2316	  2	  0	 61	  1	  1	  3	  3	  4	  1	  1	  1	0.46049	  1	0.60000	  0	 13	 32	 33	  1	
17-Apr-2013	sub2316	2316	  2	  0	 62	  1	  1	  3	  3	  4	  1	  1	  1	0.59773	  1	0.60000	  0	 13	 32	 33	  0	
17-Apr-2013	sub2316	2316	  2	  0	 63	  1	  1	  4	  5	  4	  1	  1	  0	0.45884	  0	0.60000	  0	 14	 42	 43	  1	
17-Apr-2013	sub2316	2316	  2	  0	 64	  1	  1	  1	  6	  3	  1	  2	  0	0.42310	  0	0.60000	  0	 11	 40	 41	  1	
17-Apr-2013	sub2316	2316	  2	  0	 65	  1	  1	  4	  5	  4	  1	  1	  0	0.41663	  0	0.60000	  0	 14	 42	 43	  1	
17-Apr-2013	sub2316	2316	  2	  0	 66	  1	  1	  2	  2	  2	  1	  2	  1	0.62521	  1	0.60000	  1	 12	 30	 51	  0	
17-Apr-2013	sub2316	2316	  2	  0	 67	  1	  1	  2	  2	  2	  1	  2	  1	0.48109	  1	0.80000	  0	 12	 30	 31	  1	
17-Apr-2013	sub2316	2316	  2	  0	 68	  1	  1	  1	  6	  3	  1	  2	  0	0.56217	  0	0.70000	  0	 11	 40	 41	  0	
17-Apr-2013	sub2316	2316	  2	  0	 69	  1	  1	  2	  2	  2	  1	  2	  1	0.70142	  1	0.70000	  1	 12	 30	 51	  0	
17-Apr-2013	sub2316	2316	  2	  0	 70	  1	  1	  6	  1	  3	  1	  1	  0	0.42021	  0	0.90000	  0	 16	 45	 46	  1	
17-Apr-2013	sub2316	2316	  2	  0	 71	  1	  1	  6	  1	  3	  1	  2	  1	0.50058	  1	0.90000	  0	 16	 35	 36	  0	
17-Apr-2013	sub2316	2316	  2	  0	 72	  1	  1	  3	  3	  4	  0	  1	  0	0.72169	  1	0.90000	  0	 13	 34	 49	  0	
17-Apr-2013	sub2316	2316	  2	  0	 73	  1	  1	  5	  4	  4	  1	  2	  0	0.55838	  0	0.80000	  0	 15	 45	 46	  0	
17-Apr-2013	sub2316	2316	  2	  0	 74	  1	  1	  3	  3	  4	  1	  2	  0	0.43466	  0	0.80000	  0	 13	 42	 43	  1	
17-Apr-2013	sub2316	2316	  2	  0	 75	  1	  1	  4	  5	  4	  1	  1	  0	0.45810	  0	0.80000	  0	 14	 42	 43	  1	
17-Apr-2013	sub2316	2316	  2	  0	  1	  2	  1	  2	  5	  1	  1	  1	  0	0.56650	  0	0.60000	  0	 12	 40	 41	  0	
17-Apr-2013	sub2316	2316	  2	  0	  2	  2	  1	  2	  5	  1	  1	  1	  0	0.38807	  0	0.30000	  1	 12	 40	 51	  1	
17-Apr-2013	sub2316	2316	  2	  0	  3	  2	  1	  1	  1	  1	  1	  2	  0	0.40922	  0	0.90000	  0	 11	 40	 41	  1	
17-Apr-2013	sub2316	2316	  2	  0	  4	  2	  1	  1	  1	  1	  1	  1	  1	0.32971	  1	0.90000	  0	 11	 30	 31	  1	
17-Apr-2013	sub2316	2316	  2	  0	  5	  2	  1	  2	  5	  1	  1	  2	  1	0.51238	  1	0.90000	  0	 12	 30	 31	  0	
17-Apr-2013	sub2316	2316	  2	  0	  6	  2	  1	  5	  4	  1	  1	  1	  1	0.69672	  1	0.90000	  0	 15	 35	 36	  0	
17-Apr-2013	sub2316	2316	  2	  0	  7	  2	  1	  3	  2	  6	  1	  1	  1	0.57538	  1	0.90000	  0	 13	 32	 33	  0	
17-Apr-2013	sub2316	2316	  2	  0	  8	  2	  1	  5	  4	  1	  1	  1	  1	0.39278	  1	0.90000	  0	 15	 35	 36	  1	
17-Apr-2013	sub2316	2316	  2	  0	  9	  2	  1	  4	  6	  2	  1	  1	  0	0.56354	  0	0.90000	  0	 14	 42	 43	  0	
17-Apr-2013	sub2316	2316	  2	  0	 10	  2	  1	  2	  5	  1	  1	  2	  1	0.35165	  1	0.90000	  0	 12	 30	 31	  1	
17-Apr-2013	sub2316	2316	  2	  0	 11	  2	  1	  3	  2	  6	  1	  2	  0	0.45777	  0	0.90000	  0	 13	 42	 43	  1	
17-Apr-2013	sub2316	2316	  2	  0	 12	  2	  1	  5	  4	  1	  0	  1	  0	0.40757	  1	0.90000	  0	 15	 37	 48	  1	
17-Apr-2013	sub2316	2316	  2	  0	 13	  2	  1	  5	  4	  1	  0	  1	  0	0.49801	  1	0.90000	  0	 15	 37	 48	  1	
17-Apr-2013	sub2316	2316	  2	  0	 14	  2	  1	  6	  3	  2	  1	  1	  0	0.66402	  0	0.90000	  0	 16	 45	 46	  0	
17-Apr-2013	sub2316	2316	  2	  0	 15	  2	  1	  1	  1	  1	  1	  2	  0	0.46251	  0	0.90000	  0	 11	 40	 41	  1	
17-Apr-2013	sub2316	2316	  2	  0	 16	  2	  1	  1	  1	  1	  1	  1	  1	0.33144	  1	0.80000	  0	 11	 30	 31	  1	
17-Apr-2013	sub2316	2316	  2	  0	 17	  2	  1	  3	  2	  6	  0	  2	  1	0.29746	  0	0.80000	  0	 13	 44	 39	  1	
17-Apr-2013	sub2316	2316	  2	  0	 18	  2	  1	  3	  2	  6	  0	  1	  0	0.96128	  1	0.70000	  1	 13	 34	 51	  0	
17-Apr-2013	sub2316	2316	  2	  0	 19	  2	  1	  5	  4	  1	  0	  1	  0	0.50296	  1	0.90000	  0	 15	 37	 48	  0	
17-Apr-2013	sub2316	2316	  2	  0	 20	  2	  1	  1	  1	  1	  1	  2	  0	0.45429	  0	0.90000	  0	 11	 40	 41	  1	
17-Apr-2013	sub2316	2316	  2	  0	 21	  2	  1	  2	  5	  1	  1	  1	  0	0.38085	  0	0.90000	  0	 12	 40	 41	  1	
17-Apr-2013	sub2316	2316	  2	  0	 22	  2	  1	  2	  5	  1	  1	  2	  1	0.15252	  1	0.90000	  0	 12	 30	 31	  1	
17-Apr-2013	sub2316	2316	  2	  0	 23	  2	  1	  2	  5	  1	  1	  2	  1	0.57246	  1	0.90000	  0	 12	 30	 31	  0	
17-Apr-2013	sub2316	2316	  2	  0	 24	  2	  1	  4	  6	  2	  1	  1	  0	0.40921	  0	0.90000	  0	 14	 42	 43	  1	
17-Apr-2013	sub2316	2316	  2	  0	 25	  2	  1	  3	  2	  6	  1	  2	  0	0.65438	  0	0.90000	  0	 13	 42	 43	  0	
17-Apr-2013	sub2316	2316	  2	  0	 26	  2	  1	  1	  1	  1	  1	  1	  1	0.13032	  1	0.90000	  0	 11	 30	 31	  1	
17-Apr-2013	sub2316	2316	  2	  0	 27	  2	  1	  5	  4	  1	  1	  1	  1	0.37736	  1	0.90000	  0	 15	 35	 36	  1	
17-Apr-2013	sub2316	2316	  2	  0	 28	  2	  1	  6	  3	  2	  0	  1	  1	0.38070	  0	0.90000	  0	 16	 47	 38	  1	
17-Apr-2013	sub2316	2316	  2	  0	 29	  2	  1	  3	  2	  6	  1	  1	  1	0.45072	  1	0.90000	  0	 13	 32	 33	  1	
17-Apr-2013	sub2316	2316	  2	  0	 30	  2	  1	  6	  3	  2	  1	  2	  1	0.40744	  1	0.80000	  0	 16	 35	 36	  1	
17-Apr-2013	sub2316	2316	  2	  0	 31	  2	  1	  2	  5	  1	  1	  1	  0	0.64810	  0	0.80000	  0	 12	 40	 41	  0	
17-Apr-2013	sub2316	2316	  2	  0	 32	  2	  1	  1	  1	  1	  1	  1	  1	0.29881	  1	0.80000	  0	 11	 30	 31	  1	
17-Apr-2013	sub2316	2316	  2	  0	 33	  2	  1	  4	  6	  2	  0	  2	  0	0.23040	  1	0.80000	  0	 14	 34	 49	  1	
17-Apr-2013	sub2316	2316	  2	  0	 34	  2	  1	  4	  6	  2	  1	  1	  0	0.37557	  0	0.80000	  0	 14	 42	 43	  1	
17-Apr-2013	sub2316	2316	  2	  0	 35	  2	  1	  1	  1	  1	  1	  2	  0	0.13793	  0	0.70000	  0	 11	 40	 41	  1	
17-Apr-2013	sub2316	2316	  2	  0	 36	  2	  1	  4	  6	  2	  1	  1	  0	0.39326	  0	0.70000	  0	 14	 42	 43	  1	
17-Apr-2013	sub2316	2316	  2	  0	 37	  2	  1	  6	  3	  2	  1	  2	  1	0.40474	  1	0.70000	  0	 16	 35	 36	  1	
17-Apr-2013	sub2316	2316	  2	  0	 38	  2	  1	  2	  5	  1	  1	  2	  1	0.41794	  1	0.70000	  0	 12	 30	 31	  1	
17-Apr-2013	sub2316	2316	  2	  0	 39	  2	  1	  3	  2	  6	  1	  2	  0	0.43800	  0	0.70000	  0	 13	 42	 43	  1	
17-Apr-2013	sub2316	2316	  2	  0	 40	  2	  1	  4	  6	  2	  1	  1	  0	0.35403	  0	0.70000	  0	 14	 42	 43	  1	
17-Apr-2013	sub2316	2316	  2	  0	 41	  2	  1	  6	  3	  2	  0	  2	  0	0.66804	  1	0.60000	  1	 16	 37	 51	  0	
17-Apr-2013	sub2316	2316	  2	  0	 42	  2	  1	  6	  3	  2	  0	  2	  0	0.35668	  1	0.90000	  0	 16	 37	 48	  1	
17-Apr-2013	sub2316	2316	  2	  0	 43	  2	  1	  4	  6	  2	  1	  1	  0	0.48640	  0	0.90000	  0	 14	 42	 43	  1	
17-Apr-2013	sub2316	2316	  2	  0	 44	  2	  1	  6	  3	  2	  1	  2	  1	0.46673	  1	0.80000	  0	 16	 35	 36	  1	
17-Apr-2013	sub2316	2316	  2	  0	 45	  2	  1	  6	  3	  2	  0	  2	  0	0.58626	  1	0.80000	  0	 16	 37	 48	  0	
17-Apr-2013	sub2316	2316	  2	  0	 46	  2	  1	  3	  2	  6	  1	  1	  1	0.37105	  1	0.80000	  0	 13	 32	 33	  1	
17-Apr-2013	sub2316	2316	  2	  0	 47	  2	  1	  3	  2	  6	  1	  2	  0	0.40245	  0	0.80000	  0	 13	 42	 43	  1	
17-Apr-2013	sub2316	2316	  2	  0	 48	  2	  1	  6	  3	  2	  1	  1	  0	0.39169	  0	0.80000	  0	 16	 45	 46	  1	
17-Apr-2013	sub2316	2316	  2	  0	 49	  2	  1	  3	  2	  6	  1	  1	  1	0.58584	  1	0.80000	  0	 13	 32	 33	  0	
17-Apr-2013	sub2316	2316	  2	  0	 50	  2	  1	  2	  5	  1	  1	  2	  1	0.33964	  1	0.80000	  0	 12	 30	 31	  1	
17-Apr-2013	sub2316	2316	  2	  0	 51	  2	  1	  6	  3	  2	  1	  2	  1	0.57719	  1	0.70000	  0	 16	 35	 36	  0	
17-Apr-2013	sub2316	2316	  2	  0	 52	  2	  1	  4	  6	  2	  1	  2	  1	0.47709	  1	0.70000	  0	 14	 32	 33	  1	
17-Apr-2013	sub2316	2316	  2	  0	 53	  2	  1	  4	  6	  2	  1	  2	  1	0.32196	  1	0.70000	  0	 14	 32	 33	  1	
17-Apr-2013	sub2316	2316	  2	  0	 54	  2	  1	  3	  2	  6	  1	  2	  0	0.57866	  0	0.70000	  0	 13	 42	 43	  0	
17-Apr-2013	sub2316	2316	  2	  0	 55	  2	  1	  2	  5	  1	  1	  1	  0	0.65055	  0	0.70000	  0	 12	 40	 41	  0	
17-Apr-2013	sub2316	2316	  2	  0	 56	  2	  1	  1	  1	  1	  1	  2	  0	0.43877	  0	0.70000	  0	 11	 40	 41	  1	
17-Apr-2013	sub2316	2316	  2	  0	 57	  2	  1	  1	  1	  1	  1	  1	  1	0.58745	  1	0.70000	  0	 11	 30	 31	  0	
17-Apr-2013	sub2316	2316	  2	  0	 58	  2	  1	  5	  4	  1	  0	  2	  1	0.45491	  0	0.70000	  0	 15	 47	 38	  1	
17-Apr-2013	sub2316	2316	  2	  0	 59	  2	  1	  1	  1	  1	  1	  1	  1	0.43927	  1	0.70000	  0	 11	 30	 31	  1	
17-Apr-2013	sub2316	2316	  2	  0	 60	  2	  1	  5	  4	  1	  1	  2	  0	0.22362	  0	0.70000	  0	 15	 45	 46	  1	
17-Apr-2013	sub2316	2316	  2	  0	 61	  2	  1	  2	  5	  1	  1	  1	  0	0.31002	  0	0.60000	  0	 12	 40	 41	  1	
17-Apr-2013	sub2316	2316	  2	  0	 62	  2	  1	  5	  4	  1	  1	  2	  0	0.47376	  0	0.60000	  0	 15	 45	 46	  1	
17-Apr-2013	sub2316	2316	  2	  0	 63	  2	  1	  6	  3	  2	  0	  1	  1	0.34354	  0	0.60000	  0	 16	 47	 38	  1	
17-Apr-2013	sub2316	2316	  2	  0	 64	  2	  1	  6	  3	  2	  1	  2	  1	0.27641	  1	0.60000	  0	 16	 35	 36	  1	
17-Apr-2013	sub2316	2316	  2	  0	 65	  2	  1	  3	  2	  6	  1	  1	  1	0.95025	  1	0.60000	  1	 13	 32	 51	  0	
17-Apr-2013	sub2316	2316	  2	  0	 66	  2	  1	  6	  3	  2	  0	  1	  1	0.13341	  0	0.80000	  0	 16	 47	 38	  1	
17-Apr-2013	sub2316	2316	  2	  0	 67	  2	  1	  4	  6	  2	  1	  1	  0	0.00096	  0	0.80000	  0	 14	 42	 43	  1	
17-Apr-2013	sub2316	2316	  2	  0	 68	  2	  1	  5	  4	  1	  0	  2	  1	0.71570	  0	0.70000	  1	 15	 47	 51	  0	
17-Apr-2013	sub2316	2316	  2	  0	 69	  2	  1	  4	  6	  2	  1	  2	  1	0.32970	  1	0.90000	  0	 14	 32	 33	  1	
17-Apr-2013	sub2316	2316	  2	  0	 70	  2	  1	  1	  1	  1	  1	  2	  0	0.24297	  0	0.90000	  0	 11	 40	 41	  1	
17-Apr-2013	sub2316	2316	  2	  0	 71	  2	  1	  2	  5	  1	  1	  1	  0	0.42001	  0	0.90000	  0	 12	 40	 41	  1	
17-Apr-2013	sub2316	2316	  2	  0	 72	  2	  1	  5	  4	  1	  1	  2	  0	0.32425	  0	0.90000	  0	 15	 45	 46	  1	
17-Apr-2013	sub2316	2316	  2	  0	 73	  2	  1	  5	  4	  1	  0	  1	  0	0.14316	  1	0.80000	  0	 15	 37	 48	  1	
17-Apr-2013	sub2316	2316	  2	  0	 74	  2	  1	  3	  2	  6	  0	  2	  1	0.41382	  0	0.80000	  0	 13	 44	 39	  1	
17-Apr-2013	sub2316	2316	  2	  0	 75	  2	  1	  4	  6	  2	  0	  2	  0	0.49982	  1	0.80000	  0	 14	 34	 49	  1	
17-Apr-2013	sub2316	2316	  2	  0	 76	  2	  2	  2	  5	  1	  1	  2	  1	0.31410	  1	0.80000	  0	 22	 60	 61	  1	
17-Apr-2013	sub2316	2316	  2	  0	 77	  2	  2	  3	  2	  6	  1	  1	  1	0.43655	  1	0.80000	  0	 23	 62	 63	  1	
17-Apr-2013	sub2316	2316	  2	  0	 78	  2	  2	  1	  1	  1	  1	  1	  1	0.41398	  1	0.80000	  0	 21	 60	 61	  1	
17-Apr-2013	sub2316	2316	  2	  0	 79	  2	  2	  5	  4	  1	  0	  2	  1	0.38171	  0	0.80000	  0	 25	 87	 68	  1	
17-Apr-2013	sub2316	2316	  2	  0	 80	  2	  2	  5	  4	  1	  0	  1	  0	0.16871	  1	0.80000	  0	 25	 67	 88	  1	
17-Apr-2013	sub2316	2316	  2	  0	 81	  2	  2	  3	  2	  6	  0	  2	  1	0.00021	  0	0.80000	  0	 23	 84	 69	  1	
17-Apr-2013	sub2316	2316	  2	  0	 82	  2	  2	  6	  3	  2	  0	  1	  1	0.22467	  0	0.80000	  0	 26	 87	 68	  1	
17-Apr-2013	sub2316	2316	  2	  0	 83	  2	  2	  1	  1	  1	  1	  2	  0	0.03361	  0	0.80000	  0	 21	 80	 81	  1	
17-Apr-2013	sub2316	2316	  2	  0	 84	  2	  2	  4	  6	  2	  1	  1	  0	0.43315	  0	0.80000	  0	 24	 82	 83	  1	
17-Apr-2013	sub2316	2316	  2	  0	 85	  2	  2	  2	  5	  1	  1	  1	  0	0.66777	  0	0.70000	  0	 22	 80	 81	  0	
17-Apr-2013	sub2316	2316	  2	  0	 86	  2	  2	  2	  5	  1	  1	  2	  1	0.47939	  1	0.70000	  0	 22	 60	 61	  1	
17-Apr-2013	sub2316	2316	  2	  0	 87	  2	  2	  3	  2	  6	  1	  2	  0	0.36258	  0	0.70000	  0	 23	 82	 83	  1	
17-Apr-2013	sub2316	2316	  2	  0	 88	  2	  2	  4	  6	  2	  1	  2	  1	0.62271	  1	0.70000	  0	 24	 62	 63	  0	
17-Apr-2013	sub2316	2316	  2	  0	 89	  2	  2	  5	  4	  1	  0	  2	  1	0.45357	  0	0.70000	  0	 25	 87	 68	  1	
17-Apr-2013	sub2316	2316	  2	  0	 90	  2	  2	  5	  4	  1	  0	  2	  1	0.36745	  0	0.70000	  0	 25	 87	 68	  1	
17-Apr-2013	sub2316	2316	  2	  0	 91	  2	  2	  4	  6	  2	  1	  2	  1	0.40543	  1	0.70000	  0	 24	 62	 63	  1	
17-Apr-2013	sub2316	2316	  2	  0	 92	  2	  2	  3	  2	  6	  1	  2	  0	0.42025	  0	0.70000	  0	 23	 82	 83	  1	
17-Apr-2013	sub2316	2316	  2	  0	 93	  2	  2	  3	  2	  6	  0	  2	  1	0.31919	  0	0.70000	  0	 23	 84	 69	  1	
17-Apr-2013	sub2316	2316	  2	  0	 94	  2	  2	  5	  4	  1	  0	  2	  1	0.38809	  0	0.70000	  0	 25	 87	 68	  1	
17-Apr-2013	sub2316	2316	  2	  0	 95	  2	  2	  5	  4	  1	  0	  2	  1	0.38895	  0	0.70000	  0	 25	 87	 68	  1	
17-Apr-2013	sub2316	2316	  2	  0	 96	  2	  2	  4	  6	  2	  1	  2	  1	0.34350	  1	0.70000	  0	 24	 62	 63	  1	
17-Apr-2013	sub2316	2316	  2	  0	 97	  2	  2	  2	  5	  1	  1	  2	  1	0.39223	  1	0.70000	  0	 22	 60	 61	  1	
17-Apr-2013	sub2316	2316	  2	  0	 98	  2	  2	  2	  5	  1	  1	  2	  1	0.31826	  1	0.70000	  0	 22	 60	 61	  1	
17-Apr-2013	sub2316	2316	  2	  0	 99	  2	  2	  2	  5	  1	  1	  2	  1	0.32180	  1	0.70000	  0	 22	 60	 61	  1	
17-Apr-2013	sub2316	2316	  2	  0	100	  2	  2	  3	  2	  6	  1	  2	  0	0.00141	  0	0.70000	  0	 23	 82	 83	  1	
17-Apr-2013	sub2316	2316	  2	  0	101	  2	  2	  3	  2	  6	  1	  2	  0	0.31196	  0	0.60000	  0	 23	 82	 83	  1	
17-Apr-2013	sub2316	2316	  2	  0	102	  2	  2	  5	  4	  1	  0	  1	  0	0.38708	  1	0.60000	  0	 25	 67	 88	  1	
17-Apr-2013	sub2316	2316	  2	  0	103	  2	  2	  1	  1	  1	  1	  2	  0	0.38664	  0	0.60000	  0	 21	 80	 81	  1	
17-Apr-2013	sub2316	2316	  2	  0	104	  2	  2	  1	  1	  1	  1	  1	  1	0.42363	  1	0.60000	  0	 21	 60	 61	  1	
17-Apr-2013	sub2316	2316	  2	  0	105	  2	  2	  6	  3	  2	  1	  2	  1	0.55880	  1	0.60000	  0	 26	 65	 66	  0	
17-Apr-2013	sub2316	2316	  2	  0	106	  2	  2	  6	  3	  2	  0	  2	  0	0.47661	  1	0.60000	  0	 26	 67	 88	  1	
17-Apr-2013	sub2316	2316	  2	  0	107	  2	  2	  2	  5	  1	  1	  1	  0	0.50787	  0	0.60000	  0	 22	 80	 81	  0	
17-Apr-2013	sub2316	2316	  2	  0	108	  2	  2	  6	  3	  2	  1	  2	  1	0.26654	  1	0.60000	  0	 26	 65	 66	  1	
17-Apr-2013	sub2316	2316	  2	  0	109	  2	  2	  5	  4	  1	  0	  1	  0	0.59156	  1	0.60000	  0	 25	 67	 88	  0	
17-Apr-2013	sub2316	2316	  2	  0	110	  2	  2	  1	  1	  1	  1	  2	  0	0.34854	  0	0.60000	  0	 21	 80	 81	  1	
17-Apr-2013	sub2316	2316	  2	  0	111	  2	  2	  6	  3	  2	  0	  2	  0	0.49183	  1	0.60000	  0	 26	 67	 88	  1	
17-Apr-2013	sub2316	2316	  2	  0	112	  2	  2	  4	  6	  2	  0	  1	  1	0.40867	  0	0.60000	  0	 24	 84	 69	  1	
17-Apr-2013	sub2316	2316	  2	  0	113	  2	  2	  5	  4	  1	  0	  2	  1	0.34661	  0	0.60000	  0	 25	 87	 68	  1	
17-Apr-2013	sub2316	2316	  2	  0	114	  2	  2	  2	  5	  1	  1	  2	  1	0.48063	  1	0.60000	  0	 22	 60	 61	  1	
17-Apr-2013	sub2316	2316	  2	  0	115	  2	  2	  2	  5	  1	  1	  2	  1	0.43419	  1	0.60000	  0	 22	 60	 61	  1	
17-Apr-2013	sub2316	2316	  2	  0	116	  2	  2	  1	  1	  1	  1	  1	  1	0.44893	  1	0.60000	  0	 21	 60	 61	  1	
17-Apr-2013	sub2316	2316	  2	  0	117	  2	  2	  4	  6	  2	  0	  1	  1	0.45412	  0	0.60000	  0	 24	 84	 69	  1	
17-Apr-2013	sub2316	2316	  2	  0	118	  2	  2	  6	  3	  2	  1	  1	  0	0.38201	  0	0.60000	  0	 26	 85	 86	  1	
17-Apr-2013	sub2316	2316	  2	  0	119	  2	  2	  6	  3	  2	  1	  2	  1	0.44098	  1	0.60000	  0	 26	 65	 66	  1	
17-Apr-2013	sub2316	2316	  2	  0	120	  2	  2	  3	  2	  6	  1	  1	  1	0.48939	  1	0.60000	  0	 23	 62	 63	  1	
17-Apr-2013	sub2316	2316	  2	  0	121	  2	  2	  2	  5	  1	  1	  2	  1	0.45875	  1	0.60000	  0	 22	 60	 61	  1	
17-Apr-2013	sub2316	2316	  2	  0	122	  2	  2	  1	  1	  1	  1	  2	  0	0.58188	  0	0.60000	  0	 21	 80	 81	  0	
17-Apr-2013	sub2316	2316	  2	  0	123	  2	  2	  4	  6	  2	  1	  1	  0	0.33629	  0	0.60000	  0	 24	 82	 83	  1	
17-Apr-2013	sub2316	2316	  2	  0	124	  2	  2	  3	  2	  6	  1	  2	  0	0.62483	  0	0.60000	  1	 23	 82	 51	  0	
17-Apr-2013	sub2316	2316	  2	  0	125	  2	  2	  1	  1	  1	  1	  2	  0	0.32146	  0	0.60000	  0	 21	 80	 81	  1	
17-Apr-2013	sub2316	2316	  2	  0	126	  2	  2	  1	  1	  1	  1	  2	  0	0.37627	  0	0.60000	  0	 21	 80	 81	  1	
17-Apr-2013	sub2316	2316	  2	  0	127	  2	  2	  3	  2	  6	  1	  1	  1	0.54420	  1	0.60000	  0	 23	 62	 63	  0	
17-Apr-2013	sub2316	2316	  2	  0	128	  2	  2	  4	  6	  2	  1	  2	  1	0.34450	  1	0.60000	  0	 24	 62	 63	  1	
17-Apr-2013	sub2316	2316	  2	  0	129	  2	  2	  1	  1	  1	  1	  1	  1	0.54825	  1	0.60000	  0	 21	 60	 61	  0	
17-Apr-2013	sub2316	2316	  2	  0	130	  2	  2	  5	  4	  1	  0	  1	  0	0.39806	  1	0.60000	  0	 25	 67	 88	  1	
17-Apr-2013	sub2316	2316	  2	  0	131	  2	  2	  6	  3	  2	  1	  2	  1	0.34608	  1	0.60000	  0	 26	 65	 66	  1	
17-Apr-2013	sub2316	2316	  2	  0	132	  2	  2	  1	  1	  1	  1	  1	  1	0.41285	  1	0.60000	  0	 21	 60	 61	  1	
17-Apr-2013	sub2316	2316	  2	  0	133	  2	  2	  4	  6	  2	  1	  1	  0	0.49228	  0	0.60000	  0	 24	 82	 83	  1	
17-Apr-2013	sub2316	2316	  2	  0	134	  2	  2	  3	  2	  6	  1	  2	  0	0.46244	  0	0.60000	  0	 23	 82	 83	  1	
17-Apr-2013	sub2316	2316	  2	  0	135	  2	  2	  6	  3	  2	  1	  1	  0	0.25193	  0	0.60000	  0	 26	 85	 86	  1	
17-Apr-2013	sub2316	2316	  2	  0	136	  2	  2	  2	  5	  1	  1	  2	  1	0.46381	  1	0.60000	  0	 22	 60	 61	  1	
17-Apr-2013	sub2316	2316	  2	  0	137	  2	  2	  4	  6	  2	  0	  1	  1	0.00009	  0	0.60000	  0	 24	 84	 69	  1	
17-Apr-2013	sub2316	2316	  2	  0	138	  2	  2	  4	  6	  2	  1	  2	  1	0.48724	  1	0.60000	  0	 24	 62	 63	  1	
17-Apr-2013	sub2316	2316	  2	  0	139	  2	  2	  5	  4	  1	  0	  1	  0	0.27259	  1	0.60000	  0	 25	 67	 88	  1	
17-Apr-2013	sub2316	2316	  2	  0	140	  2	  2	  6	  3	  2	  0	  2	  0	0.27234	  1	0.60000	  0	 26	 67	 88	  1	
17-Apr-2013	sub2316	2316	  2	  0	141	  2	  2	  2	  5	  1	  1	  2	  1	0.31953	  1	0.60000	  0	 22	 60	 61	  1	
17-Apr-2013	sub2316	2316	  2	  0	142	  2	  2	  4	  6	  2	  1	  2	  1	0.37093	  1	0.60000	  0	 24	 62	 63	  1	
17-Apr-2013	sub2316	2316	  2	  0	143	  2	  2	  4	  6	  2	  1	  2	  1	0.37845	  1	0.60000	  0	 24	 62	 63	  1	
17-Apr-2013	sub2316	2316	  2	  0	144	  2	  2	  5	  4	  1	  0	  2	  1	0.32174	  0	0.60000	  0	 25	 87	 68	  1	
17-Apr-2013	sub2316	2316	  2	  0	145	  2	  2	  3	  2	  6	  1	  2	  0	0.45806	  0	0.60000	  0	 23	 82	 83	  1	
17-Apr-2013	sub2316	2316	  2	  0	146	  2	  2	  5	  4	  1	  0	  1	  0	0.42560	  1	0.60000	  0	 25	 67	 88	  1	
17-Apr-2013	sub2316	2316	  2	  0	147	  2	  2	  6	  3	  2	  0	  2	  0	0.36111	  1	0.60000	  0	 26	 67	 88	  1	
17-Apr-2013	sub2316	2316	  2	  0	148	  2	  2	  1	  1	  1	  1	  2	  0	0.33925	  0	0.60000	  0	 21	 80	 81	  1	
17-Apr-2013	sub2316	2316	  2	  0	149	  2	  2	  6	  3	  2	  0	  2	  0	0.55946	  1	0.60000	  0	 26	 67	 88	  0	
17-Apr-2013	sub2316	2316	  2	  0	150	  2	  2	  1	  1	  1	  1	  1	  1	0.61416	  1	0.60000	  1	 21	 60	 51	  0	
17-Apr-2013	sub2316	2316	  2	  0	  1	  3	  1	  2	  3	  5	  1	  1	  0	0.82494	  0	0.60000	  1	 12	 40	 51	  0	
17-Apr-2013	sub2316	2316	  2	  0	  2	  3	  1	  3	  1	  4	  0	  1	  0	0.16392	  1	0.90000	  0	 13	 34	 49	  1	
17-Apr-2013	sub2316	2316	  2	  0	  3	  3	  1	  4	  6	  6	  1	  2	  1	0.47981	  1	0.90000	  0	 14	 32	 33	  1	
17-Apr-2013	sub2316	2316	  2	  0	  4	  3	  1	  4	  6	  6	  1	  2	  1	0.29211	  1	0.90000	  0	 14	 32	 33	  1	
17-Apr-2013	sub2316	2316	  2	  0	  5	  3	  1	  1	  4	  5	  1	  1	  1	0.42316	  1	0.90000	  0	 11	 30	 31	  1	
17-Apr-2013	sub2316	2316	  2	  0	  6	  3	  1	  6	  5	  5	  1	  1	  0	0.28935	  0	0.90000	  0	 16	 45	 46	  1	
17-Apr-2013	sub2316	2316	  2	  0	  7	  3	  1	  2	  3	  5	  1	  2	  1	0.33783	  1	0.90000	  0	 12	 30	 31	  1	
17-Apr-2013	sub2316	2316	  2	  0	  8	  3	  1	  5	  2	  1	  0	  2	  1	0.75563	  0	0.90000	  0	 15	 47	 38	  0	
17-Apr-2013	sub2316	2316	  2	  0	  9	  3	  1	  1	  4	  5	  1	  2	  0	0.26177	  0	0.90000	  0	 11	 40	 41	  1	
17-Apr-2013	sub2316	2316	  2	  0	 10	  3	  1	  2	  3	  5	  1	  1	  0	0.53916	  0	0.90000	  0	 12	 40	 41	  0	
17-Apr-2013	sub2316	2316	  2	  0	 11	  3	  1	  5	  2	  1	  1	  2	  0	0.38778	  0	0.90000	  0	 15	 45	 46	  1	
17-Apr-2013	sub2316	2316	  2	  0	 12	  3	  1	  1	  4	  5	  1	  2	  0	0.62536	  0	0.90000	  0	 11	 40	 41	  0	
17-Apr-2013	sub2316	2316	  2	  0	 13	  3	  1	  2	  3	  5	  1	  2	  1	0.41544	  1	0.90000	  0	 12	 30	 31	  1	
17-Apr-2013	sub2316	2316	  2	  0	 14	  3	  1	  3	  1	  4	  1	  2	  0	0.65313	  0	0.90000	  0	 13	 42	 43	  0	
17-Apr-2013	sub2316	2316	  2	  0	 15	  3	  1	  5	  2	  1	  0	  2	  1	0.35744	  0	0.90000	  0	 15	 47	 38	  1	
17-Apr-2013	sub2316	2316	  2	  0	 16	  3	  1	  5	  2	  1	  1	  2	  0	0.39986	  0	0.80000	  0	 15	 45	 46	  1	
17-Apr-2013	sub2316	2316	  2	  0	 17	  3	  1	  5	  2	  1	  0	  2	  1	0.36601	  0	0.80000	  0	 15	 47	 38	  1	
17-Apr-2013	sub2316	2316	  2	  0	 18	  3	  1	  6	  5	  5	  1	  1	  0	0.57624	  0	0.70000	  0	 16	 45	 46	  0	
17-Apr-2013	sub2316	2316	  2	  0	 19	  3	  1	  1	  4	  5	  1	  2	  0	0.29527	  0	0.70000	  0	 11	 40	 41	  1	
17-Apr-2013	sub2316	2316	  2	  0	 20	  3	  1	  3	  1	  4	  1	  1	  1	0.53093	  1	0.70000	  0	 13	 32	 33	  0	
17-Apr-2013	sub2316	2316	  2	  0	 21	  3	  1	  4	  6	  6	  1	  2	  1	0.60703	  1	0.60000	  1	 14	 32	 51	  0	
17-Apr-2013	sub2316	2316	  2	  0	 22	  3	  1	  4	  6	  6	  0	  2	  0	0.41330	  1	0.90000	  0	 14	 34	 49	  1	
17-Apr-2013	sub2316	2316	  2	  0	 23	  3	  1	  2	  3	  5	  1	  1	  0	0.29127	  0	0.90000	  0	 12	 40	 41	  1	
17-Apr-2013	sub2316	2316	  2	  0	 24	  3	  1	  2	  3	  5	  1	  1	  0	0.42216	  0	0.90000	  0	 12	 40	 41	  1	
17-Apr-2013	sub2316	2316	  2	  0	 25	  3	  1	  1	  4	  5	  1	  2	  0	0.39781	  0	0.90000	  0	 11	 40	 41	  1	
17-Apr-2013	sub2316	2316	  2	  0	 26	  3	  1	  5	  2	  1	  1	  1	  1	0.32515	  1	0.90000	  0	 15	 35	 36	  1	
17-Apr-2013	sub2316	2316	  2	  0	 27	  3	  1	  5	  2	  1	  0	  2	  1	0.32487	  0	0.90000	  0	 15	 47	 38	  1	
17-Apr-2013	sub2316	2316	  2	  0	 28	  3	  1	  5	  2	  1	  1	  2	  0	0.36272	  0	0.90000	  0	 15	 45	 46	  1	
17-Apr-2013	sub2316	2316	  2	  0	 29	  3	  1	  3	  1	  4	  1	  2	  0	0.39553	  0	0.90000	  0	 13	 42	 43	  1	
17-Apr-2013	sub2316	2316	  2	  0	 30	  3	  1	  4	  6	  6	  1	  1	  0	0.58280	  0	0.80000	  0	 14	 42	 43	  0	
17-Apr-2013	sub2316	2316	  2	  0	 31	  3	  1	  5	  2	  1	  1	  2	  0	0.55139	  0	0.80000	  0	 15	 45	 46	  0	
17-Apr-2013	sub2316	2316	  2	  0	 32	  3	  1	  4	  6	  6	  1	  2	  1	0.36958	  1	0.80000	  0	 14	 32	 33	  1	
17-Apr-2013	sub2316	2316	  2	  0	 33	  3	  1	  4	  6	  6	  1	  2	  1	0.43785	  1	0.80000	  0	 14	 32	 33	  1	
17-Apr-2013	sub2316	2316	  2	  0	 34	  3	  1	  1	  4	  5	  1	  2	  0	0.62952	  0	0.80000	  0	 11	 40	 41	  0	
17-Apr-2013	sub2316	2316	  2	  0	 35	  3	  1	  4	  6	  6	  1	  1	  0	0.16501	  0	0.70000	  0	 14	 42	 43	  1	
17-Apr-2013	sub2316	2316	  2	  0	 36	  3	  1	  1	  4	  5	  1	  2	  0	0.30789	  0	0.70000	  0	 11	 40	 41	  1	
17-Apr-2013	sub2316	2316	  2	  0	 37	  3	  1	  6	  5	  5	  0	  2	  0	0.28162	  1	0.70000	  0	 16	 37	 48	  1	
17-Apr-2013	sub2316	2316	  2	  0	 38	  3	  1	  1	  4	  5	  1	  2	  0	0.39940	  0	0.70000	  0	 11	 40	 41	  1	
17-Apr-2013	sub2316	2316	  2	  0	 39	  3	  1	  6	  5	  5	  1	  1	  0	0.39168	  0	0.70000	  0	 16	 45	 46	  1	
17-Apr-2013	sub2316	2316	  2	  0	 40	  3	  1	  4	  6	  6	  1	  2	  1	0.49123	  1	0.70000	  0	 14	 32	 33	  1	
17-Apr-2013	sub2316	2316	  2	  0	 41	  3	  1	  6	  5	  5	  1	  2	  1	0.46893	  1	0.60000	  0	 16	 35	 36	  1	
17-Apr-2013	sub2316	2316	  2	  0	 42	  3	  1	  2	  3	  5	  1	  2	  1	0.38714	  1	0.60000	  0	 12	 30	 31	  1	
17-Apr-2013	sub2316	2316	  2	  0	 43	  3	  1	  5	  2	  1	  0	  2	  1	0.44180	  0	0.60000	  0	 15	 47	 38	  1	
17-Apr-2013	sub2316	2316	  2	  0	 44	  3	  1	  1	  4	  5	  1	  2	  0	0.53662	  0	0.60000	  0	 11	 40	 41	  0	
17-Apr-2013	sub2316	2316	  2	  0	 45	  3	  1	  4	  6	  6	  0	  2	  0	0.63170	  1	0.60000	  1	 14	 34	 51	  0	
17-Apr-2013	sub2316	2316	  2	  0	 46	  3	  1	  5	  2	  1	  1	  1	  1	0.37041	  1	0.80000	  0	 15	 35	 36	  1	
17-Apr-2013	sub2316	2316	  2	  0	 47	  3	  1	  4	  6	  6	  1	  2	  1	0.33596	  1	0.80000	  0	 14	 32	 33	  1	
17-Apr-2013	sub2316	2316	  2	  0	 48	  3	  1	  1	  4	  5	  1	  2	  0	0.35426	  0	0.80000	  0	 11	 40	 41	  1	
17-Apr-2013	sub2316	2316	  2	  0	 49	  3	  1	  5	  2	  1	  0	  1	  0	0.43379	  1	0.80000	  0	 15	 37	 48	  1	
17-Apr-2013	sub2316	2316	  2	  0	 50	  3	  1	  6	  5	  5	  0	  2	  0	0.31300	  1	0.80000	  0	 16	 37	 48	  1	
17-Apr-2013	sub2316	2316	  2	  0	 51	  3	  1	  3	  1	  4	  1	  2	  0	0.36464	  0	0.70000	  0	 13	 42	 43	  1	
17-Apr-2013	sub2316	2316	  2	  0	 52	  3	  1	  2	  3	  5	  1	  1	  0	0.44138	  0	0.70000	  0	 12	 40	 41	  1	
17-Apr-2013	sub2316	2316	  2	  0	 53	  3	  1	  3	  1	  4	  1	  2	  0	0.30827	  0	0.70000	  0	 13	 42	 43	  1	
17-Apr-2013	sub2316	2316	  2	  0	 54	  3	  1	  1	  4	  5	  1	  1	  1	0.54565	  1	0.70000	  0	 11	 30	 31	  0	
17-Apr-2013	sub2316	2316	  2	  0	 55	  3	  1	  6	  5	  5	  0	  1	  1	0.45438	  0	0.70000	  0	 16	 47	 38	  1	
17-Apr-2013	sub2316	2316	  2	  0	 56	  3	  1	  6	  5	  5	  1	  1	  0	0.44003	  0	0.70000	  0	 16	 45	 46	  1	
17-Apr-2013	sub2316	2316	  2	  0	 57	  3	  1	  2	  3	  5	  1	  2	  1	0.70774	  1	0.70000	  1	 12	 30	 51	  0	
17-Apr-2013	sub2316	2316	  2	  0	 58	  3	  1	  3	  1	  4	  1	  1	  1	0.62934	  1	0.90000	  0	 13	 32	 33	  0	
17-Apr-2013	sub2316	2316	  2	  0	 59	  3	  1	  3	  1	  4	  0	  1	  0	0.40860	  1	0.80000	  0	 13	 34	 49	  1	
17-Apr-2013	sub2316	2316	  2	  0	 60	  3	  1	  4	  6	  6	  1	  2	  1	0.43694	  1	0.80000	  0	 14	 32	 33	  1	
17-Apr-2013	sub2316	2316	  2	  0	 61	  3	  1	  3	  1	  4	  1	  2	  0	0.69887	  0	0.80000	  0	 13	 42	 43	  0	
17-Apr-2013	sub2316	2316	  2	  0	 62	  3	  1	  2	  3	  5	  1	  1	  0	0.45686	  0	0.80000	  0	 12	 40	 41	  1	
17-Apr-2013	sub2316	2316	  2	  0	 63	  3	  1	  3	  1	  4	  1	  2	  0	0.36831	  0	0.80000	  0	 13	 42	 43	  1	
17-Apr-2013	sub2316	2316	  2	  0	 64	  3	  1	  2	  3	  5	  1	  1	  0	0.39917	  0	0.80000	  0	 12	 40	 41	  1	
17-Apr-2013	sub2316	2316	  2	  0	 65	  3	  1	  3	  1	  4	  1	  2	  0	0.51725	  0	0.80000	  0	 13	 42	 43	  0	
17-Apr-2013	sub2316	2316	  2	  0	 66	  3	  1	  6	  5	  5	  0	  1	  1	0.59289	  0	0.80000	  0	 16	 47	 38	  0	
17-Apr-2013	sub2316	2316	  2	  0	 67	  3	  1	  6	  5	  5	  0	  2	  0	0.34487	  1	0.80000	  0	 16	 37	 48	  1	
17-Apr-2013	sub2316	2316	  2	  0	 68	  3	  1	  3	  1	  4	  0	  1	  0	0.41931	  1	0.70000	  0	 13	 34	 49	  1	
17-Apr-2013	sub2316	2316	  2	  0	 69	  3	  1	  6	  5	  5	  0	  2	  0	0.84492	  1	0.70000	  1	 16	 37	 51	  0	
17-Apr-2013	sub2316	2316	  2	  0	 70	  3	  1	  6	  5	  5	  0	  2	  0	0.86992	  1	0.90000	  0	 16	 37	 48	  0	
17-Apr-2013	sub2316	2316	  2	  0	 71	  3	  1	  1	  4	  5	  1	  1	  1	0.77052	  1	0.90000	  0	 11	 30	 31	  0	
17-Apr-2013	sub2316	2316	  2	  0	 72	  3	  1	  6	  5	  5	  1	  2	  1	0.45980	  1	0.90000	  0	 16	 35	 36	  1	
17-Apr-2013	sub2316	2316	  2	  0	 73	  3	  1	  2	  3	  5	  1	  2	  1	0.43327	  1	0.80000	  0	 12	 30	 31	  1	
17-Apr-2013	sub2316	2316	  2	  0	 74	  3	  1	  3	  1	  4	  1	  1	  1	0.33303	  1	0.80000	  0	 13	 32	 33	  1	
17-Apr-2013	sub2316	2316	  2	  0	 75	  3	  1	  2	  3	  5	  1	  2	  1	0.44174	  1	0.80000	  0	 12	 30	 31	  1	
17-Apr-2013	sub2316	2316	  2	  0	 76	  3	  2	  3	  1	  4	  1	  1	  1	0.33069	  1	0.80000	  0	 23	 62	 63	  1	
17-Apr-2013	sub2316	2316	  2	  0	 77	  3	  2	  4	  6	  6	  1	  2	  1	0.62709	  1	0.80000	  0	 24	 62	 63	  0	
17-Apr-2013	sub2316	2316	  2	  0	 78	  3	  2	  1	  4	  5	  1	  2	  0	0.34207	  0	0.80000	  0	 21	 80	 81	  1	
17-Apr-2013	sub2316	2316	  2	  0	 79	  3	  2	  6	  5	  5	  1	  1	  0	0.49117	  0	0.80000	  0	 26	 85	 86	  1	
17-Apr-2013	sub2316	2316	  2	  0	 80	  3	  2	  2	  3	  5	  1	  2	  1	0.64753	  1	0.80000	  0	 22	 60	 61	  0	
17-Apr-2013	sub2316	2316	  2	  0	 81	  3	  2	  1	  4	  5	  1	  2	  0	0.61218	  0	0.80000	  0	 21	 80	 81	  0	
17-Apr-2013	sub2316	2316	  2	  0	 82	  3	  2	  5	  2	  1	  0	  1	  0	0.41208	  1	0.80000	  0	 25	 67	 88	  1	
17-Apr-2013	sub2316	2316	  2	  0	 83	  3	  2	  3	  1	  4	  1	  2	  0	0.32307	  0	0.80000	  0	 23	 82	 83	  1	
17-Apr-2013	sub2316	2316	  2	  0	 84	  3	  2	  6	  5	  5	  0	  2	  0	0.42901	  1	0.80000	  0	 26	 67	 88	  1	
17-Apr-2013	sub2316	2316	  2	  0	 85	  3	  2	  3	  1	  4	  0	  1	  0	0.38207	  1	0.70000	  0	 23	 64	 89	  1	
17-Apr-2013	sub2316	2316	  2	  0	 86	  3	  2	  1	  4	  5	  1	  2	  0	0.39607	  0	0.70000	  0	 21	 80	 81	  1	
17-Apr-2013	sub2316	2316	  2	  0	 87	  3	  2	  6	  5	  5	  0	  1	  1	0.18573	  0	0.70000	  0	 26	 87	 68	  1	
17-Apr-2013	sub2316	2316	  2	  0	 88	  3	  2	  4	  6	  6	  1	  1	  0	21.35768	  0	0.70000	  1	 24	 82	 51	  0	
17-Apr-2013	sub2316	2316	  2	  0	 89	  3	  2	  1	  4	  5	  1	  2	  0	0.50902	  0	0.80000	  0	 21	 80	 81	  0	
17-Apr-2013	sub2316	2316	  2	  0	 90	  3	  2	  1	  4	  5	  1	  1	  1	0.41317	  1	0.80000	  0	 21	 60	 61	  1	
17-Apr-2013	sub2316	2316	  2	  0	 91	  3	  2	  2	  3	  5	  1	  1	  0	0.39961	  0	0.80000	  0	 22	 80	 81	  1	
17-Apr-2013	sub2316	2316	  2	  0	 92	  3	  2	  3	  1	  4	  1	  1	  1	0.29404	  1	0.80000	  0	 23	 62	 63	  1	
17-Apr-2013	sub2316	2316	  2	  0	 93	  3	  2	  6	  5	  5	  0	  2	  0	0.46513	  1	0.80000	  0	 26	 67	 88	  1	
17-Apr-2013	sub2316	2316	  2	  0	 94	  3	  2	  1	  4	  5	  1	  1	  1	0.43157	  1	0.80000	  0	 21	 60	 61	  1	
17-Apr-2013	sub2316	2316	  2	  0	 95	  3	  2	  6	  5	  5	  1	  2	  1	0.46156	  1	0.80000	  0	 26	 65	 66	  1	
17-Apr-2013	sub2316	2316	  2	  0	 96	  3	  2	  2	  3	  5	  1	  2	  1	0.62954	  1	0.80000	  0	 22	 60	 61	  0	
17-Apr-2013	sub2316	2316	  2	  0	 97	  3	  2	  6	  5	  5	  1	  2	  1	0.58371	  1	0.80000	  0	 26	 65	 66	  0	
17-Apr-2013	sub2316	2316	  2	  0	 98	  3	  2	  1	  4	  5	  1	  2	  0	0.51809	  0	0.80000	  0	 21	 80	 81	  0	
17-Apr-2013	sub2316	2316	  2	  0	 99	  3	  2	  5	  2	  1	  0	  1	  0	0.38458	  1	0.80000	  0	 25	 67	 88	  1	
17-Apr-2013	sub2316	2316	  2	  0	100	  3	  2	  3	  1	  4	  1	  2	  0	0.39121	  0	0.80000	  0	 23	 82	 83	  1	
17-Apr-2013	sub2316	2316	  2	  0	101	  3	  2	  6	  5	  5	  0	  2	  0	0.37930	  1	0.70000	  0	 26	 67	 88	  1	
17-Apr-2013	sub2316	2316	  2	  0	102	  3	  2	  2	  3	  5	  1	  1	  0	0.55491	  0	0.70000	  0	 22	 80	 81	  0	
17-Apr-2013	sub2316	2316	  2	  0	103	  3	  2	  2	  3	  5	  1	  2	  1	0.40399	  1	0.70000	  0	 22	 60	 61	  1	
17-Apr-2013	sub2316	2316	  2	  0	104	  3	  2	  3	  1	  4	  1	  2	  0	0.38093	  0	0.70000	  0	 23	 82	 83	  1	
17-Apr-2013	sub2316	2316	  2	  0	105	  3	  2	  3	  1	  4	  0	  2	  1	0.47409	  0	0.70000	  0	 23	 84	 69	  1	
17-Apr-2013	sub2316	2316	  2	  0	106	  3	  2	  1	  4	  5	  1	  2	  0	0.52383	  0	0.70000	  0	 21	 80	 81	  0	
17-Apr-2013	sub2316	2316	  2	  0	107	  3	  2	  5	  2	  1	  0	  2	  1	0.49483	  0	0.70000	  0	 25	 87	 68	  1	
17-Apr-2013	sub2316	2316	  2	  0	108	  3	  2	  5	  2	  1	  0	  2	  1	0.51784	  0	0.70000	  0	 25	 87	 68	  0	
17-Apr-2013	sub2316	2316	  2	  0	109	  3	  2	  1	  4	  5	  1	  1	  1	0.55458	  1	0.70000	  0	 21	 60	 61	  0	
17-Apr-2013	sub2316	2316	  2	  0	110	  3	  2	  5	  2	  1	  0	  2	  1	0.49000	  0	0.70000	  0	 25	 87	 68	  1	
17-Apr-2013	sub2316	2316	  2	  0	111	  3	  2	  2	  3	  5	  1	  1	  0	0.42230	  0	0.70000	  0	 22	 80	 81	  1	
17-Apr-2013	sub2316	2316	  2	  0	112	  3	  2	  3	  1	  4	  1	  2	  0	0.46354	  0	0.70000	  0	 23	 82	 83	  1	
17-Apr-2013	sub2316	2316	  2	  0	113	  3	  2	  6	  5	  5	  0	  2	  0	0.49188	  1	0.70000	  0	 26	 67	 88	  1	
17-Apr-2013	sub2316	2316	  2	  0	114	  3	  2	  4	  6	  6	  0	  2	  0	0.57379	  1	0.70000	  0	 24	 64	 89	  0	
17-Apr-2013	sub2316	2316	  2	  0	115	  3	  2	  6	  5	  5	  0	  1	  1	0.48636	  0	0.70000	  0	 26	 87	 68	  1	
17-Apr-2013	sub2316	2316	  2	  0	116	  3	  2	  2	  3	  5	  1	  1	  0	0.47052	  0	0.70000	  0	 22	 80	 81	  1	
17-Apr-2013	sub2316	2316	  2	  0	117	  3	  2	  2	  3	  5	  1	  1	  0	0.34435	  0	0.70000	  0	 22	 80	 81	  1	
17-Apr-2013	sub2316	2316	  2	  0	118	  3	  2	  2	  3	  5	  1	  2	  1	0.44667	  1	0.70000	  0	 22	 60	 61	  1	
17-Apr-2013	sub2316	2316	  2	  0	119	  3	  2	  4	  6	  6	  1	  2	  1	0.56228	  1	0.70000	  0	 24	 62	 63	  0	
17-Apr-2013	sub2316	2316	  2	  0	120	  3	  2	  1	  4	  5	  1	  2	  0	0.54629	  0	0.70000	  0	 21	 80	 81	  0	
17-Apr-2013	sub2316	2316	  2	  0	121	  3	  2	  5	  2	  1	  0	  2	  1	0.58985	  0	0.60000	  0	 25	 87	 68	  0	
17-Apr-2013	sub2316	2316	  2	  0	122	  3	  2	  1	  4	  5	  1	  2	  0	0.38536	  0	0.60000	  0	 21	 80	 81	  1	
17-Apr-2013	sub2316	2316	  2	  0	123	  3	  2	  4	  6	  6	  1	  1	  0	0.54190	  0	0.60000	  0	 24	 82	 83	  0	
17-Apr-2013	sub2316	2316	  2	  0	124	  3	  2	  5	  2	  1	  0	  2	  1	0.50464	  0	0.60000	  0	 25	 87	 68	  0	
17-Apr-2013	sub2316	2316	  2	  0	125	  3	  2	  4	  6	  6	  1	  2	  1	0.36345	  1	0.60000	  0	 24	 62	 63	  1	
17-Apr-2013	sub2316	2316	  2	  0	126	  3	  2	  6	  5	  5	  1	  2	  1	0.49699	  1	0.60000	  0	 26	 65	 66	  1	
17-Apr-2013	sub2316	2316	  2	  0	127	  3	  2	  2	  3	  5	  1	  1	  0	0.70123	  0	0.60000	  1	 22	 80	 51	  0	
17-Apr-2013	sub2316	2316	  2	  0	128	  3	  2	  5	  2	  1	  0	  2	  1	0.45592	  0	0.70000	  0	 25	 87	 68	  1	
17-Apr-2013	sub2316	2316	  2	  0	129	  3	  2	  4	  6	  6	  1	  2	  1	0.43721	  1	0.70000	  0	 24	 62	 63	  1	
17-Apr-2013	sub2316	2316	  2	  0	130	  3	  2	  5	  2	  1	  0	  2	  1	0.51555	  0	0.70000	  0	 25	 87	 68	  0	
17-Apr-2013	sub2316	2316	  2	  0	131	  3	  2	  6	  5	  5	  1	  2	  1	0.50186	  1	0.70000	  0	 26	 65	 66	  0	
17-Apr-2013	sub2316	2316	  2	  0	132	  3	  2	  5	  2	  1	  0	  1	  0	0.43853	  1	0.70000	  0	 25	 67	 88	  1	
17-Apr-2013	sub2316	2316	  2	  0	133	  3	  2	  1	  4	  5	  1	  2	  0	0.48410	  0	0.70000	  0	 21	 80	 81	  1	
17-Apr-2013	sub2316	2316	  2	  0	134	  3	  2	  1	  4	  5	  1	  1	  1	0.55198	  1	0.70000	  0	 21	 60	 61	  0	
17-Apr-2013	sub2316	2316	  2	  0	135	  3	  2	  4	  6	  6	  1	  2	  1	0.40600	  1	0.70000	  0	 24	 62	 63	  1	
17-Apr-2013	sub2316	2316	  2	  0	136	  3	  2	  3	  1	  4	  1	  2	  0	0.44629	  0	0.70000	  0	 23	 82	 83	  1	
17-Apr-2013	sub2316	2316	  2	  0	137	  3	  2	  5	  2	  1	  0	  2	  1	0.51583	  0	0.70000	  0	 25	 87	 68	  0	
17-Apr-2013	sub2316	2316	  2	  0	138	  3	  2	  3	  1	  4	  1	  2	  0	0.48491	  0	0.70000	  0	 23	 82	 83	  1	
17-Apr-2013	sub2316	2316	  2	  0	139	  3	  2	  2	  3	  5	  1	  1	  0	0.73624	  0	0.70000	  1	 22	 80	 51	  0	
17-Apr-2013	sub2316	2316	  2	  0	140	  3	  2	  4	  6	  6	  1	  2	  1	0.37952	  1	0.70000	  0	 24	 62	 63	  1	
17-Apr-2013	sub2316	2316	  2	  0	141	  3	  2	  3	  1	  4	  1	  2	  0	0.45063	  0	0.70000	  0	 23	 82	 83	  1	
17-Apr-2013	sub2316	2316	  2	  0	142	  3	  2	  4	  6	  6	  1	  2	  1	0.40761	  1	0.70000	  0	 24	 62	 63	  1	
17-Apr-2013	sub2316	2316	  2	  0	143	  3	  2	  6	  5	  5	  1	  2	  1	0.46993	  1	0.70000	  0	 26	 65	 66	  1	
17-Apr-2013	sub2316	2316	  2	  0	144	  3	  2	  4	  6	  6	  1	  2	  1	0.56074	  1	0.70000	  0	 24	 62	 63	  0	
17-Apr-2013	sub2316	2316	  2	  0	145	  3	  2	  2	  3	  5	  1	  2	  1	0.58804	  1	0.70000	  0	 22	 60	 61	  0	
17-Apr-2013	sub2316	2316	  2	  0	146	  3	  2	  5	  2	  1	  0	  2	  1	0.63493	  0	0.70000	  0	 25	 87	 68	  0	
17-Apr-2013	sub2316	2316	  2	  0	147	  3	  2	  3	  1	  4	  1	  1	  1	0.47930	  1	0.70000	  0	 23	 62	 63	  1	
17-Apr-2013	sub2316	2316	  2	  0	148	  3	  2	  5	  2	  1	  0	  2	  1	0.44384	  0	0.70000	  0	 25	 87	 68	  1	
17-Apr-2013	sub2316	2316	  2	  0	149	  3	  2	  4	  6	  6	  0	  2	  0	0.45606	  1	0.70000	  0	 24	 64	 89	  1	
17-Apr-2013	sub2316	2316	  2	  0	150	  3	  2	  4	  6	  6	  0	  2	  0	0.62971	  1	0.70000	  0	 24	 64	 89	  0	
17-Apr-2013	sub2316	2316	  2	  0	  1	  4	  1	  2	  2	  3	  1	  1	  0	1.46448	  0	0.60000	  1	 12	 40	 51	  0	
17-Apr-2013	sub2316	2316	  2	  0	  2	  4	  1	  5	  1	  6	  0	  2	  1	0.31542	  0	0.90000	  0	 15	 47	 38	  1	
17-Apr-2013	sub2316	2316	  2	  0	  3	  4	  1	  4	  6	  4	  1	  1	  0	0.49882	  0	0.90000	  0	 14	 42	 43	  1	
17-Apr-2013	sub2316	2316	  2	  0	  4	  4	  1	  5	  1	  6	  0	  2	  1	0.42320	  0	0.90000	  0	 15	 47	 38	  1	
17-Apr-2013	sub2316	2316	  2	  0	  5	  4	  1	  5	  1	  6	  0	  2	  1	0.38312	  0	0.90000	  0	 15	 47	 38	  1	
17-Apr-2013	sub2316	2316	  2	  0	  6	  4	  1	  1	  3	  3	  1	  2	  0	0.53809	  0	0.90000	  0	 11	 40	 41	  0	
17-Apr-2013	sub2316	2316	  2	  0	  7	  4	  1	  3	  4	  2	  0	  1	  0	0.41967	  1	0.90000	  0	 13	 34	 49	  1	
17-Apr-2013	sub2316	2316	  2	  0	  8	  4	  1	  3	  4	  2	  1	  2	  0	0.55202	  0	0.90000	  0	 13	 42	 43	  0	
17-Apr-2013	sub2316	2316	  2	  0	  9	  4	  1	  2	  2	  3	  1	  2	  1	0.44343	  1	0.90000	  0	 12	 30	 31	  1	
17-Apr-2013	sub2316	2316	  2	  0	 10	  4	  1	  1	  3	  3	  1	  2	  0	0.44070	  0	0.90000	  0	 11	 40	 41	  1	
17-Apr-2013	sub2316	2316	  2	  0	 11	  4	  1	  4	  6	  4	  1	  2	  1	0.44120	  1	0.90000	  0	 14	 32	 33	  1	
17-Apr-2013	sub2316	2316	  2	  0	 12	  4	  1	  5	  1	  6	  1	  2	  0	0.36819	  0	0.90000	  0	 15	 45	 46	  1	
17-Apr-2013	sub2316	2316	  2	  0	 13	  4	  1	  4	  6	  4	  1	  2	  1	0.40172	  1	0.90000	  0	 14	 32	 33	  1	
17-Apr-2013	sub2316	2316	  2	  0	 14	  4	  1	  4	  6	  4	  1	  2	  1	0.40130	  1	0.90000	  0	 14	 32	 33	  1	
17-Apr-2013	sub2316	2316	  2	  0	 15	  4	  1	  3	  4	  2	  1	  2	  0	0.51406	  0	0.90000	  0	 13	 42	 43	  0	
17-Apr-2013	sub2316	2316	  2	  0	 16	  4	  1	  5	  1	  6	  0	  2	  1	0.35267	  0	0.80000	  0	 15	 47	 38	  1	
17-Apr-2013	sub2316	2316	  2	  0	 17	  4	  1	  4	  6	  4	  1	  2	  1	0.33115	  1	0.80000	  0	 14	 32	 33	  1	
17-Apr-2013	sub2316	2316	  2	  0	 18	  4	  1	  4	  6	  4	  1	  2	  1	0.39416	  1	0.70000	  0	 14	 32	 33	  1	
17-Apr-2013	sub2316	2316	  2	  0	 19	  4	  1	  4	  6	  4	  1	  2	  1	0.42476	  1	0.70000	  0	 14	 32	 33	  1	
17-Apr-2013	sub2316	2316	  2	  0	 20	  4	  1	  6	  5	  2	  1	  2	  1	0.53837	  1	0.70000	  0	 16	 35	 36	  0	
17-Apr-2013	sub2316	2316	  2	  0	 21	  4	  1	  5	  1	  6	  0	  2	  1	0.36685	  0	0.60000	  0	 15	 47	 38	  1	
17-Apr-2013	sub2316	2316	  2	  0	 22	  4	  1	  3	  4	  2	  1	  2	  0	0.48821	  0	0.60000	  0	 13	 42	 43	  1	
17-Apr-2013	sub2316	2316	  2	  0	 23	  4	  1	  1	  3	  3	  1	  2	  0	0.43736	  0	0.60000	  0	 11	 40	 41	  1	
17-Apr-2013	sub2316	2316	  2	  0	 24	  4	  1	  4	  6	  4	  0	  2	  0	0.56424	  1	0.60000	  0	 14	 34	 49	  0	
17-Apr-2013	sub2316	2316	  2	  0	 25	  4	  1	  5	  1	  6	  1	  2	  0	0.48001	  0	0.60000	  0	 15	 45	 46	  1	
17-Apr-2013	sub2316	2316	  2	  0	 26	  4	  1	  5	  1	  6	  1	  2	  0	0.38423	  0	0.50000	  0	 15	 45	 46	  1	
17-Apr-2013	sub2316	2316	  2	  0	 27	  4	  1	  2	  2	  3	  1	  2	  1	0.73067	  1	0.50000	  1	 12	 30	 51	  0	
17-Apr-2013	sub2316	2316	  2	  0	 28	  4	  1	  5	  1	  6	  1	  2	  0	0.43982	  0	0.90000	  0	 15	 45	 46	  1	
17-Apr-2013	sub2316	2316	  2	  0	 29	  4	  1	  2	  2	  3	  1	  2	  1	0.40172	  1	0.90000	  0	 12	 30	 31	  1	
17-Apr-2013	sub2316	2316	  2	  0	 30	  4	  1	  6	  5	  2	  0	  2	  0	0.47763	  1	0.80000	  0	 16	 37	 48	  1	
17-Apr-2013	sub2316	2316	  2	  0	 31	  4	  1	  6	  5	  2	  0	  1	  1	0.44613	  0	0.80000	  0	 16	 47	 38	  1	
17-Apr-2013	sub2316	2316	  2	  0	 32	  4	  1	  1	  3	  3	  1	  1	  1	0.62685	  1	0.80000	  0	 11	 30	 31	  0	
17-Apr-2013	sub2316	2316	  2	  0	 33	  4	  1	  3	  4	  2	  1	  2	  0	0.52258	  0	0.80000	  0	 13	 42	 43	  0	
17-Apr-2013	sub2316	2316	  2	  0	 34	  4	  1	  1	  3	  3	  1	  1	  1	0.52741	  1	0.80000	  0	 11	 30	 31	  0	
17-Apr-2013	sub2316	2316	  2	  0	 35	  4	  1	  6	  5	  2	  1	  1	  0	0.33118	  0	0.70000	  0	 16	 45	 46	  1	
17-Apr-2013	sub2316	2316	  2	  0	 36	  4	  1	  2	  2	  3	  1	  1	  0	0.43446	  0	0.70000	  0	 12	 40	 41	  1	
17-Apr-2013	sub2316	2316	  2	  0	 37	  4	  1	  2	  2	  3	  1	  1	  0	0.34801	  0	0.70000	  0	 12	 40	 41	  1	
17-Apr-2013	sub2316	2316	  2	  0	 38	  4	  1	  3	  4	  2	  1	  2	  0	0.42780	  0	0.70000	  0	 13	 42	 43	  1	
17-Apr-2013	sub2316	2316	  2	  0	 39	  4	  1	  1	  3	  3	  1	  1	  1	0.44907	  1	0.70000	  0	 11	 30	 31	  1	
17-Apr-2013	sub2316	2316	  2	  0	 40	  4	  1	  2	  2	  3	  1	  1	  0	0.43474	  0	0.70000	  0	 12	 40	 41	  1	
17-Apr-2013	sub2316	2316	  2	  0	 41	  4	  1	  2	  2	  3	  1	  2	  1	0.30981	  1	0.60000	  0	 12	 30	 31	  1	
17-Apr-2013	sub2316	2316	  2	  0	 42	  4	  1	  1	  3	  3	  1	  1	  1	0.39208	  1	0.60000	  0	 11	 30	 31	  1	
17-Apr-2013	sub2316	2316	  2	  0	 43	  4	  1	  3	  4	  2	  0	  2	  1	0.47114	  0	0.60000	  0	 13	 44	 39	  1	
17-Apr-2013	sub2316	2316	  2	  0	 44	  4	  1	  1	  3	  3	  1	  2	  0	0.39988	  0	0.60000	  0	 11	 40	 41	  1	
17-Apr-2013	sub2316	2316	  2	  0	 45	  4	  1	  6	  5	  2	  1	  2	  1	0.57632	  1	0.60000	  0	 16	 35	 36	  0	
17-Apr-2013	sub2316	2316	  2	  0	 46	  4	  1	  4	  6	  4	  1	  2	  1	0.49079	  1	0.60000	  0	 14	 32	 33	  1	
17-Apr-2013	sub2316	2316	  2	  0	 47	  4	  1	  1	  3	  3	  1	  2	  0	0.32401	  0	0.60000	  0	 11	 40	 41	  1	
17-Apr-2013	sub2316	2316	  2	  0	 48	  4	  1	  6	  5	  2	  1	  2	  1	0.44964	  1	0.60000	  0	 16	 35	 36	  1	
17-Apr-2013	sub2316	2316	  2	  0	 49	  4	  1	  5	  1	  6	  0	  2	  1	0.47847	  0	0.60000	  0	 15	 47	 38	  1	
17-Apr-2013	sub2316	2316	  2	  0	 50	  4	  1	  3	  4	  2	  0	  2	  1	0.46301	  0	0.60000	  0	 13	 44	 39	  1	
17-Apr-2013	sub2316	2316	  2	  0	 51	  4	  1	  4	  6	  4	  1	  2	  1	0.47726	  1	0.50000	  0	 14	 32	 33	  1	
17-Apr-2013	sub2316	2316	  2	  0	 52	  4	  1	  6	  5	  2	  0	  2	  0	0.51823	  1	0.50000	  1	 16	 37	 51	  0	
17-Apr-2013	sub2316	2316	  2	  0	 53	  4	  1	  6	  5	  2	  0	  2	  0	0.00024	  1	0.70000	  0	 16	 37	 48	  1	
17-Apr-2013	sub2316	2316	  2	  0	 54	  4	  1	  6	  5	  2	  1	  2	  1	0.36035	  1	0.70000	  0	 16	 35	 36	  1	
17-Apr-2013	sub2316	2316	  2	  0	 55	  4	  1	  2	  2	  3	  1	  1	  0	0.39744	  0	0.70000	  0	 12	 40	 41	  1	
17-Apr-2013	sub2316	2316	  2	  0	 56	  4	  1	  6	  5	  2	  1	  2	  1	0.36079	  1	0.70000	  0	 16	 35	 36	  1	
17-Apr-2013	sub2316	2316	  2	  0	 57	  4	  1	  2	  2	  3	  1	  2	  1	0.31368	  1	0.70000	  0	 12	 30	 31	  1	
17-Apr-2013	sub2316	2316	  2	  0	 58	  4	  1	  6	  5	  2	  0	  2	  0	0.35298	  1	0.70000	  0	 16	 37	 48	  1	
17-Apr-2013	sub2316	2316	  2	  0	 59	  4	  1	  1	  3	  3	  1	  2	  0	0.38031	  0	0.70000	  0	 11	 40	 41	  1	
17-Apr-2013	sub2316	2316	  2	  0	 60	  4	  1	  3	  4	  2	  1	  1	  1	0.32298	  1	0.70000	  0	 13	 32	 33	  1	
17-Apr-2013	sub2316	2316	  2	  0	 61	  4	  1	  1	  3	  3	  1	  1	  1	0.33149	  1	0.60000	  0	 11	 30	 31	  1	
17-Apr-2013	sub2316	2316	  2	  0	 62	  4	  1	  4	  6	  4	  1	  1	  0	0.37752	  0	0.60000	  0	 14	 42	 43	  1	
17-Apr-2013	sub2316	2316	  2	  0	 63	  4	  1	  5	  1	  6	  1	  2	  0	0.31780	  0	0.60000	  0	 15	 45	 46	  1	
17-Apr-2013	sub2316	2316	  2	  0	 64	  4	  1	  3	  4	  2	  1	  2	  0	0.41796	  0	0.60000	  0	 13	 42	 43	  1	
17-Apr-2013	sub2316	2316	  2	  0	 65	  4	  1	  6	  5	  2	  0	  2	  0	0.55351	  1	0.60000	  0	 16	 37	 48	  0	
17-Apr-2013	sub2316	2316	  2	  0	 66	  4	  1	  3	  4	  2	  1	  2	  0	0.39774	  0	0.60000	  0	 13	 42	 43	  1	
17-Apr-2013	sub2316	2316	  2	  0	 67	  4	  1	  5	  1	  6	  1	  2	  0	0.33626	  0	0.60000	  0	 15	 45	 46	  1	
17-Apr-2013	sub2316	2316	  2	  0	 68	  4	  1	  6	  5	  2	  1	  1	  0	0.38199	  0	0.60000	  0	 16	 45	 46	  1	
17-Apr-2013	sub2316	2316	  2	  0	 69	  4	  1	  2	  2	  3	  1	  2	  1	0.27280	  1	0.60000	  0	 12	 30	 31	  1	
17-Apr-2013	sub2316	2316	  2	  0	 70	  4	  1	  3	  4	  2	  1	  2	  0	0.43478	  0	0.60000	  0	 13	 42	 43	  1	
17-Apr-2013	sub2316	2316	  2	  0	 71	  4	  1	  2	  2	  3	  1	  1	  0	0.41436	  0	0.60000	  0	 12	 40	 41	  1	
17-Apr-2013	sub2316	2316	  2	  0	 72	  4	  1	  2	  2	  3	  1	  2	  1	0.45779	  1	0.60000	  0	 12	 30	 31	  1	
17-Apr-2013	sub2316	2316	  2	  0	 73	  4	  1	  1	  3	  3	  1	  2	  0	0.42637	  0	0.60000	  0	 11	 40	 41	  1	
17-Apr-2013	sub2316	2316	  2	  0	 74	  4	  1	  4	  6	  4	  0	  1	  1	0.11699	  0	0.60000	  0	 14	 44	 39	  1	
17-Apr-2013	sub2316	2316	  2	  0	 75	  4	  1	  3	  4	  2	  1	  1	  1	0.42008	  1	0.60000	  0	 13	 32	 33	  1	
17-Apr-2013	sub2316	2316	  2	  0	 76	  4	  2	  4	  6	  4	  1	  1	  0	0.44988	  0	0.50000	  0	 24	 82	 83	  1	
17-Apr-2013	sub2316	2316	  2	  0	 77	  4	  2	  3	  4	  2	  1	  2	  0	0.38925	  0	0.50000	  0	 23	 82	 83	  1	
17-Apr-2013	sub2316	2316	  2	  0	 78	  4	  2	  3	  4	  2	  1	  1	  1	0.36135	  1	0.50000	  0	 23	 62	 63	  1	
17-Apr-2013	sub2316	2316	  2	  0	 79	  4	  2	  6	  5	  2	  1	  1	  0	0.36656	  0	0.50000	  0	 26	 85	 86	  1	
17-Apr-2013	sub2316	2316	  2	  0	 80	  4	  2	  3	  4	  2	  1	  2	  0	0.35197	  0	0.50000	  0	 23	 82	 83	  1	
17-Apr-2013	sub2316	2316	  2	  0	 81	  4	  2	  5	  1	  6	  0	  2	  1	0.56408	  0	0.50000	  1	 25	 87	 51	  0	
17-Apr-2013	sub2316	2316	  2	  0	 82	  4	  2	  1	  3	  3	  1	  2	  0	0.37338	  0	0.60000	  0	 21	 80	 81	  1	
17-Apr-2013	sub2316	2316	  2	  0	 83	  4	  2	  5	  1	  6	  0	  1	  0	0.52856	  1	0.60000	  0	 25	 67	 88	  0	
17-Apr-2013	sub2316	2316	  2	  0	 84	  4	  2	  4	  6	  4	  0	  2	  0	0.80265	  1	0.60000	  1	 24	 64	 51	  0	
17-Apr-2013	sub2316	2316	  2	  0	 85	  4	  2	  5	  1	  6	  0	  2	  1	0.26466	  0	0.70000	  0	 25	 87	 68	  1	
17-Apr-2013	sub2316	2316	  2	  0	 86	  4	  2	  4	  6	  4	  1	  2	  1	0.33815	  1	0.70000	  0	 24	 62	 63	  1	
17-Apr-2013	sub2316	2316	  2	  0	 87	  4	  2	  6	  5	  2	  1	  2	  1	0.34707	  1	0.70000	  0	 26	 65	 66	  1	
17-Apr-2013	sub2316	2316	  2	  0	 88	  4	  2	  5	  1	  6	  0	  2	  1	0.17573	  0	0.70000	  0	 25	 87	 68	  1	
17-Apr-2013	sub2316	2316	  2	  0	 89	  4	  2	  1	  3	  3	  1	  2	  0	0.31608	  0	0.70000	  0	 21	 80	 81	  1	
17-Apr-2013	sub2316	2316	  2	  0	 90	  4	  2	  4	  6	  4	  1	  2	  1	0.32316	  1	0.70000	  0	 24	 62	 63	  1	
17-Apr-2013	sub2316	2316	  2	  0	 91	  4	  2	  2	  2	  3	  1	  2	  1	2.94391	  1	0.70000	  1	 22	 60	 51	  0	
17-Apr-2013	sub2316	2316	  2	  0	 92	  4	  2	  4	  6	  4	  1	  2	  1	0.67104	  1	0.80000	  0	 24	 62	 63	  0	
17-Apr-2013	sub2316	2316	  2	  0	 93	  4	  2	  1	  3	  3	  1	  1	  1	0.53739	  1	0.80000	  0	 21	 60	 61	  0	
17-Apr-2013	sub2316	2316	  2	  0	 94	  4	  2	  2	  2	  3	  1	  1	  0	0.41241	  0	0.80000	  0	 22	 80	 81	  1	
17-Apr-2013	sub2316	2316	  2	  0	 95	  4	  2	  4	  6	  4	  1	  2	  1	0.43072	  1	0.80000	  0	 24	 62	 63	  1	
17-Apr-2013	sub2316	2316	  2	  0	 96	  4	  2	  4	  6	  4	  1	  2	  1	0.47911	  1	0.80000	  0	 24	 62	 63	  1	
17-Apr-2013	sub2316	2316	  2	  0	 97	  4	  2	  4	  6	  4	  1	  2	  1	0.40909	  1	0.80000	  0	 24	 62	 63	  1	
17-Apr-2013	sub2316	2316	  2	  0	 98	  4	  2	  3	  4	  2	  1	  2	  0	0.35076	  0	0.80000	  0	 23	 82	 83	  1	
17-Apr-2013	sub2316	2316	  2	  0	 99	  4	  2	  2	  2	  3	  1	  1	  0	0.40541	  0	0.80000	  0	 22	 80	 81	  1	
17-Apr-2013	sub2316	2316	  2	  0	100	  4	  2	  2	  2	  3	  1	  2	  1	0.30754	  1	0.80000	  0	 22	 60	 61	  1	
17-Apr-2013	sub2316	2316	  2	  0	101	  4	  2	  6	  5	  2	  1	  2	  1	0.26383	  1	0.70000	  0	 26	 65	 66	  1	
17-Apr-2013	sub2316	2316	  2	  0	102	  4	  2	  3	  4	  2	  0	  2	  1	0.33875	  0	0.70000	  0	 23	 84	 69	  1	
17-Apr-2013	sub2316	2316	  2	  0	103	  4	  2	  3	  4	  2	  1	  2	  0	0.32001	  0	0.70000	  0	 23	 82	 83	  1	
17-Apr-2013	sub2316	2316	  2	  0	104	  4	  2	  5	  1	  6	  0	  1	  0	0.39232	  1	0.70000	  0	 25	 67	 88	  1	
17-Apr-2013	sub2316	2316	  2	  0	105	  4	  2	  1	  3	  3	  1	  2	  0	0.29141	  0	0.70000	  0	 21	 80	 81	  1	
17-Apr-2013	sub2316	2316	  2	  0	106	  4	  2	  3	  4	  2	  1	  1	  1	0.39818	  1	0.70000	  0	 23	 62	 63	  1	
17-Apr-2013	sub2316	2316	  2	  0	107	  4	  2	  6	  5	  2	  0	  1	  1	0.33609	  0	0.70000	  0	 26	 87	 68	  1	
17-Apr-2013	sub2316	2316	  2	  0	108	  4	  2	  6	  5	  2	  0	  2	  0	0.71507	  1	0.70000	  1	 26	 67	 51	  0	
17-Apr-2013	sub2316	2316	  2	  0	109	  4	  2	  5	  1	  6	  0	  1	  0	0.00020	  1	0.80000	  0	 25	 67	 88	  1	
17-Apr-2013	sub2316	2316	  2	  0	110	  4	  2	  1	  3	  3	  1	  2	  0	0.32008	  0	0.80000	  0	 21	 80	 81	  1	
17-Apr-2013	sub2316	2316	  2	  0	111	  4	  2	  6	  5	  2	  1	  2	  1	0.56409	  1	0.80000	  0	 26	 65	 66	  0	
17-Apr-2013	sub2316	2316	  2	  0	112	  4	  2	  2	  2	  3	  1	  2	  1	0.47632	  1	0.80000	  0	 22	 60	 61	  1	
17-Apr-2013	sub2316	2316	  2	  0	113	  4	  2	  4	  6	  4	  1	  2	  1	0.54917	  1	0.80000	  0	 24	 62	 63	  0	
17-Apr-2013	sub2316	2316	  2	  0	114	  4	  2	  1	  3	  3	  1	  1	  1	0.70709	  1	0.80000	  0	 21	 60	 61	  0	
17-Apr-2013	sub2316	2316	  2	  0	115	  4	  2	  2	  2	  3	  1	  2	  1	0.50546	  1	0.80000	  0	 22	 60	 61	  0	
17-Apr-2013	sub2316	2316	  2	  0	116	  4	  2	  2	  2	  3	  1	  2	  1	0.53613	  1	0.80000	  0	 22	 60	 61	  0	
17-Apr-2013	sub2316	2316	  2	  0	117	  4	  2	  3	  4	  2	  1	  2	  0	0.44416	  0	0.80000	  0	 23	 82	 83	  1	
17-Apr-2013	sub2316	2316	  2	  0	118	  4	  2	  2	  2	  3	  1	  2	  1	0.58481	  1	0.70000	  0	 22	 60	 61	  0	
17-Apr-2013	sub2316	2316	  2	  0	119	  4	  2	  1	  3	  3	  1	  1	  1	0.66368	  1	0.70000	  0	 21	 60	 61	  0	
17-Apr-2013	sub2316	2316	  2	  0	120	  4	  2	  3	  4	  2	  1	  2	  0	0.56809	  0	0.70000	  0	 23	 82	 83	  0	
17-Apr-2013	sub2316	2316	  2	  0	121	  4	  2	  2	  2	  3	  1	  1	  0	0.50927	  0	0.70000	  0	 22	 80	 81	  0	
17-Apr-2013	sub2316	2316	  2	  0	122	  4	  2	  3	  4	  2	  0	  2	  1	0.39521	  0	0.70000	  0	 23	 84	 69	  1	
17-Apr-2013	sub2316	2316	  2	  0	123	  4	  2	  5	  1	  6	  0	  2	  1	0.55127	  0	0.70000	  0	 25	 87	 68	  0	
17-Apr-2013	sub2316	2316	  2	  0	124	  4	  2	  1	  3	  3	  1	  1	  1	0.54149	  1	0.70000	  0	 21	 60	 61	  0	
17-Apr-2013	sub2316	2316	  2	  0	125	  4	  2	  4	  6	  4	  1	  2	  1	0.51620	  1	0.70000	  0	 24	 62	 63	  0	
17-Apr-2013	sub2316	2316	  2	  0	126	  4	  2	  2	  2	  3	  1	  2	  1	0.34034	  1	0.70000	  0	 22	 60	 61	  1	
17-Apr-2013	sub2316	2316	  2	  0	127	  4	  2	  2	  2	  3	  1	  2	  1	0.46654	  1	0.70000	  0	 22	 60	 61	  1	
17-Apr-2013	sub2316	2316	  2	  0	128	  4	  2	  1	  3	  3	  1	  1	  1	0.54989	  1	0.70000	  0	 21	 60	 61	  0	
17-Apr-2013	sub2316	2316	  2	  0	129	  4	  2	  1	  3	  3	  1	  2	  0	0.39337	  0	0.70000	  0	 21	 80	 81	  1	
17-Apr-2013	sub2316	2316	  2	  0	130	  4	  2	  6	  5	  2	  0	  2	  0	0.54748	  1	0.70000	  0	 26	 67	 88	  0	
17-Apr-2013	sub2316	2316	  2	  0	131	  4	  2	  6	  5	  2	  1	  2	  1	0.51058	  1	0.70000	  0	 26	 65	 66	  0	
17-Apr-2013	sub2316	2316	  2	  0	132	  4	  2	  6	  5	  2	  0	  2	  0	0.50437	  1	0.70000	  0	 26	 67	 88	  0	
17-Apr-2013	sub2316	2316	  2	  0	133	  4	  2	  3	  4	  2	  1	  2	  0	0.54548	  0	0.70000	  0	 23	 82	 83	  0	
17-Apr-2013	sub2316	2316	  2	  0	134	  4	  2	  2	  2	  3	  1	  2	  1	0.54658	  1	0.70000	  0	 22	 60	 61	  0	
17-Apr-2013	sub2316	2316	  2	  0	135	  4	  2	  4	  6	  4	  0	  2	  0	0.47037	  1	0.70000	  0	 24	 64	 89	  1	
17-Apr-2013	sub2316	2316	  2	  0	136	  4	  2	  4	  6	  4	  1	  2	  1	0.45004	  1	0.70000	  0	 24	 62	 63	  1	
17-Apr-2013	sub2316	2316	  2	  0	137	  4	  2	  5	  1	  6	  0	  2	  1	0.66834	  0	0.70000	  0	 25	 87	 68	  0	
17-Apr-2013	sub2316	2316	  2	  0	138	  4	  2	  3	  4	  2	  1	  2	  0	0.66275	  0	0.70000	  0	 23	 82	 83	  0	
17-Apr-2013	sub2316	2316	  2	  0	139	  4	  2	  5	  1	  6	  0	  1	  0	0.36227	  1	0.70000	  0	 25	 67	 88	  1	
17-Apr-2013	sub2316	2316	  2	  0	140	  4	  2	  5	  1	  6	  0	  2	  1	0.50422	  0	0.70000	  0	 25	 87	 68	  0	
17-Apr-2013	sub2316	2316	  2	  0	141	  4	  2	  1	  3	  3	  1	  2	  0	0.45871	  0	0.60000	  0	 21	 80	 81	  1	
17-Apr-2013	sub2316	2316	  2	  0	142	  4	  2	  5	  1	  6	  0	  1	  0	0.35076	  1	0.60000	  0	 25	 67	 88	  1	
17-Apr-2013	sub2316	2316	  2	  0	143	  4	  2	  5	  1	  6	  0	  2	  1	0.32571	  0	0.60000	  0	 25	 87	 68	  1	
17-Apr-2013	sub2316	2316	  2	  0	144	  4	  2	  6	  5	  2	  0	  2	  0	0.48091	  1	0.60000	  0	 26	 67	 88	  1	
17-Apr-2013	sub2316	2316	  2	  0	145	  4	  2	  6	  5	  2	  1	  1	  0	0.47386	  0	0.60000	  0	 26	 85	 86	  1	
17-Apr-2013	sub2316	2316	  2	  0	146	  4	  2	  1	  3	  3	  1	  2	  0	0.43788	  0	0.60000	  0	 21	 80	 81	  1	
17-Apr-2013	sub2316	2316	  2	  0	147	  4	  2	  6	  5	  2	  0	  2	  0	0.61689	  1	0.60000	  1	 26	 67	 51	  0	
17-Apr-2013	sub2316	2316	  2	  0	148	  4	  2	  4	  6	  4	  0	  2	  0	0.63881	  1	0.70000	  0	 24	 64	 89	  0	
17-Apr-2013	sub2316	2316	  2	  0	149	  4	  2	  5	  1	  6	  0	  2	  1	0.35270	  0	0.70000	  0	 25	 87	 68	  1	
17-Apr-2013	sub2316	2316	  2	  0	150	  4	  2	  1	  3	  3	  1	  2	  0	0.39500	  0	0.70000	  0	 21	 80	 81	  1	
17-Apr-2013	sub2316	2316	  2	  0	  1	  5	  1	  6	  4	  3	  0	  1	  1	0.52172	  0	0.60000	  0	 16	 47	 38	  0	
17-Apr-2013	sub2316	2316	  2	  0	  2	  5	  1	  5	  1	  5	  1	  2	  0	0.42076	  0	0.30000	  1	 15	 45	 51	  1	
17-Apr-2013	sub2316	2316	  2	  0	  3	  5	  1	  2	  6	  5	  1	  2	  1	0.47530	  1	0.90000	  0	 12	 30	 31	  1	
17-Apr-2013	sub2316	2316	  2	  0	  4	  5	  1	  4	  2	  5	  0	  1	  1	0.40555	  0	0.90000	  0	 14	 44	 39	  1	
17-Apr-2013	sub2316	2316	  2	  0	  5	  5	  1	  6	  4	  3	  1	  1	  0	0.33186	  0	0.90000	  0	 16	 45	 46	  1	
17-Apr-2013	sub2316	2316	  2	  0	  6	  5	  1	  4	  2	  5	  1	  1	  0	0.32604	  0	0.90000	  0	 14	 42	 43	  1	
17-Apr-2013	sub2316	2316	  2	  0	  7	  5	  1	  5	  1	  5	  0	  1	  0	0.43272	  1	0.90000	  0	 15	 37	 48	  1	
17-Apr-2013	sub2316	2316	  2	  0	  8	  5	  1	  2	  6	  5	  1	  2	  1	0.38583	  1	0.90000	  0	 12	 30	 31	  1	
17-Apr-2013	sub2316	2316	  2	  0	  9	  5	  1	  2	  6	  5	  1	  2	  1	0.32869	  1	0.90000	  0	 12	 30	 31	  1	
17-Apr-2013	sub2316	2316	  2	  0	 10	  5	  1	  3	  3	  1	  1	  2	  0	0.46317	  0	0.90000	  0	 13	 42	 43	  1	
17-Apr-2013	sub2316	2316	  2	  0	 11	  5	  1	  5	  1	  5	  1	  2	  0	0.36152	  0	0.90000	  0	 15	 45	 46	  1	
17-Apr-2013	sub2316	2316	  2	  0	 12	  5	  1	  6	  4	  3	  0	  2	  0	0.29405	  1	0.90000	  0	 16	 37	 48	  1	
17-Apr-2013	sub2316	2316	  2	  0	 13	  5	  1	  6	  4	  3	  0	  2	  0	0.62799	  1	0.90000	  0	 16	 37	 48	  0	
17-Apr-2013	sub2316	2316	  2	  0	 14	  5	  1	  4	  2	  5	  1	  1	  0	0.46618	  0	0.90000	  0	 14	 42	 43	  1	
17-Apr-2013	sub2316	2316	  2	  0	 15	  5	  1	  4	  2	  5	  1	  2	  1	0.17439	  1	0.90000	  0	 14	 32	 33	  1	
17-Apr-2013	sub2316	2316	  2	  0	 16	  5	  1	  3	  3	  1	  1	  2	  0	0.03054	  0	0.80000	  0	 13	 42	 43	  1	
17-Apr-2013	sub2316	2316	  2	  0	 17	  5	  1	  1	  5	  3	  1	  2	  0	0.12739	  0	0.80000	  0	 11	 40	 41	  1	
17-Apr-2013	sub2316	2316	  2	  0	 18	  5	  1	  5	  1	  5	  1	  2	  0	0.36649	  0	0.70000	  0	 15	 45	 46	  1	
17-Apr-2013	sub2316	2316	  2	  0	 19	  5	  1	  2	  6	  5	  1	  2	  1	0.52642	  1	0.70000	  0	 12	 30	 31	  0	
17-Apr-2013	sub2316	2316	  2	  0	 20	  5	  1	  5	  1	  5	  1	  2	  0	0.42280	  0	0.70000	  0	 15	 45	 46	  1	
17-Apr-2013	sub2316	2316	  2	  0	 21	  5	  1	  1	  5	  3	  1	  1	  1	0.56683	  1	0.60000	  0	 11	 30	 31	  0	
17-Apr-2013	sub2316	2316	  2	  0	 22	  5	  1	  4	  2	  5	  1	  1	  0	0.33460	  0	0.60000	  0	 14	 42	 43	  1	
17-Apr-2013	sub2316	2316	  2	  0	 23	  5	  1	  5	  1	  5	  1	  1	  1	0.53439	  1	0.60000	  0	 15	 35	 36	  0	
17-Apr-2013	sub2316	2316	  2	  0	 24	  5	  1	  2	  6	  5	  1	  1	  0	0.37906	  0	0.60000	  0	 12	 40	 41	  1	
17-Apr-2013	sub2316	2316	  2	  0	 25	  5	  1	  5	  1	  5	  0	  1	  0	0.38434	  1	0.60000	  0	 15	 37	 48	  1	
17-Apr-2013	sub2316	2316	  2	  0	 26	  5	  1	  6	  4	  3	  1	  2	  1	0.33155	  1	0.50000	  0	 16	 35	 36	  1	
17-Apr-2013	sub2316	2316	  2	  0	 27	  5	  1	  4	  2	  5	  1	  2	  1	0.47777	  1	0.50000	  0	 14	 32	 33	  1	
17-Apr-2013	sub2316	2316	  2	  0	 28	  5	  1	  2	  6	  5	  1	  2	  1	0.45362	  1	0.50000	  0	 12	 30	 31	  1	
17-Apr-2013	sub2316	2316	  2	  0	 29	  5	  1	  4	  2	  5	  1	  2	  1	0.44096	  1	0.50000	  0	 14	 32	 33	  1	
17-Apr-2013	sub2316	2316	  2	  0	 30	  5	  1	  6	  4	  3	  0	  2	  0	0.24643	  1	0.50000	  0	 16	 37	 48	  1	
17-Apr-2013	sub2316	2316	  2	  0	 31	  5	  1	  1	  5	  3	  1	  1	  1	0.34062	  1	0.50000	  0	 11	 30	 31	  1	
17-Apr-2013	sub2316	2316	  2	  0	 32	  5	  1	  4	  2	  5	  1	  2	  1	0.31223	  1	0.50000	  0	 14	 32	 33	  1	
17-Apr-2013	sub2316	2316	  2	  0	 33	  5	  1	  1	  5	  3	  1	  1	  1	0.23240	  1	0.50000	  0	 11	 30	 31	  1	
17-Apr-2013	sub2316	2316	  2	  0	 34	  5	  1	  5	  1	  5	  0	  2	  1	0.29496	  0	0.50000	  0	 15	 47	 38	  1	
17-Apr-2013	sub2316	2316	  2	  0	 35	  5	  1	  3	  3	  1	  1	  2	  0	0.28393	  0	0.40000	  0	 13	 42	 43	  1	
17-Apr-2013	sub2316	2316	  2	  0	 36	  5	  1	  6	  4	  3	  1	  1	  0	0.28093	  0	0.40000	  0	 16	 45	 46	  1	
17-Apr-2013	sub2316	2316	  2	  0	 37	  5	  1	  3	  3	  1	  1	  2	  0	0.12552	  0	0.40000	  0	 13	 42	 43	  1	
17-Apr-2013	sub2316	2316	  2	  0	 38	  5	  1	  6	  4	  3	  0	  2	  0	0.29961	  1	0.40000	  0	 16	 37	 48	  1	
17-Apr-2013	sub2316	2316	  2	  0	 39	  5	  1	  2	  6	  5	  1	  1	  0	0.21628	  0	0.40000	  0	 12	 40	 41	  1	
17-Apr-2013	sub2316	2316	  2	  0	 40	  5	  1	  1	  5	  3	  1	  1	  1	0.12140	  1	0.40000	  0	 11	 30	 31	  1	
17-Apr-2013	sub2316	2316	  2	  0	 41	  5	  1	  3	  3	  1	  0	  1	  0	0.31905	  1	0.40000	  0	 13	 34	 49	  1	
17-Apr-2013	sub2316	2316	  2	  0	 42	  5	  1	  6	  4	  3	  0	  1	  1	0.00009	  0	0.40000	  0	 16	 47	 38	  1	
17-Apr-2013	sub2316	2316	  2	  0	 43	  5	  1	  6	  4	  3	  1	  1	  0	0.40220	  0	0.40000	  1	 16	 45	 51	  1	
17-Apr-2013	sub2316	2316	  2	  0	 44	  5	  1	  3	  3	  1	  1	  2	  0	0.26622	  0	0.60000	  0	 13	 42	 43	  1	
17-Apr-2013	sub2316	2316	  2	  0	 45	  5	  1	  3	  3	  1	  1	  1	  1	0.27894	  1	0.60000	  0	 13	 32	 33	  1	
17-Apr-2013	sub2316	2316	  2	  0	 46	  5	  1	  1	  5	  3	  1	  1	  1	0.45793	  1	0.60000	  0	 11	 30	 31	  1	
17-Apr-2013	sub2316	2316	  2	  0	 47	  5	  1	  4	  2	  5	  0	  1	  1	0.43931	  0	0.60000	  0	 14	 44	 39	  1	
17-Apr-2013	sub2316	2316	  2	  0	 48	  5	  1	  3	  3	  1	  1	  1	  1	0.29794	  1	0.60000	  0	 13	 32	 33	  1	
17-Apr-2013	sub2316	2316	  2	  0	 49	  5	  1	  1	  5	  3	  1	  1	  1	0.30425	  1	0.60000	  0	 11	 30	 31	  1	
17-Apr-2013	sub2316	2316	  2	  0	 50	  5	  1	  2	  6	  5	  1	  1	  0	0.33447	  0	0.60000	  0	 12	 40	 41	  1	
17-Apr-2013	sub2316	2316	  2	  0	 51	  5	  1	  6	  4	  3	  0	  1	  1	0.37493	  0	0.50000	  0	 16	 47	 38	  1	
17-Apr-2013	sub2316	2316	  2	  0	 52	  5	  1	  5	  1	  5	  1	  1	  1	0.36319	  1	0.50000	  0	 15	 35	 36	  1	
17-Apr-2013	sub2316	2316	  2	  0	 53	  5	  1	  2	  6	  5	  1	  1	  0	0.29694	  0	0.50000	  0	 12	 40	 41	  1	
17-Apr-2013	sub2316	2316	  2	  0	 54	  5	  1	  1	  5	  3	  1	  1	  1	0.33505	  1	0.50000	  0	 11	 30	 31	  1	
17-Apr-2013	sub2316	2316	  2	  0	 55	  5	  1	  2	  6	  5	  1	  1	  0	0.37560	  0	0.50000	  0	 12	 40	 41	  1	
17-Apr-2013	sub2316	2316	  2	  0	 56	  5	  1	  1	  5	  3	  1	  2	  0	0.34939	  0	0.50000	  0	 11	 40	 41	  1	
17-Apr-2013	sub2316	2316	  2	  0	 57	  5	  1	  2	  6	  5	  1	  1	  0	0.29431	  0	0.50000	  0	 12	 40	 41	  1	
17-Apr-2013	sub2316	2316	  2	  0	 58	  5	  1	  3	  3	  1	  1	  1	  1	0.37981	  1	0.50000	  0	 13	 32	 33	  1	
17-Apr-2013	sub2316	2316	  2	  0	 59	  5	  1	  2	  6	  5	  1	  1	  0	0.29078	  0	0.50000	  0	 12	 40	 41	  1	
17-Apr-2013	sub2316	2316	  2	  0	 60	  5	  1	  3	  3	  1	  1	  2	  0	0.50165	  0	0.50000	  1	 13	 42	 51	  0	
17-Apr-2013	sub2316	2316	  2	  0	 61	  5	  1	  4	  2	  5	  1	  2	  1	0.29843	  1	0.60000	  0	 14	 32	 33	  1	
17-Apr-2013	sub2316	2316	  2	  0	 62	  5	  1	  3	  3	  1	  0	  2	  1	0.33381	  0	0.60000	  0	 13	 44	 39	  1	
17-Apr-2013	sub2316	2316	  2	  0	 63	  5	  1	  1	  5	  3	  1	  2	  0	0.28975	  0	0.60000	  0	 11	 40	 41	  1	
17-Apr-2013	sub2316	2316	  2	  0	 64	  5	  1	  2	  6	  5	  1	  2	  1	0.31719	  1	0.60000	  0	 12	 30	 31	  1	
17-Apr-2013	sub2316	2316	  2	  0	 65	  5	  1	  3	  3	  1	  0	  2	  1	0.53328	  0	0.60000	  0	 13	 44	 39	  0	
17-Apr-2013	sub2316	2316	  2	  0	 66	  5	  1	  1	  5	  3	  1	  2	  0	0.33947	  0	0.60000	  0	 11	 40	 41	  1	
17-Apr-2013	sub2316	2316	  2	  0	 67	  5	  1	  3	  3	  1	  1	  1	  1	0.30921	  1	0.60000	  0	 13	 32	 33	  1	
17-Apr-2013	sub2316	2316	  2	  0	 68	  5	  1	  5	  1	  5	  0	  2	  1	0.36603	  0	0.60000	  0	 15	 47	 38	  1	
17-Apr-2013	sub2316	2316	  2	  0	 69	  5	  1	  1	  5	  3	  1	  2	  0	0.34984	  0	0.60000	  0	 11	 40	 41	  1	
17-Apr-2013	sub2316	2316	  2	  0	 70	  5	  1	  5	  1	  5	  0	  1	  0	0.51185	  1	0.60000	  0	 15	 37	 48	  0	
17-Apr-2013	sub2316	2316	  2	  0	 71	  5	  1	  6	  4	  3	  1	  2	  1	0.36252	  1	0.60000	  0	 16	 35	 36	  1	
17-Apr-2013	sub2316	2316	  2	  0	 72	  5	  1	  4	  2	  5	  1	  2	  1	0.44617	  1	0.60000	  0	 14	 32	 33	  1	
17-Apr-2013	sub2316	2316	  2	  0	 73	  5	  1	  4	  2	  5	  1	  2	  1	0.39876	  1	0.60000	  0	 14	 32	 33	  1	
17-Apr-2013	sub2316	2316	  2	  0	 74	  5	  1	  6	  4	  3	  1	  1	  0	0.41972	  0	0.60000	  0	 16	 45	 46	  1	
17-Apr-2013	sub2316	2316	  2	  0	 75	  5	  1	  5	  1	  5	  1	  2	  0	0.33942	  0	0.60000	  0	 15	 45	 46	  1	
17-Apr-2013	sub2316	2316	  2	  0	 76	  5	  2	  1	  5	  3	  1	  2	  0	0.36636	  0	0.50000	  0	 21	 80	 81	  1	
17-Apr-2013	sub2316	2316	  2	  0	 77	  5	  2	  2	  6	  5	  1	  2	  1	0.71212	  1	0.50000	  1	 22	 60	 51	  0	
17-Apr-2013	sub2316	2316	  2	  0	 78	  5	  2	  3	  3	  1	  1	  2	  0	0.28500	  0	0.70000	  0	 23	 82	 83	  1	
17-Apr-2013	sub2316	2316	  2	  0	 79	  5	  2	  1	  5	  3	  1	  2	  0	0.29507	  0	0.70000	  0	 21	 80	 81	  1	
17-Apr-2013	sub2316	2316	  2	  0	 80	  5	  2	  3	  3	  1	  0	  2	  1	0.35621	  0	0.70000	  0	 23	 84	 69	  1	
17-Apr-2013	sub2316	2316	  2	  0	 81	  5	  2	  2	  6	  5	  1	  2	  1	0.33185	  1	0.60000	  0	 22	 60	 61	  1	
17-Apr-2013	sub2316	2316	  2	  0	 82	  5	  2	  3	  3	  1	  1	  2	  0	0.30893	  0	0.60000	  0	 23	 82	 83	  1	
17-Apr-2013	sub2316	2316	  2	  0	 83	  5	  2	  2	  6	  5	  1	  2	  1	0.34474	  1	0.60000	  0	 22	 60	 61	  1	
17-Apr-2013	sub2316	2316	  2	  0	 84	  5	  2	  1	  5	  3	  1	  2	  0	0.34015	  0	0.60000	  0	 21	 80	 81	  1	
17-Apr-2013	sub2316	2316	  2	  0	 85	  5	  2	  5	  1	  5	  0	  2	  1	0.41805	  0	0.60000	  0	 25	 87	 68	  1	
17-Apr-2013	sub2316	2316	  2	  0	 86	  5	  2	  6	  4	  3	  0	  2	  0	0.00009	  1	0.60000	  0	 26	 67	 88	  1	
17-Apr-2013	sub2316	2316	  2	  0	 87	  5	  2	  5	  1	  5	  0	  2	  1	1.53859	  0	0.60000	  1	 25	 87	 51	  0	
17-Apr-2013	sub2316	2316	  2	  0	 88	  5	  2	  6	  4	  3	  1	  2	  1	0.48535	  1	0.70000	  0	 26	 65	 66	  1	
17-Apr-2013	sub2316	2316	  2	  0	 89	  5	  2	  5	  1	  5	  0	  2	  1	0.32955	  0	0.70000	  0	 25	 87	 68	  1	
17-Apr-2013	sub2316	2316	  2	  0	 90	  5	  2	  6	  4	  3	  0	  2	  0	0.00096	  1	0.70000	  0	 26	 67	 88	  1	
17-Apr-2013	sub2316	2316	  2	  0	 91	  5	  2	  4	  2	  5	  1	  2	  1	0.38367	  1	0.70000	  0	 24	 62	 63	  1	
17-Apr-2013	sub2316	2316	  2	  0	 92	  5	  2	  1	  5	  3	  1	  2	  0	0.40599	  0	0.70000	  0	 21	 80	 81	  1	
17-Apr-2013	sub2316	2316	  2	  0	 93	  5	  2	  3	  3	  1	  1	  1	  1	0.28958	  1	0.70000	  0	 23	 62	 63	  1	
17-Apr-2013	sub2316	2316	  2	  0	 94	  5	  2	  2	  6	  5	  1	  2	  1	0.34605	  1	0.70000	  0	 22	 60	 61	  1	
17-Apr-2013	sub2316	2316	  2	  0	 95	  5	  2	  4	  2	  5	  0	  1	  1	0.49011	  0	0.70000	  0	 24	 84	 69	  1	
17-Apr-2013	sub2316	2316	  2	  0	 96	  5	  2	  4	  2	  5	  1	  2	  1	0.31425	  1	0.70000	  0	 24	 62	 63	  1	
17-Apr-2013	sub2316	2316	  2	  0	 97	  5	  2	  2	  6	  5	  1	  2	  1	2.04136	  1	0.70000	  1	 22	 60	 51	  0	
17-Apr-2013	sub2316	2316	  2	  0	 98	  5	  2	  5	  1	  5	  0	  2	  1	0.59308	  0	0.80000	  0	 25	 87	 68	  0	
17-Apr-2013	sub2316	2316	  2	  0	 99	  5	  2	  6	  4	  3	  0	  2	  0	0.30980	  1	0.80000	  0	 26	 67	 88	  1	
17-Apr-2013	sub2316	2316	  2	  0	100	  5	  2	  4	  2	  5	  1	  2	  1	0.26448	  1	0.80000	  0	 24	 62	 63	  1	
17-Apr-2013	sub2316	2316	  2	  0	101	  5	  2	  3	  3	  1	  1	  2	  0	0.31803	  0	0.70000	  0	 23	 82	 83	  1	
17-Apr-2013	sub2316	2316	  2	  0	102	  5	  2	  3	  3	  1	  1	  2	  0	0.27237	  0	0.70000	  0	 23	 82	 83	  1	
17-Apr-2013	sub2316	2316	  2	  0	103	  5	  2	  6	  4	  3	  0	  2	  0	0.43509	  1	0.70000	  0	 26	 67	 88	  1	
17-Apr-2013	sub2316	2316	  2	  0	104	  5	  2	  4	  2	  5	  1	  1	  0	0.58411	  0	0.70000	  0	 24	 82	 83	  0	
17-Apr-2013	sub2316	2316	  2	  0	105	  5	  2	  5	  1	  5	  0	  2	  1	0.00106	  0	0.70000	  0	 25	 87	 68	  1	
17-Apr-2013	sub2316	2316	  2	  0	106	  5	  2	  3	  3	  1	  1	  2	  0	1.44182	  0	0.70000	  1	 23	 82	 51	  0	
17-Apr-2013	sub2316	2316	  2	  0	107	  5	  2	  1	  5	  3	  1	  2	  0	0.31092	  0	0.80000	  0	 21	 80	 81	  1	
17-Apr-2013	sub2316	2316	  2	  0	108	  5	  2	  5	  1	  5	  0	  2	  1	0.31328	  0	0.80000	  0	 25	 87	 68	  1	
17-Apr-2013	sub2316	2316	  2	  0	109	  5	  2	  2	  6	  5	  1	  2	  1	0.06607	  1	0.80000	  0	 22	 60	 61	  1	
17-Apr-2013	sub2316	2316	  2	  0	110	  5	  2	  5	  1	  5	  0	  2	  1	0.30612	  0	0.80000	  0	 25	 87	 68	  1	
17-Apr-2013	sub2316	2316	  2	  0	111	  5	  2	  4	  2	  5	  0	  2	  0	0.31144	  1	0.80000	  0	 24	 64	 89	  1	
17-Apr-2013	sub2316	2316	  2	  0	112	  5	  2	  6	  4	  3	  1	  2	  1	0.00017	  1	0.80000	  0	 26	 65	 66	  1	
17-Apr-2013	sub2316	2316	  2	  0	113	  5	  2	  6	  4	  3	  1	  2	  1	0.32140	  1	0.80000	  0	 26	 65	 66	  1	
17-Apr-2013	sub2316	2316	  2	  0	114	  5	  2	  1	  5	  3	  1	  2	  0	0.43118	  0	0.80000	  0	 21	 80	 81	  1	
17-Apr-2013	sub2316	2316	  2	  0	115	  5	  2	  5	  1	  5	  0	  2	  1	0.31851	  0	0.80000	  0	 25	 87	 68	  1	
17-Apr-2013	sub2316	2316	  2	  0	116	  5	  2	  5	  1	  5	  0	  2	  1	0.33712	  0	0.80000	  0	 25	 87	 68	  1	
17-Apr-2013	sub2316	2316	  2	  0	117	  5	  2	  1	  5	  3	  1	  2	  0	0.40557	  0	0.80000	  0	 21	 80	 81	  1	
17-Apr-2013	sub2316	2316	  2	  0	118	  5	  2	  3	  3	  1	  0	  2	  1	0.00111	  0	0.70000	  0	 23	 84	 69	  1	
17-Apr-2013	sub2316	2316	  2	  0	119	  5	  2	  1	  5	  3	  1	  2	  0	0.38646	  0	0.70000	  0	 21	 80	 81	  1	
17-Apr-2013	sub2316	2316	  2	  0	120	  5	  2	  1	  5	  3	  1	  2	  0	0.32887	  0	0.70000	  0	 21	 80	 81	  1	
17-Apr-2013	sub2316	2316	  2	  0	121	  5	  2	  2	  6	  5	  1	  2	  1	0.32518	  1	0.70000	  0	 22	 60	 61	  1	
17-Apr-2013	sub2316	2316	  2	  0	122	  5	  2	  1	  5	  3	  1	  2	  0	0.37594	  0	0.70000	  0	 21	 80	 81	  1	
17-Apr-2013	sub2316	2316	  2	  0	123	  5	  2	  1	  5	  3	  1	  2	  0	0.29868	  0	0.70000	  0	 21	 80	 81	  1	
17-Apr-2013	sub2316	2316	  2	  0	124	  5	  2	  6	  4	  3	  0	  1	  1	0.37220	  0	0.70000	  0	 26	 87	 68	  1	
17-Apr-2013	sub2316	2316	  2	  0	125	  5	  2	  2	  6	  5	  1	  1	  0	0.41090	  0	0.70000	  0	 22	 80	 81	  1	
17-Apr-2013	sub2316	2316	  2	  0	126	  5	  2	  1	  5	  3	  1	  2	  0	0.52954	  0	0.70000	  0	 21	 80	 81	  0	
17-Apr-2013	sub2316	2316	  2	  0	127	  5	  2	  4	  2	  5	  1	  1	  0	0.33110	  0	0.70000	  0	 24	 82	 83	  1	
17-Apr-2013	sub2316	2316	  2	  0	128	  5	  2	  3	  3	  1	  1	  2	  0	0.33305	  0	0.70000	  0	 23	 82	 83	  1	
17-Apr-2013	sub2316	2316	  2	  0	129	  5	  2	  4	  2	  5	  1	  2	  1	0.39669	  1	0.70000	  0	 24	 62	 63	  1	
17-Apr-2013	sub2316	2316	  2	  0	130	  5	  2	  5	  1	  5	  0	  2	  1	0.39792	  0	0.70000	  0	 25	 87	 68	  1	
17-Apr-2013	sub2316	2316	  2	  0	131	  5	  2	  2	  6	  5	  1	  2	  1	0.39462	  1	0.70000	  0	 22	 60	 61	  1	
17-Apr-2013	sub2316	2316	  2	  0	132	  5	  2	  4	  2	  5	  1	  2	  1	0.41297	  1	0.70000	  0	 24	 62	 63	  1	
17-Apr-2013	sub2316	2316	  2	  0	133	  5	  2	  5	  1	  5	  0	  2	  1	0.40516	  0	0.70000	  0	 25	 87	 68	  1	
17-Apr-2013	sub2316	2316	  2	  0	134	  5	  2	  6	  4	  3	  1	  2	  1	0.36068	  1	0.70000	  0	 26	 65	 66	  1	
17-Apr-2013	sub2316	2316	  2	  0	135	  5	  2	  3	  3	  1	  1	  2	  0	0.46094	  0	0.70000	  0	 23	 82	 83	  1	
17-Apr-2013	sub2316	2316	  2	  0	136	  5	  2	  6	  4	  3	  0	  2	  0	0.38546	  1	0.70000	  0	 26	 67	 88	  1	
17-Apr-2013	sub2316	2316	  2	  0	137	  5	  2	  3	  3	  1	  1	  1	  1	0.47732	  1	0.70000	  0	 23	 62	 63	  1	
17-Apr-2013	sub2316	2316	  2	  0	138	  5	  2	  2	  6	  5	  1	  1	  0	0.31454	  0	0.70000	  0	 22	 80	 81	  1	
17-Apr-2013	sub2316	2316	  2	  0	139	  5	  2	  4	  2	  5	  1	  2	  1	0.31611	  1	0.70000	  0	 24	 62	 63	  1	
17-Apr-2013	sub2316	2316	  2	  0	140	  5	  2	  6	  4	  3	  1	  2	  1	0.40049	  1	0.70000	  0	 26	 65	 66	  1	
17-Apr-2013	sub2316	2316	  2	  0	141	  5	  2	  2	  6	  5	  1	  2	  1	0.37391	  1	0.60000	  0	 22	 60	 61	  1	
17-Apr-2013	sub2316	2316	  2	  0	142	  5	  2	  5	  1	  5	  0	  2	  1	0.37134	  0	0.60000	  0	 25	 87	 68	  1	
17-Apr-2013	sub2316	2316	  2	  0	143	  5	  2	  2	  6	  5	  1	  2	  1	0.38982	  1	0.60000	  0	 22	 60	 61	  1	
17-Apr-2013	sub2316	2316	  2	  0	144	  5	  2	  4	  2	  5	  1	  2	  1	0.32426	  1	0.60000	  0	 24	 62	 63	  1	
17-Apr-2013	sub2316	2316	  2	  0	145	  5	  2	  4	  2	  5	  0	  2	  0	0.50806	  1	0.60000	  0	 24	 64	 89	  0	
17-Apr-2013	sub2316	2316	  2	  0	146	  5	  2	  1	  5	  3	  1	  2	  0	0.38606	  0	0.60000	  0	 21	 80	 81	  1	
17-Apr-2013	sub2316	2316	  2	  0	147	  5	  2	  4	  2	  5	  1	  2	  1	0.36481	  1	0.60000	  0	 24	 62	 63	  1	
17-Apr-2013	sub2316	2316	  2	  0	148	  5	  2	  5	  1	  5	  0	  2	  1	0.32293	  0	0.60000	  0	 25	 87	 68	  1	
17-Apr-2013	sub2316	2316	  2	  0	149	  5	  2	  3	  3	  1	  1	  2	  0	0.26138	  0	0.60000	  0	 23	 82	 83	  1	
17-Apr-2013	sub2316	2316	  2	  0	150	  5	  2	  6	  4	  3	  1	  1	  0	0.32818	  0	0.60000	  0	 26	 85	 86	  1	
17-Apr-2013	sub2316	2316	  2	  0	  1	  6	  1	  5	  3	  6	  1	  1	  1	0.65757	  1	0.60000	  1	 15	 35	 51	  0	
17-Apr-2013	sub2316	2316	  2	  0	  2	  6	  1	  3	  1	  2	  0	  2	  1	0.18295	  0	0.90000	  0	 13	 44	 39	  1	
17-Apr-2013	sub2316	2316	  2	  0	  3	  6	  1	  3	  1	  2	  1	  2	  0	0.33800	  0	0.90000	  0	 13	 42	 43	  1	
17-Apr-2013	sub2316	2316	  2	  0	  4	  6	  1	  6	  5	  6	  0	  1	  1	0.36373	  0	0.90000	  0	 16	 47	 38	  1	
17-Apr-2013	sub2316	2316	  2	  0	  5	  6	  1	  3	  1	  2	  1	  2	  0	0.31011	  0	0.90000	  0	 13	 42	 43	  1	
17-Apr-2013	sub2316	2316	  2	  0	  6	  6	  1	  4	  2	  4	  1	  1	  0	0.25790	  0	0.90000	  0	 14	 42	 43	  1	
17-Apr-2013	sub2316	2316	  2	  0	  7	  6	  1	  4	  2	  4	  1	  1	  0	0.53761	  0	0.90000	  0	 14	 42	 43	  0	
17-Apr-2013	sub2316	2316	  2	  0	  8	  6	  1	  6	  5	  6	  0	  2	  0	0.27539	  1	0.90000	  0	 16	 37	 48	  1	
17-Apr-2013	sub2316	2316	  2	  0	  9	  6	  1	  1	  6	  1	  1	  2	  0	0.34835	  0	0.90000	  0	 11	 40	 41	  1	
17-Apr-2013	sub2316	2316	  2	  0	 10	  6	  1	  2	  4	  6	  1	  2	  1	0.36311	  1	0.90000	  0	 12	 30	 31	  1	
17-Apr-2013	sub2316	2316	  2	  0	 11	  6	  1	  4	  2	  4	  1	  2	  1	0.60226	  1	0.90000	  0	 14	 32	 33	  0	
17-Apr-2013	sub2316	2316	  2	  0	 12	  6	  1	  5	  3	  6	  1	  2	  0	0.64004	  0	0.90000	  0	 15	 45	 46	  0	
17-Apr-2013	sub2316	2316	  2	  0	 13	  6	  1	  4	  2	  4	  0	  2	  0	0.70396	  1	0.90000	  0	 14	 34	 49	  0	
17-Apr-2013	sub2316	2316	  2	  0	 14	  6	  1	  5	  3	  6	  1	  1	  1	0.20575	  1	0.90000	  0	 15	 35	 36	  1	
17-Apr-2013	sub2316	2316	  2	  0	 15	  6	  1	  3	  1	  2	  1	  2	  0	0.39282	  0	0.90000	  0	 13	 42	 43	  1	
17-Apr-2013	sub2316	2316	  2	  0	 16	  6	  1	  6	  5	  6	  1	  2	  1	0.43163	  1	0.80000	  0	 16	 35	 36	  1	
17-Apr-2013	sub2316	2316	  2	  0	 17	  6	  1	  4	  2	  4	  1	  1	  0	0.58083	  0	0.80000	  0	 14	 42	 43	  0	
17-Apr-2013	sub2316	2316	  2	  0	 18	  6	  1	  5	  3	  6	  1	  2	  0	0.34533	  0	0.70000	  0	 15	 45	 46	  1	
17-Apr-2013	sub2316	2316	  2	  0	 19	  6	  1	  3	  1	  2	  0	  2	  1	0.00009	  0	0.70000	  0	 13	 44	 39	  1	
17-Apr-2013	sub2316	2316	  2	  0	 20	  6	  1	  1	  6	  1	  1	  2	  0	0.46286	  0	0.70000	  0	 11	 40	 41	  1	
17-Apr-2013	sub2316	2316	  2	  0	 21	  6	  1	  2	  4	  6	  1	  1	  0	0.47596	  0	0.60000	  0	 12	 40	 41	  1	
17-Apr-2013	sub2316	2316	  2	  0	 22	  6	  1	  3	  1	  2	  1	  2	  0	0.00021	  0	0.60000	  0	 13	 42	 43	  1	
17-Apr-2013	sub2316	2316	  2	  0	 23	  6	  1	  6	  5	  6	  1	  1	  0	0.46304	  0	0.60000	  0	 16	 45	 46	  1	
17-Apr-2013	sub2316	2316	  2	  0	 24	  6	  1	  4	  2	  4	  1	  1	  0	0.38112	  0	0.60000	  0	 14	 42	 43	  1	
17-Apr-2013	sub2316	2316	  2	  0	 25	  6	  1	  5	  3	  6	  0	  1	  0	0.42813	  1	0.60000	  0	 15	 37	 48	  1	
17-Apr-2013	sub2316	2316	  2	  0	 26	  6	  1	  1	  6	  1	  1	  1	  1	0.46330	  1	0.50000	  0	 11	 30	 31	  1	
17-Apr-2013	sub2316	2316	  2	  0	 27	  6	  1	  3	  1	  2	  1	  2	  0	0.41173	  0	0.50000	  0	 13	 42	 43	  1	
17-Apr-2013	sub2316	2316	  2	  0	 28	  6	  1	  2	  4	  6	  1	  1	  0	0.32354	  0	0.50000	  0	 12	 40	 41	  1	
17-Apr-2013	sub2316	2316	  2	  0	 29	  6	  1	  4	  2	  4	  1	  1	  0	0.54538	  0	0.50000	  1	 14	 42	 51	  0	
17-Apr-2013	sub2316	2316	  2	  0	 30	  6	  1	  1	  6	  1	  1	  1	  1	0.52277	  1	0.80000	  0	 11	 30	 31	  0	
17-Apr-2013	sub2316	2316	  2	  0	 31	  6	  1	  1	  6	  1	  1	  1	  1	0.56814	  1	0.80000	  0	 11	 30	 31	  0	
17-Apr-2013	sub2316	2316	  2	  0	 32	  6	  1	  5	  3	  6	  1	  1	  1	0.51293	  1	0.80000	  0	 15	 35	 36	  0	
17-Apr-2013	sub2316	2316	  2	  0	 33	  6	  1	  1	  6	  1	  1	  1	  1	0.41724	  1	0.80000	  0	 11	 30	 31	  1	
17-Apr-2013	sub2316	2316	  2	  0	 34	  6	  1	  4	  2	  4	  1	  1	  0	0.37776	  0	0.80000	  0	 14	 42	 43	  1	
17-Apr-2013	sub2316	2316	  2	  0	 35	  6	  1	  4	  2	  4	  1	  1	  0	0.54053	  0	0.70000	  0	 14	 42	 43	  0	
17-Apr-2013	sub2316	2316	  2	  0	 36	  6	  1	  3	  1	  2	  1	  2	  0	0.56347	  0	0.70000	  0	 13	 42	 43	  0	
17-Apr-2013	sub2316	2316	  2	  0	 37	  6	  1	  5	  3	  6	  0	  1	  0	0.37806	  1	0.70000	  0	 15	 37	 48	  1	
17-Apr-2013	sub2316	2316	  2	  0	 38	  6	  1	  6	  5	  6	  1	  2	  1	0.57906	  1	0.70000	  0	 16	 35	 36	  0	
17-Apr-2013	sub2316	2316	  2	  0	 39	  6	  1	  2	  4	  6	  1	  2	  1	0.65056	  1	0.70000	  0	 12	 30	 31	  0	
17-Apr-2013	sub2316	2316	  2	  0	 40	  6	  1	  2	  4	  6	  1	  2	  1	0.50469	  1	0.70000	  0	 12	 30	 31	  0	
17-Apr-2013	sub2316	2316	  2	  0	 41	  6	  1	  6	  5	  6	  0	  2	  0	0.31548	  1	0.60000	  0	 16	 37	 48	  1	
17-Apr-2013	sub2316	2316	  2	  0	 42	  6	  1	  2	  4	  6	  1	  2	  1	0.57180	  1	0.60000	  0	 12	 30	 31	  0	
17-Apr-2013	sub2316	2316	  2	  0	 43	  6	  1	  6	  5	  6	  0	  2	  0	0.49152	  1	0.60000	  0	 16	 37	 48	  1	
17-Apr-2013	sub2316	2316	  2	  0	 44	  6	  1	  6	  5	  6	  0	  1	  1	0.60290	  0	0.60000	  1	 16	 47	 51	  0	
17-Apr-2013	sub2316	2316	  2	  0	 45	  6	  1	  6	  5	  6	  0	  1	  1	0.40604	  0	0.80000	  0	 16	 47	 38	  1	
17-Apr-2013	sub2316	2316	  2	  0	 46	  6	  1	  3	  1	  2	  1	  1	  1	0.37655	  1	0.80000	  0	 13	 32	 33	  1	
17-Apr-2013	sub2316	2316	  2	  0	 47	  6	  1	  3	  1	  2	  1	  1	  1	0.44341	  1	0.80000	  0	 13	 32	 33	  1	
17-Apr-2013	sub2316	2316	  2	  0	 48	  6	  1	  2	  4	  6	  1	  1	  0	0.47449	  0	0.80000	  0	 12	 40	 41	  1	
17-Apr-2013	sub2316	2316	  2	  0	 49	  6	  1	  2	  4	  6	  1	  2	  1	0.39612	  1	0.80000	  0	 12	 30	 31	  1	
17-Apr-2013	sub2316	2316	  2	  0	 50	  6	  1	  1	  6	  1	  1	  2	  0	0.85367	  0	0.80000	  1	 11	 40	 51	  0	
17-Apr-2013	sub2316	2316	  2	  0	 51	  6	  1	  2	  4	  6	  1	  2	  1	0.36831	  1	0.90000	  0	 12	 30	 31	  1	
17-Apr-2013	sub2316	2316	  2	  0	 52	  6	  1	  2	  4	  6	  1	  2	  1	0.36845	  1	0.90000	  0	 12	 30	 31	  1	
17-Apr-2013	sub2316	2316	  2	  0	 53	  6	  1	  6	  5	  6	  0	  2	  0	0.45280	  1	0.90000	  0	 16	 37	 48	  1	
17-Apr-2013	sub2316	2316	  2	  0	 54	  6	  1	  5	  3	  6	  1	  2	  0	0.35988	  0	0.90000	  0	 15	 45	 46	  1	
17-Apr-2013	sub2316	2316	  2	  0	 55	  6	  1	  6	  5	  6	  1	  1	  0	0.30817	  0	0.90000	  0	 16	 45	 46	  1	
17-Apr-2013	sub2316	2316	  2	  0	 56	  6	  1	  1	  6	  1	  1	  2	  0	0.54193	  0	0.90000	  0	 11	 40	 41	  0	
17-Apr-2013	sub2316	2316	  2	  0	 57	  6	  1	  5	  3	  6	  0	  1	  0	0.65997	  1	0.90000	  0	 15	 37	 48	  0	
17-Apr-2013	sub2316	2316	  2	  0	 58	  6	  1	  2	  4	  6	  1	  2	  1	0.28826	  1	0.90000	  0	 12	 30	 31	  1	
17-Apr-2013	sub2316	2316	  2	  0	 59	  6	  1	  1	  6	  1	  1	  2	  0	0.46600	  0	0.80000	  0	 11	 40	 41	  1	
17-Apr-2013	sub2316	2316	  2	  0	 60	  6	  1	  5	  3	  6	  1	  1	  1	0.58144	  1	0.80000	  0	 15	 35	 36	  0	
17-Apr-2013	sub2316	2316	  2	  0	 61	  6	  1	  3	  1	  2	  1	  1	  1	0.34829	  1	0.80000	  0	 13	 32	 33	  1	
17-Apr-2013	sub2316	2316	  2	  0	 62	  6	  1	  2	  4	  6	  1	  1	  0	0.44206	  0	0.80000	  0	 12	 40	 41	  1	
17-Apr-2013	sub2316	2316	  2	  0	 63	  6	  1	  6	  5	  6	  1	  2	  1	0.48626	  1	0.80000	  0	 16	 35	 36	  1	
17-Apr-2013	sub2316	2316	  2	  0	 64	  6	  1	  5	  3	  6	  0	  1	  0	0.56595	  1	0.80000	  0	 15	 37	 48	  0	
17-Apr-2013	sub2316	2316	  2	  0	 65	  6	  1	  1	  6	  1	  1	  1	  1	0.56591	  1	0.80000	  0	 11	 30	 31	  0	
17-Apr-2013	sub2316	2316	  2	  0	 66	  6	  1	  4	  2	  4	  1	  2	  1	0.46811	  1	0.80000	  0	 14	 32	 33	  1	
17-Apr-2013	sub2316	2316	  2	  0	 67	  6	  1	  2	  4	  6	  1	  2	  1	0.49143	  1	0.80000	  0	 12	 30	 31	  1	
17-Apr-2013	sub2316	2316	  2	  0	 68	  6	  1	  4	  2	  4	  0	  2	  0	0.42996	  1	0.70000	  0	 14	 34	 49	  1	
17-Apr-2013	sub2316	2316	  2	  0	 69	  6	  1	  1	  6	  1	  1	  2	  0	0.45009	  0	0.70000	  0	 11	 40	 41	  1	
17-Apr-2013	sub2316	2316	  2	  0	 70	  6	  1	  4	  2	  4	  1	  2	  1	0.40746	  1	0.70000	  0	 14	 32	 33	  1	
17-Apr-2013	sub2316	2316	  2	  0	 71	  6	  1	  1	  6	  1	  1	  2	  0	0.35801	  0	0.70000	  0	 11	 40	 41	  1	
17-Apr-2013	sub2316	2316	  2	  0	 72	  6	  1	  3	  1	  2	  1	  1	  1	0.39595	  1	0.70000	  0	 13	 32	 33	  1	
17-Apr-2013	sub2316	2316	  2	  0	 73	  6	  1	  3	  1	  2	  0	  2	  1	0.35973	  0	0.70000	  0	 13	 44	 39	  1	
17-Apr-2013	sub2316	2316	  2	  0	 74	  6	  1	  6	  5	  6	  1	  2	  1	0.41169	  1	0.70000	  0	 16	 35	 36	  1	
17-Apr-2013	sub2316	2316	  2	  0	 75	  6	  1	  5	  3	  6	  0	  2	  1	0.38804	  0	0.70000	  0	 15	 47	 38	  1	
17-Apr-2013	sub2316	2316	  2	  0	 76	  6	  2	  3	  1	  2	  1	  2	  0	0.52805	  0	0.70000	  0	 23	 82	 83	  0	
17-Apr-2013	sub2316	2316	  2	  0	 77	  6	  2	  1	  6	  1	  1	  2	  0	0.56779	  0	0.70000	  0	 21	 80	 81	  0	
17-Apr-2013	sub2316	2316	  2	  0	 78	  6	  2	  6	  5	  6	  1	  2	  1	0.29352	  1	0.70000	  0	 26	 65	 66	  1	
17-Apr-2013	sub2316	2316	  2	  0	 79	  6	  2	  1	  6	  1	  1	  2	  0	0.35399	  0	0.70000	  0	 21	 80	 81	  1	
17-Apr-2013	sub2316	2316	  2	  0	 80	  6	  2	  6	  5	  6	  0	  2	  0	0.29201	  1	0.70000	  0	 26	 67	 88	  1	
17-Apr-2013	sub2316	2316	  2	  0	 81	  6	  2	  2	  4	  6	  1	  1	  0	0.44260	  0	0.60000	  0	 22	 80	 81	  1	
17-Apr-2013	sub2316	2316	  2	  0	 82	  6	  2	  2	  4	  6	  1	  2	  1	0.00015	  1	0.60000	  0	 22	 60	 61	  1	
17-Apr-2013	sub2316	2316	  2	  0	 83	  6	  2	  5	  3	  6	  0	  2	  1	0.42942	  0	0.60000	  0	 25	 87	 68	  1	
17-Apr-2013	sub2316	2316	  2	  0	 84	  6	  2	  3	  1	  2	  1	  2	  0	0.41260	  0	0.60000	  0	 23	 82	 83	  1	
17-Apr-2013	sub2316	2316	  2	  0	 85	  6	  2	  4	  2	  4	  1	  1	  0	0.29718	  0	0.60000	  0	 24	 82	 83	  1	
17-Apr-2013	sub2316	2316	  2	  0	 86	  6	  2	  6	  5	  6	  0	  2	  0	0.00021	  1	0.60000	  0	 26	 67	 88	  1	
17-Apr-2013	sub2316	2316	  2	  0	 87	  6	  2	  1	  6	  1	  1	  2	  0	2.42500	  0	0.60000	  1	 21	 80	 51	  0	
17-Apr-2013	sub2316	2316	  2	  0	 88	  6	  2	  4	  2	  4	  1	  2	  1	0.29327	  1	0.70000	  0	 24	 62	 63	  1	
17-Apr-2013	sub2316	2316	  2	  0	 89	  6	  2	  4	  2	  4	  1	  2	  1	0.32420	  1	0.70000	  0	 24	 62	 63	  1	
17-Apr-2013	sub2316	2316	  2	  0	 90	  6	  2	  6	  5	  6	  1	  2	  1	0.49985	  1	0.70000	  0	 26	 65	 66	  1	
17-Apr-2013	sub2316	2316	  2	  0	 91	  6	  2	  2	  4	  6	  1	  2	  1	0.38429	  1	0.70000	  0	 22	 60	 61	  1	
17-Apr-2013	sub2316	2316	  2	  0	 92	  6	  2	  4	  2	  4	  1	  2	  1	0.38326	  1	0.70000	  0	 24	 62	 63	  1	
17-Apr-2013	sub2316	2316	  2	  0	 93	  6	  2	  2	  4	  6	  1	  2	  1	0.33121	  1	0.70000	  0	 22	 60	 61	  1	
17-Apr-2013	sub2316	2316	  2	  0	 94	  6	  2	  6	  5	  6	  1	  2	  1	0.35126	  1	0.70000	  0	 26	 65	 66	  1	
17-Apr-2013	sub2316	2316	  2	  0	 95	  6	  2	  3	  1	  2	  1	  2	  0	0.29296	  0	0.70000	  0	 23	 82	 83	  1	
17-Apr-2013	sub2316	2316	  2	  0	 96	  6	  2	  4	  2	  4	  1	  2	  1	0.30453	  1	0.70000	  0	 24	 62	 63	  1	
17-Apr-2013	sub2316	2316	  2	  0	 97	  6	  2	  2	  4	  6	  1	  1	  0	0.29629	  0	0.70000	  0	 22	 80	 81	  1	
17-Apr-2013	sub2316	2316	  2	  0	 98	  6	  2	  3	  1	  2	  0	  2	  1	0.26350	  0	0.70000	  0	 23	 84	 69	  1	
17-Apr-2013	sub2316	2316	  2	  0	 99	  6	  2	  5	  3	  6	  0	  2	  1	0.47332	  0	0.70000	  0	 25	 87	 68	  1	
17-Apr-2013	sub2316	2316	  2	  0	100	  6	  2	  4	  2	  4	  0	  2	  0	0.54183	  1	0.70000	  0	 24	 64	 89	  0	
17-Apr-2013	sub2316	2316	  2	  0	101	  6	  2	  6	  5	  6	  0	  2	  0	0.37536	  1	0.60000	  0	 26	 67	 88	  1	
17-Apr-2013	sub2316	2316	  2	  0	102	  6	  2	  1	  6	  1	  1	  1	  1	0.32938	  1	0.60000	  0	 21	 60	 61	  1	
17-Apr-2013	sub2316	2316	  2	  0	103	  6	  2	  1	  6	  1	  1	  1	  1	0.41799	  1	0.60000	  0	 21	 60	 61	  1	
17-Apr-2013	sub2316	2316	  2	  0	104	  6	  2	  6	  5	  6	  0	  2	  0	0.35440	  1	0.60000	  0	 26	 67	 88	  1	
17-Apr-2013	sub2316	2316	  2	  0	105	  6	  2	  4	  2	  4	  0	  1	  1	0.00010	  0	0.60000	  0	 24	 84	 69	  1	
17-Apr-2013	sub2316	2316	  2	  0	106	  6	  2	  5	  3	  6	  0	  2	  1	0.27544	  0	0.60000	  0	 25	 87	 68	  1	
17-Apr-2013	sub2316	2316	  2	  0	107	  6	  2	  5	  3	  6	  0	  2	  1	0.05195	  0	0.60000	  0	 25	 87	 68	  1	
17-Apr-2013	sub2316	2316	  2	  0	108	  6	  2	  6	  5	  6	  1	  2	  1	2.41462	  1	0.60000	  1	 26	 65	 51	  0	
17-Apr-2013	sub2316	2316	  2	  0	109	  6	  2	  5	  3	  6	  0	  2	  1	0.11781	  0	0.70000	  0	 25	 87	 68	  1	
17-Apr-2013	sub2316	2316	  2	  0	110	  6	  2	  4	  2	  4	  0	  2	  0	0.46736	  1	0.70000	  0	 24	 64	 89	  1	
17-Apr-2013	sub2316	2316	  2	  0	111	  6	  2	  5	  3	  6	  0	  1	  0	0.42509	  1	0.70000	  0	 25	 67	 88	  1	
17-Apr-2013	sub2316	2316	  2	  0	112	  6	  2	  3	  1	  2	  1	  2	  0	0.25020	  0	0.70000	  0	 23	 82	 83	  1	
17-Apr-2013	sub2316	2316	  2	  0	113	  6	  2	  1	  6	  1	  1	  2	  0	0.30666	  0	0.70000	  0	 21	 80	 81	  1	
17-Apr-2013	sub2316	2316	  2	  0	114	  6	  2	  3	  1	  2	  1	  2	  0	0.42148	  0	0.70000	  0	 23	 82	 83	  1	
17-Apr-2013	sub2316	2316	  2	  0	115	  6	  2	  3	  1	  2	  1	  1	  1	0.30615	  1	0.70000	  0	 23	 62	 63	  1	
17-Apr-2013	sub2316	2316	  2	  0	116	  6	  2	  5	  3	  6	  0	  1	  0	0.62873	  1	0.70000	  0	 25	 67	 88	  0	
17-Apr-2013	sub2316	2316	  2	  0	117	  6	  2	  2	  4	  6	  1	  2	  1	0.56871	  1	0.70000	  0	 22	 60	 61	  0	
17-Apr-2013	sub2316	2316	  2	  0	118	  6	  2	  5	  3	  6	  0	  1	  0	0.19623	  1	0.70000	  0	 25	 67	 88	  1	
17-Apr-2013	sub2316	2316	  2	  0	119	  6	  2	  4	  2	  4	  1	  2	  1	0.27745	  1	0.70000	  0	 24	 62	 63	  1	
17-Apr-2013	sub2316	2316	  2	  0	120	  6	  2	  1	  6	  1	  1	  2	  0	0.34998	  0	0.70000	  0	 21	 80	 81	  1	
17-Apr-2013	sub2316	2316	  2	  0	121	  6	  2	  3	  1	  2	  1	  1	  1	0.47288	  1	0.60000	  0	 23	 62	 63	  1	
17-Apr-2013	sub2316	2316	  2	  0	122	  6	  2	  4	  2	  4	  1	  2	  1	0.39125	  1	0.60000	  0	 24	 62	 63	  1	
17-Apr-2013	sub2316	2316	  2	  0	123	  6	  2	  3	  1	  2	  0	  1	  0	0.33153	  1	0.60000	  0	 23	 64	 89	  1	
17-Apr-2013	sub2316	2316	  2	  0	124	  6	  2	  5	  3	  6	  0	  2	  1	0.27435	  0	0.60000	  0	 25	 87	 68	  1	
17-Apr-2013	sub2316	2316	  2	  0	125	  6	  2	  4	  2	  4	  1	  1	  0	0.37394	  0	0.60000	  0	 24	 82	 83	  1	
17-Apr-2013	sub2316	2316	  2	  0	126	  6	  2	  5	  3	  6	  0	  2	  1	0.29959	  0	0.60000	  0	 25	 87	 68	  1	
17-Apr-2013	sub2316	2316	  2	  0	127	  6	  2	  6	  5	  6	  1	  2	  1	0.38853	  1	0.60000	  0	 26	 65	 66	  1	
17-Apr-2013	sub2316	2316	  2	  0	128	  6	  2	  5	  3	  6	  0	  2	  1	0.37626	  0	0.60000	  0	 25	 87	 68	  1	
17-Apr-2013	sub2316	2316	  2	  0	129	  6	  2	  1	  6	  1	  1	  2	  0	0.45657	  0	0.60000	  0	 21	 80	 81	  1	
17-Apr-2013	sub2316	2316	  2	  0	130	  6	  2	  6	  5	  6	  1	  2	  1	0.35350	  1	0.60000	  0	 26	 65	 66	  1	
17-Apr-2013	sub2316	2316	  2	  0	131	  6	  2	  2	  4	  6	  1	  2	  1	0.43520	  1	0.60000	  0	 22	 60	 61	  1	
17-Apr-2013	sub2316	2316	  2	  0	132	  6	  2	  3	  1	  2	  1	  1	  1	0.77026	  1	0.60000	  1	 23	 62	 51	  0	
17-Apr-2013	sub2316	2316	  2	  0	133	  6	  2	  5	  3	  6	  0	  2	  1	0.34630	  0	0.70000	  0	 25	 87	 68	  1	
17-Apr-2013	sub2316	2316	  2	  0	134	  6	  2	  2	  4	  6	  1	  1	  0	0.28990	  0	0.70000	  0	 22	 80	 81	  1	
17-Apr-2013	sub2316	2316	  2	  0	135	  6	  2	  3	  1	  2	  1	  2	  0	0.05841	  0	0.70000	  0	 23	 82	 83	  1	
17-Apr-2013	sub2316	2316	  2	  0	136	  6	  2	  2	  4	  6	  1	  1	  0	0.28701	  0	0.70000	  0	 22	 80	 81	  1	
17-Apr-2013	sub2316	2316	  2	  0	137	  6	  2	  1	  6	  1	  1	  2	  0	0.02597	  0	0.70000	  0	 21	 80	 81	  1	
17-Apr-2013	sub2316	2316	  2	  0	138	  6	  2	  1	  6	  1	  1	  1	  1	2.15801	  1	0.70000	  1	 21	 60	 51	  0	
17-Apr-2013	sub2316	2316	  2	  0	139	  6	  2	  2	  4	  6	  1	  1	  0	0.11537	  0	0.70000	  0	 22	 80	 81	  1	
17-Apr-2013	sub2316	2316	  2	  0	140	  6	  2	  1	  6	  1	  1	  2	  0	0.12994	  0	0.70000	  0	 21	 80	 81	  1	
17-Apr-2013	sub2316	2316	  2	  0	141	  6	  2	  3	  1	  2	  1	  2	  0	0.08274	  0	0.70000	  0	 23	 82	 83	  1	
17-Apr-2013	sub2316	2316	  2	  0	142	  6	  2	  4	  2	  4	  1	  1	  0	0.29117	  0	0.70000	  0	 24	 82	 83	  1	
17-Apr-2013	sub2316	2316	  2	  0	143	  6	  2	  2	  4	  6	  1	  1	  0	0.34924	  0	0.70000	  0	 22	 80	 81	  1	
17-Apr-2013	sub2316	2316	  2	  0	144	  6	  2	  6	  5	  6	  0	  2	  0	0.37270	  1	0.70000	  0	 26	 67	 88	  1	
17-Apr-2013	sub2316	2316	  2	  0	145	  6	  2	  6	  5	  6	  0	  1	  1	0.51000	  0	0.70000	  0	 26	 87	 68	  0	
17-Apr-2013	sub2316	2316	  2	  0	146	  6	  2	  5	  3	  6	  0	  2	  1	0.60933	  0	0.70000	  0	 25	 87	 68	  0	
17-Apr-2013	sub2316	2316	  2	  0	147	  6	  2	  4	  2	  4	  1	  2	  1	0.41075	  1	0.70000	  0	 24	 62	 63	  1	
17-Apr-2013	sub2316	2316	  2	  0	148	  6	  2	  1	  6	  1	  1	  2	  0	0.63220	  0	0.70000	  0	 21	 80	 81	  0	
17-Apr-2013	sub2316	2316	  2	  0	149	  6	  2	  1	  6	  1	  1	  1	  1	0.57804	  1	0.70000	  0	 21	 60	 61	  0	
17-Apr-2013	sub2316	2316	  2	  0	150	  6	  2	  2	  4	  6	  1	  2	  1	0.63204	  1	0.70000	  0	 22	 60	 61	  0	
