Date 	 Name 	 ID 	 Gender 	 Appearance 	 Trial 	 Block 	 Bin 	 Condition 	 Category 	 Number 	 Valid 	 Keypress 	 Correct 	 RT 	 Realcorrect 	 Deadline 	 Timeout 	 Stimtrigger 	 Resptrigger 	 Fedtrigger 	 WithinTime 	 
18-Apr-2013	sub2317	2317	  1	  1	  1	  1	  1	  5	  5	  3	  1	  1	  1	20.96627	  1	0.60000	  1	 15	 35	 51	  0	
18-Apr-2013	sub2317	2317	  1	  1	  2	  1	  1	  3	  3	  2	  1	  2	  0	0.81991	  0	0.90000	  0	 13	 42	 43	  0	
18-Apr-2013	sub2317	2317	  1	  1	  3	  1	  1	  5	  5	  3	  1	  1	  1	0.84382	  1	0.90000	  0	 15	 35	 36	  0	
18-Apr-2013	sub2317	2317	  1	  1	  4	  1	  1	  1	  4	  2	  1	  2	  0	0.78340	  0	0.90000	  0	 11	 40	 41	  0	
18-Apr-2013	sub2317	2317	  1	  1	  5	  1	  1	  6	  6	  3	  0	  1	  1	0.67708	  0	0.90000	  0	 16	 47	 38	  0	
18-Apr-2013	sub2317	2317	  1	  1	  6	  1	  1	  5	  5	  3	  1	  1	  1	0.51416	  1	0.90000	  0	 15	 35	 36	  0	
18-Apr-2013	sub2317	2317	  1	  1	  7	  1	  1	  6	  6	  3	  0	  1	  1	0.53175	  0	0.90000	  0	 16	 47	 38	  0	
18-Apr-2013	sub2317	2317	  1	  1	  8	  1	  1	  2	  1	  2	  1	  1	  0	0.56596	  0	0.90000	  0	 12	 40	 41	  0	
18-Apr-2013	sub2317	2317	  1	  1	  9	  1	  1	  4	  2	  4	  1	  1	  0	0.59607	  0	0.90000	  0	 14	 42	 43	  0	
18-Apr-2013	sub2317	2317	  1	  1	 10	  1	  1	  4	  2	  4	  1	  2	  1	0.52330	  1	0.90000	  0	 14	 32	 33	  0	
18-Apr-2013	sub2317	2317	  1	  1	 11	  1	  1	  6	  6	  3	  1	  1	  0	0.82833	  0	0.90000	  0	 16	 45	 46	  0	
18-Apr-2013	sub2317	2317	  1	  1	 12	  1	  1	  2	  1	  2	  1	  1	  0	0.64560	  0	0.90000	  0	 12	 40	 41	  0	
18-Apr-2013	sub2317	2317	  1	  1	 13	  1	  1	  2	  1	  2	  1	  2	  1	0.53961	  1	0.90000	  0	 12	 30	 31	  0	
18-Apr-2013	sub2317	2317	  1	  1	 14	  1	  1	  1	  4	  2	  1	  1	  1	0.57348	  1	0.90000	  0	 11	 30	 31	  0	
18-Apr-2013	sub2317	2317	  1	  1	 15	  1	  1	  6	  6	  3	  1	  2	  1	0.47489	  1	0.90000	  0	 16	 35	 36	  1	
18-Apr-2013	sub2317	2317	  1	  1	 16	  1	  1	  1	  4	  2	  1	  1	  1	3.49167	  1	0.80000	  1	 11	 30	 51	  0	
18-Apr-2013	sub2317	2317	  1	  1	 17	  1	  1	  5	  5	  3	  1	  1	  1	0.49457	  1	0.90000	  0	 15	 35	 36	  1	
18-Apr-2013	sub2317	2317	  1	  1	 18	  1	  1	  5	  5	  3	  0	  1	  0	0.51176	  1	0.90000	  0	 15	 37	 48	  0	
18-Apr-2013	sub2317	2317	  1	  1	 19	  1	  1	  1	  4	  2	  1	  1	  1	0.50311	  1	0.90000	  0	 11	 30	 31	  0	
18-Apr-2013	sub2317	2317	  1	  1	 20	  1	  1	  4	  2	  4	  1	  1	  0	0.59502	  0	0.90000	  0	 14	 42	 43	  0	
18-Apr-2013	sub2317	2317	  1	  1	 21	  1	  1	  4	  2	  4	  1	  1	  0	1.64439	  0	0.90000	  1	 14	 42	 51	  0	
18-Apr-2013	sub2317	2317	  1	  1	 22	  1	  1	  3	  3	  2	  0	  1	  0	0.70876	  1	0.90000	  0	 13	 34	 49	  0	
18-Apr-2013	sub2317	2317	  1	  1	 23	  1	  1	  5	  5	  3	  1	  1	  1	0.56888	  1	0.90000	  0	 15	 35	 36	  0	
18-Apr-2013	sub2317	2317	  1	  1	 24	  1	  1	  3	  3	  2	  0	  1	  0	0.49820	  1	0.90000	  0	 13	 34	 49	  1	
18-Apr-2013	sub2317	2317	  1	  1	 25	  1	  1	  4	  2	  4	  1	  2	  1	0.69977	  1	0.90000	  0	 14	 32	 33	  0	
18-Apr-2013	sub2317	2317	  1	  1	 26	  1	  1	  3	  3	  2	  1	  2	  0	0.40976	  0	0.90000	  0	 13	 42	 43	  1	
18-Apr-2013	sub2317	2317	  1	  1	 27	  1	  1	  4	  2	  4	  1	  1	  0	0.93835	  0	0.90000	  1	 14	 42	 51	  0	
18-Apr-2013	sub2317	2317	  1	  1	 28	  1	  1	  6	  6	  3	  0	  2	  0	0.93523	  1	0.90000	  1	 16	 37	 51	  0	
18-Apr-2013	sub2317	2317	  1	  1	 29	  1	  1	  2	  1	  2	  1	  1	  0	0.53846	  0	0.90000	  0	 12	 40	 41	  0	
18-Apr-2013	sub2317	2317	  1	  1	 30	  1	  1	  3	  3	  2	  1	  2	  0	0.40889	  0	0.90000	  0	 13	 42	 43	  1	
18-Apr-2013	sub2317	2317	  1	  1	 31	  1	  1	  6	  6	  3	  1	  1	  0	0.38359	  0	0.90000	  0	 16	 45	 46	  1	
18-Apr-2013	sub2317	2317	  1	  1	 32	  1	  1	  1	  4	  2	  1	  1	  1	1.30235	  1	0.90000	  1	 11	 30	 51	  0	
18-Apr-2013	sub2317	2317	  1	  1	 33	  1	  1	  4	  2	  4	  1	  1	  0	1.12228	  0	0.90000	  1	 14	 42	 51	  0	
18-Apr-2013	sub2317	2317	  1	  1	 34	  1	  1	  3	  3	  2	  0	  2	  1	0.51636	  0	0.90000	  0	 13	 44	 39	  0	
18-Apr-2013	sub2317	2317	  1	  1	 35	  1	  1	  5	  5	  3	  0	  1	  0	0.71772	  1	0.90000	  0	 15	 37	 48	  0	
18-Apr-2013	sub2317	2317	  1	  1	 36	  1	  1	  1	  4	  2	  1	  1	  1	0.42067	  1	0.90000	  0	 11	 30	 31	  1	
18-Apr-2013	sub2317	2317	  1	  1	 37	  1	  1	  3	  3	  2	  1	  1	  1	0.57320	  1	0.90000	  0	 13	 32	 33	  0	
18-Apr-2013	sub2317	2317	  1	  1	 38	  1	  1	  6	  6	  3	  1	  1	  0	0.50969	  0	0.90000	  0	 16	 45	 46	  0	
18-Apr-2013	sub2317	2317	  1	  1	 39	  1	  1	  5	  5	  3	  0	  2	  1	1.09102	  0	0.90000	  1	 15	 47	 51	  0	
18-Apr-2013	sub2317	2317	  1	  1	 40	  1	  1	  2	  1	  2	  1	  1	  0	0.39044	  0	0.90000	  0	 12	 40	 41	  1	
18-Apr-2013	sub2317	2317	  1	  1	 41	  1	  1	  2	  1	  2	  1	  1	  0	0.62785	  0	0.90000	  0	 12	 40	 41	  0	
18-Apr-2013	sub2317	2317	  1	  1	 42	  1	  1	  6	  6	  3	  0	  2	  0	0.70470	  1	0.90000	  0	 16	 37	 48	  0	
18-Apr-2013	sub2317	2317	  1	  1	 43	  1	  1	  3	  3	  2	  1	  2	  0	0.62764	  0	0.90000	  0	 13	 42	 43	  0	
18-Apr-2013	sub2317	2317	  1	  1	 44	  1	  1	  3	  3	  2	  1	  2	  0	0.56262	  0	0.90000	  0	 13	 42	 43	  0	
18-Apr-2013	sub2317	2317	  1	  1	 45	  1	  1	  6	  6	  3	  1	  1	  0	0.47018	  0	0.90000	  0	 16	 45	 46	  1	
18-Apr-2013	sub2317	2317	  1	  1	 46	  1	  1	  5	  5	  3	  1	  2	  0	0.66122	  0	0.90000	  0	 15	 45	 46	  0	
18-Apr-2013	sub2317	2317	  1	  1	 47	  1	  1	  4	  2	  4	  1	  1	  0	0.42404	  0	0.90000	  0	 14	 42	 43	  1	
18-Apr-2013	sub2317	2317	  1	  1	 48	  1	  1	  1	  4	  2	  1	  2	  0	0.86462	  0	0.90000	  0	 11	 40	 41	  0	
18-Apr-2013	sub2317	2317	  1	  1	 49	  1	  1	  4	  2	  4	  0	  1	  1	0.46241	  0	0.90000	  0	 14	 44	 39	  1	
18-Apr-2013	sub2317	2317	  1	  1	 50	  1	  1	  2	  1	  2	  1	  1	  0	0.69483	  0	0.90000	  0	 12	 40	 41	  0	
18-Apr-2013	sub2317	2317	  1	  1	 51	  1	  1	  1	  4	  2	  1	  1	  1	0.66711	  1	0.90000	  0	 11	 30	 31	  0	
18-Apr-2013	sub2317	2317	  1	  1	 52	  1	  1	  3	  3	  2	  1	  2	  0	0.33786	  0	0.90000	  0	 13	 42	 43	  1	
18-Apr-2013	sub2317	2317	  1	  1	 53	  1	  1	  3	  3	  2	  1	  1	  1	0.67318	  1	0.90000	  0	 13	 32	 33	  0	
18-Apr-2013	sub2317	2317	  1	  1	 54	  1	  1	  2	  1	  2	  1	  1	  0	0.62200	  0	0.90000	  0	 12	 40	 41	  0	
18-Apr-2013	sub2317	2317	  1	  1	 55	  1	  1	  6	  6	  3	  0	  2	  0	0.58508	  1	0.90000	  0	 16	 37	 48	  0	
18-Apr-2013	sub2317	2317	  1	  1	 56	  1	  1	  5	  5	  3	  0	  1	  0	0.41863	  1	0.90000	  0	 15	 37	 48	  1	
18-Apr-2013	sub2317	2317	  1	  1	 57	  1	  1	  2	  1	  2	  1	  1	  0	0.47625	  0	0.90000	  0	 12	 40	 41	  1	
18-Apr-2013	sub2317	2317	  1	  1	 58	  1	  1	  2	  1	  2	  1	  1	  0	1.01210	  0	0.90000	  1	 12	 40	 51	  0	
18-Apr-2013	sub2317	2317	  1	  1	 59	  1	  1	  5	  5	  3	  0	  1	  0	0.55258	  1	0.90000	  0	 15	 37	 48	  0	
18-Apr-2013	sub2317	2317	  1	  1	 60	  1	  1	  2	  1	  2	  1	  2	  1	0.37712	  1	0.90000	  0	 12	 30	 31	  1	
18-Apr-2013	sub2317	2317	  1	  1	 61	  1	  1	  2	  1	  2	  1	  2	  1	0.40259	  1	0.90000	  0	 12	 30	 31	  1	
18-Apr-2013	sub2317	2317	  1	  1	 62	  1	  1	  1	  4	  2	  1	  1	  1	0.95014	  1	0.90000	  1	 11	 30	 51	  0	
18-Apr-2013	sub2317	2317	  1	  1	 63	  1	  1	  5	  5	  3	  0	  1	  0	0.94300	  1	0.90000	  1	 15	 37	 51	  0	
18-Apr-2013	sub2317	2317	  1	  1	 64	  1	  1	  6	  6	  3	  0	  2	  0	0.37784	  1	0.90000	  0	 16	 37	 48	  1	
18-Apr-2013	sub2317	2317	  1	  1	 65	  1	  1	  3	  3	  2	  1	  1	  1	0.70144	  1	0.90000	  0	 13	 32	 33	  0	
18-Apr-2013	sub2317	2317	  1	  1	 66	  1	  1	  6	  6	  3	  1	  2	  1	0.57083	  1	0.90000	  0	 16	 35	 36	  0	
18-Apr-2013	sub2317	2317	  1	  1	 67	  1	  1	  2	  1	  2	  1	  1	  0	0.55525	  0	0.90000	  0	 12	 40	 41	  0	
18-Apr-2013	sub2317	2317	  1	  1	 68	  1	  1	  1	  4	  2	  1	  2	  0	0.48807	  0	0.90000	  0	 11	 40	 41	  1	
18-Apr-2013	sub2317	2317	  1	  1	 69	  1	  1	  6	  6	  3	  0	  1	  1	0.32644	  0	0.90000	  0	 16	 47	 38	  1	
18-Apr-2013	sub2317	2317	  1	  1	 70	  1	  1	  4	  2	  4	  1	  2	  1	0.39139	  1	0.90000	  0	 14	 32	 33	  1	
18-Apr-2013	sub2317	2317	  1	  1	 71	  1	  1	  4	  2	  4	  0	  2	  0	0.55911	  1	0.90000	  0	 14	 34	 49	  0	
18-Apr-2013	sub2317	2317	  1	  1	 72	  1	  1	  3	  3	  2	  1	  1	  1	0.65485	  1	0.90000	  0	 13	 32	 33	  0	
18-Apr-2013	sub2317	2317	  1	  1	 73	  1	  1	  1	  4	  2	  1	  2	  0	0.47784	  0	0.90000	  0	 11	 40	 41	  1	
18-Apr-2013	sub2317	2317	  1	  1	 74	  1	  1	  1	  4	  2	  1	  1	  1	0.46722	  1	0.90000	  0	 11	 30	 31	  1	
18-Apr-2013	sub2317	2317	  1	  1	 75	  1	  1	  4	  2	  4	  1	  2	  1	0.66116	  1	0.90000	  0	 14	 32	 33	  0	
18-Apr-2013	sub2317	2317	  1	  1	  1	  2	  1	  2	  2	  2	  1	  1	  0	0.44989	  0	0.60000	  0	 12	 40	 41	  1	
18-Apr-2013	sub2317	2317	  1	  1	  2	  2	  1	  2	  2	  2	  1	  1	  0	0.61027	  0	0.30000	  1	 12	 40	 51	  0	
18-Apr-2013	sub2317	2317	  1	  1	  3	  2	  1	  4	  4	  4	  1	  1	  0	0.71769	  0	0.90000	  0	 14	 42	 43	  0	
18-Apr-2013	sub2317	2317	  1	  1	  4	  2	  1	  6	  6	  4	  1	  1	  0	0.45143	  0	0.90000	  0	 16	 45	 46	  1	
18-Apr-2013	sub2317	2317	  1	  1	  5	  2	  1	  2	  2	  2	  1	  1	  0	0.71445	  0	0.90000	  0	 12	 40	 41	  0	
18-Apr-2013	sub2317	2317	  1	  1	  6	  2	  1	  6	  6	  4	  1	  2	  1	0.64491	  1	0.90000	  0	 16	 35	 36	  0	
18-Apr-2013	sub2317	2317	  1	  1	  7	  2	  1	  2	  2	  2	  1	  2	  1	0.68154	  1	0.90000	  0	 12	 30	 31	  0	
18-Apr-2013	sub2317	2317	  1	  1	  8	  2	  1	  3	  1	  6	  1	  1	  1	0.89180	  1	0.90000	  0	 13	 32	 33	  0	
18-Apr-2013	sub2317	2317	  1	  1	  9	  2	  1	  3	  1	  6	  0	  2	  1	0.94913	  0	0.90000	  1	 13	 44	 51	  0	
18-Apr-2013	sub2317	2317	  1	  1	 10	  2	  1	  5	  5	  4	  1	  1	  1	1.26934	  1	0.90000	  1	 15	 35	 51	  0	
18-Apr-2013	sub2317	2317	  1	  1	 11	  2	  1	  6	  6	  4	  0	  1	  1	0.36571	  0	0.90000	  0	 16	 47	 38	  1	
18-Apr-2013	sub2317	2317	  1	  1	 12	  2	  1	  6	  6	  4	  1	  1	  0	0.63935	  0	0.90000	  0	 16	 45	 46	  0	
18-Apr-2013	sub2317	2317	  1	  1	 13	  2	  1	  5	  5	  4	  1	  2	  0	0.38955	  0	0.90000	  0	 15	 45	 46	  1	
18-Apr-2013	sub2317	2317	  1	  1	 14	  2	  1	  1	  3	  4	  1	  1	  1	0.46745	  1	0.90000	  0	 11	 30	 31	  1	
18-Apr-2013	sub2317	2317	  1	  1	 15	  2	  1	  2	  2	  2	  1	  1	  0	0.47506	  0	0.90000	  0	 12	 40	 41	  1	
18-Apr-2013	sub2317	2317	  1	  1	 16	  2	  1	  5	  5	  4	  0	  2	  1	0.76040	  0	0.90000	  0	 15	 47	 38	  0	
18-Apr-2013	sub2317	2317	  1	  1	 17	  2	  1	  3	  1	  6	  1	  2	  0	0.68458	  0	0.90000	  0	 13	 42	 43	  0	
18-Apr-2013	sub2317	2317	  1	  1	 18	  2	  1	  5	  5	  4	  1	  1	  1	0.44609	  1	0.90000	  0	 15	 35	 36	  1	
18-Apr-2013	sub2317	2317	  1	  1	 19	  2	  1	  1	  3	  4	  1	  2	  0	0.52728	  0	0.90000	  0	 11	 40	 41	  0	
18-Apr-2013	sub2317	2317	  1	  1	 20	  2	  1	  6	  6	  4	  0	  1	  1	0.19637	  0	0.90000	  0	 16	 47	 38	  1	
18-Apr-2013	sub2317	2317	  1	  1	 21	  2	  1	  5	  5	  4	  1	  2	  0	0.47290	  0	0.90000	  0	 15	 45	 46	  1	
18-Apr-2013	sub2317	2317	  1	  1	 22	  2	  1	  4	  4	  4	  1	  1	  0	0.44604	  0	0.90000	  0	 14	 42	 43	  1	
18-Apr-2013	sub2317	2317	  1	  1	 23	  2	  1	  4	  4	  4	  1	  2	  1	0.29559	  1	0.90000	  0	 14	 32	 33	  1	
18-Apr-2013	sub2317	2317	  1	  1	 24	  2	  1	  2	  2	  2	  1	  2	  1	0.43255	  1	0.90000	  0	 12	 30	 31	  1	
18-Apr-2013	sub2317	2317	  1	  1	 25	  2	  1	  2	  2	  2	  1	  2	  1	0.48090	  1	0.90000	  0	 12	 30	 31	  1	
18-Apr-2013	sub2317	2317	  1	  1	 26	  2	  1	  1	  3	  4	  1	  1	  1	0.86919	  1	0.90000	  0	 11	 30	 31	  0	
18-Apr-2013	sub2317	2317	  1	  1	 27	  2	  1	  6	  6	  4	  1	  2	  1	0.63001	  1	0.90000	  0	 16	 35	 36	  0	
18-Apr-2013	sub2317	2317	  1	  1	 28	  2	  1	  6	  6	  4	  1	  2	  1	0.49201	  1	0.90000	  0	 16	 35	 36	  1	
18-Apr-2013	sub2317	2317	  1	  1	 29	  2	  1	  3	  1	  6	  1	  1	  1	0.90757	  1	0.90000	  1	 13	 32	 51	  0	
18-Apr-2013	sub2317	2317	  1	  1	 30	  2	  1	  3	  1	  6	  1	  2	  0	0.95079	  0	0.90000	  1	 13	 42	 51	  0	
18-Apr-2013	sub2317	2317	  1	  1	 31	  2	  1	  3	  1	  6	  0	  1	  0	0.31438	  1	0.90000	  0	 13	 34	 49	  1	
18-Apr-2013	sub2317	2317	  1	  1	 32	  2	  1	  3	  1	  6	  1	  2	  0	0.39853	  0	0.90000	  0	 13	 42	 43	  1	
18-Apr-2013	sub2317	2317	  1	  1	 33	  2	  1	  4	  4	  4	  0	  1	  1	0.66747	  0	0.90000	  0	 14	 44	 39	  0	
18-Apr-2013	sub2317	2317	  1	  1	 34	  2	  1	  4	  4	  4	  0	  2	  0	0.73147	  1	0.90000	  0	 14	 34	 49	  0	
18-Apr-2013	sub2317	2317	  1	  1	 35	  2	  1	  4	  4	  4	  1	  1	  0	0.43625	  0	0.90000	  0	 14	 42	 43	  1	
18-Apr-2013	sub2317	2317	  1	  1	 36	  2	  1	  5	  5	  4	  0	  2	  1	0.46082	  0	0.90000	  0	 15	 47	 38	  1	
18-Apr-2013	sub2317	2317	  1	  1	 37	  2	  1	  1	  3	  4	  1	  1	  1	0.90905	  1	0.90000	  1	 11	 30	 51	  0	
18-Apr-2013	sub2317	2317	  1	  1	 38	  2	  1	  3	  1	  6	  1	  2	  0	0.44797	  0	0.90000	  0	 13	 42	 43	  1	
18-Apr-2013	sub2317	2317	  1	  1	 39	  2	  1	  5	  5	  4	  1	  2	  0	0.91135	  0	0.90000	  1	 15	 45	 51	  0	
18-Apr-2013	sub2317	2317	  1	  1	 40	  2	  1	  2	  2	  2	  1	  1	  0	0.45294	  0	0.90000	  0	 12	 40	 41	  1	
18-Apr-2013	sub2317	2317	  1	  1	 41	  2	  1	  3	  1	  6	  1	  2	  0	0.41707	  0	0.90000	  0	 13	 42	 43	  1	
18-Apr-2013	sub2317	2317	  1	  1	 42	  2	  1	  4	  4	  4	  1	  1	  0	0.49389	  0	0.90000	  0	 14	 42	 43	  1	
18-Apr-2013	sub2317	2317	  1	  1	 43	  2	  1	  4	  4	  4	  1	  2	  1	0.37675	  1	0.90000	  0	 14	 32	 33	  1	
18-Apr-2013	sub2317	2317	  1	  1	 44	  2	  1	  4	  4	  4	  1	  2	  1	0.51879	  1	0.90000	  0	 14	 32	 33	  0	
18-Apr-2013	sub2317	2317	  1	  1	 45	  2	  1	  5	  5	  4	  0	  1	  0	0.76122	  1	0.90000	  0	 15	 37	 48	  0	
18-Apr-2013	sub2317	2317	  1	  1	 46	  2	  1	  4	  4	  4	  1	  2	  1	0.43491	  1	0.90000	  0	 14	 32	 33	  1	
18-Apr-2013	sub2317	2317	  1	  1	 47	  2	  1	  3	  1	  6	  1	  2	  0	0.37973	  0	0.90000	  0	 13	 42	 43	  1	
18-Apr-2013	sub2317	2317	  1	  1	 48	  2	  1	  1	  3	  4	  1	  1	  1	0.81201	  1	0.90000	  0	 11	 30	 31	  0	
18-Apr-2013	sub2317	2317	  1	  1	 49	  2	  1	  6	  6	  4	  0	  2	  0	0.53865	  1	0.90000	  0	 16	 37	 48	  0	
18-Apr-2013	sub2317	2317	  1	  1	 50	  2	  1	  4	  4	  4	  1	  1	  0	0.93596	  0	0.90000	  1	 14	 42	 51	  0	
18-Apr-2013	sub2317	2317	  1	  1	 51	  2	  1	  6	  6	  4	  0	  2	  0	0.44111	  1	0.90000	  0	 16	 37	 48	  1	
18-Apr-2013	sub2317	2317	  1	  1	 52	  2	  1	  3	  1	  6	  0	  1	  0	0.43485	  1	0.90000	  0	 13	 34	 49	  1	
18-Apr-2013	sub2317	2317	  1	  1	 53	  2	  1	  2	  2	  2	  1	  2	  1	0.41418	  1	0.90000	  0	 12	 30	 31	  1	
18-Apr-2013	sub2317	2317	  1	  1	 54	  2	  1	  2	  2	  2	  1	  2	  1	0.55363	  1	0.90000	  0	 12	 30	 31	  0	
18-Apr-2013	sub2317	2317	  1	  1	 55	  2	  1	  1	  3	  4	  1	  1	  1	0.63084	  1	0.90000	  0	 11	 30	 31	  0	
18-Apr-2013	sub2317	2317	  1	  1	 56	  2	  1	  5	  5	  4	  1	  2	  0	0.53328	  0	0.90000	  0	 15	 45	 46	  0	
18-Apr-2013	sub2317	2317	  1	  1	 57	  2	  1	  6	  6	  4	  1	  1	  0	0.30135	  0	0.90000	  0	 16	 45	 46	  1	
18-Apr-2013	sub2317	2317	  1	  1	 58	  2	  1	  1	  3	  4	  1	  1	  1	0.84458	  1	0.90000	  0	 11	 30	 31	  0	
18-Apr-2013	sub2317	2317	  1	  1	 59	  2	  1	  2	  2	  2	  1	  2	  1	0.47303	  1	0.90000	  0	 12	 30	 31	  1	
18-Apr-2013	sub2317	2317	  1	  1	 60	  2	  1	  6	  6	  4	  0	  1	  1	0.55580	  0	0.90000	  0	 16	 47	 38	  0	
18-Apr-2013	sub2317	2317	  1	  1	 61	  2	  1	  3	  1	  6	  1	  2	  0	0.57877	  0	0.90000	  0	 13	 42	 43	  0	
18-Apr-2013	sub2317	2317	  1	  1	 62	  2	  1	  4	  4	  4	  1	  1	  0	0.47169	  0	0.90000	  0	 14	 42	 43	  1	
18-Apr-2013	sub2317	2317	  1	  1	 63	  2	  1	  1	  3	  4	  1	  2	  0	0.67186	  0	0.90000	  0	 11	 40	 41	  0	
18-Apr-2013	sub2317	2317	  1	  1	 64	  2	  1	  6	  6	  4	  0	  1	  1	0.51284	  0	0.90000	  0	 16	 47	 38	  0	
18-Apr-2013	sub2317	2317	  1	  1	 65	  2	  1	  1	  3	  4	  1	  2	  0	0.54443	  0	0.90000	  0	 11	 40	 41	  0	
18-Apr-2013	sub2317	2317	  1	  1	 66	  2	  1	  1	  3	  4	  1	  1	  1	0.55045	  1	0.90000	  0	 11	 30	 31	  0	
18-Apr-2013	sub2317	2317	  1	  1	 67	  2	  1	  2	  2	  2	  1	  2	  1	0.91042	  1	0.90000	  1	 12	 30	 51	  0	
18-Apr-2013	sub2317	2317	  1	  1	 68	  2	  1	  1	  3	  4	  1	  1	  1	0.27643	  1	0.90000	  0	 11	 30	 31	  1	
18-Apr-2013	sub2317	2317	  1	  1	 69	  2	  1	  5	  5	  4	  0	  2	  1	0.51580	  0	0.90000	  0	 15	 47	 38	  0	
18-Apr-2013	sub2317	2317	  1	  1	 70	  2	  1	  3	  1	  6	  1	  1	  1	0.71388	  1	0.90000	  0	 13	 32	 33	  0	
18-Apr-2013	sub2317	2317	  1	  1	 71	  2	  1	  6	  6	  4	  0	  2	  0	0.36735	  1	0.90000	  0	 16	 37	 48	  1	
18-Apr-2013	sub2317	2317	  1	  1	 72	  2	  1	  5	  5	  4	  0	  1	  0	0.53917	  1	0.90000	  0	 15	 37	 48	  0	
18-Apr-2013	sub2317	2317	  1	  1	 73	  2	  1	  5	  5	  4	  1	  2	  0	0.53916	  0	0.90000	  0	 15	 45	 46	  0	
18-Apr-2013	sub2317	2317	  1	  1	 74	  2	  1	  2	  2	  2	  1	  2	  1	0.66780	  1	0.90000	  0	 12	 30	 31	  0	
18-Apr-2013	sub2317	2317	  1	  1	 75	  2	  1	  1	  3	  4	  1	  1	  1	0.69529	  1	0.90000	  0	 11	 30	 31	  0	
18-Apr-2013	sub2317	2317	  1	  1	 76	  2	  2	  1	  3	  4	  1	  2	  0	0.38645	  0	0.90000	  0	 21	 80	 81	  1	
18-Apr-2013	sub2317	2317	  1	  1	 77	  2	  2	  4	  4	  4	  1	  1	  0	0.35728	  0	0.90000	  0	 24	 82	 83	  1	
18-Apr-2013	sub2317	2317	  1	  1	 78	  2	  2	  3	  1	  6	  1	  2	  0	0.42416	  0	0.90000	  0	 23	 82	 83	  1	
18-Apr-2013	sub2317	2317	  1	  1	 79	  2	  2	  5	  5	  4	  0	  1	  0	0.47535	  1	0.90000	  0	 25	 67	 88	  1	
18-Apr-2013	sub2317	2317	  1	  1	 80	  2	  2	  3	  1	  6	  1	  2	  0	0.43186	  0	0.90000	  0	 23	 82	 83	  1	
18-Apr-2013	sub2317	2317	  1	  1	 81	  2	  2	  4	  4	  4	  0	  1	  1	0.63077	  0	0.90000	  0	 24	 84	 69	  0	
18-Apr-2013	sub2317	2317	  1	  1	 82	  2	  2	  4	  4	  4	  1	  2	  1	0.43635	  1	0.90000	  0	 24	 62	 63	  1	
18-Apr-2013	sub2317	2317	  1	  1	 83	  2	  2	  2	  2	  2	  1	  1	  0	0.43159	  0	0.90000	  0	 22	 80	 81	  1	
18-Apr-2013	sub2317	2317	  1	  1	 84	  2	  2	  3	  1	  6	  1	  2	  0	0.62820	  0	0.90000	  0	 23	 82	 83	  0	
18-Apr-2013	sub2317	2317	  1	  1	 85	  2	  2	  6	  6	  4	  0	  1	  1	0.56556	  0	0.90000	  0	 26	 87	 68	  0	
18-Apr-2013	sub2317	2317	  1	  1	 86	  2	  2	  3	  1	  6	  1	  1	  1	0.74322	  1	0.90000	  0	 23	 62	 63	  0	
18-Apr-2013	sub2317	2317	  1	  1	 87	  2	  2	  5	  5	  4	  0	  2	  1	0.57506	  0	0.90000	  0	 25	 87	 68	  0	
18-Apr-2013	sub2317	2317	  1	  1	 88	  2	  2	  5	  5	  4	  0	  2	  1	0.64103	  0	0.90000	  0	 25	 87	 68	  0	
18-Apr-2013	sub2317	2317	  1	  1	 89	  2	  2	  1	  3	  4	  1	  1	  1	0.62925	  1	0.90000	  0	 21	 60	 61	  0	
18-Apr-2013	sub2317	2317	  1	  1	 90	  2	  2	  2	  2	  2	  1	  2	  1	0.54266	  1	0.90000	  0	 22	 60	 61	  0	
18-Apr-2013	sub2317	2317	  1	  1	 91	  2	  2	  4	  4	  4	  1	  2	  1	0.45053	  1	0.90000	  0	 24	 62	 63	  1	
18-Apr-2013	sub2317	2317	  1	  1	 92	  2	  2	  1	  3	  4	  1	  1	  1	0.57965	  1	0.90000	  0	 21	 60	 61	  0	
18-Apr-2013	sub2317	2317	  1	  1	 93	  2	  2	  1	  3	  4	  1	  1	  1	0.55135	  1	0.90000	  0	 21	 60	 61	  0	
18-Apr-2013	sub2317	2317	  1	  1	 94	  2	  2	  6	  6	  4	  1	  2	  1	0.56489	  1	0.90000	  0	 26	 65	 66	  0	
18-Apr-2013	sub2317	2317	  1	  1	 95	  2	  2	  5	  5	  4	  0	  1	  0	0.53470	  1	0.90000	  0	 25	 67	 88	  0	
18-Apr-2013	sub2317	2317	  1	  1	 96	  2	  2	  1	  3	  4	  1	  1	  1	0.63104	  1	0.90000	  0	 21	 60	 61	  0	
18-Apr-2013	sub2317	2317	  1	  1	 97	  2	  2	  6	  6	  4	  0	  2	  0	0.45818	  1	0.90000	  0	 26	 67	 88	  1	
18-Apr-2013	sub2317	2317	  1	  1	 98	  2	  2	  3	  1	  6	  1	  2	  0	0.78572	  0	0.90000	  0	 23	 82	 83	  0	
18-Apr-2013	sub2317	2317	  1	  1	 99	  2	  2	  5	  5	  4	  0	  1	  0	0.29875	  1	0.90000	  0	 25	 67	 88	  1	
18-Apr-2013	sub2317	2317	  1	  1	100	  2	  2	  5	  5	  4	  0	  2	  1	0.38083	  0	0.90000	  0	 25	 87	 68	  1	
18-Apr-2013	sub2317	2317	  1	  1	101	  2	  2	  6	  6	  4	  0	  1	  1	0.61973	  0	0.90000	  0	 26	 87	 68	  0	
18-Apr-2013	sub2317	2317	  1	  1	102	  2	  2	  1	  3	  4	  1	  1	  1	0.51496	  1	0.90000	  0	 21	 60	 61	  0	
18-Apr-2013	sub2317	2317	  1	  1	103	  2	  2	  2	  2	  2	  1	  2	  1	0.68194	  1	0.90000	  0	 22	 60	 61	  0	
18-Apr-2013	sub2317	2317	  1	  1	104	  2	  2	  4	  4	  4	  1	  2	  1	0.79522	  1	0.90000	  0	 24	 62	 63	  0	
18-Apr-2013	sub2317	2317	  1	  1	105	  2	  2	  5	  5	  4	  0	  2	  1	0.67644	  0	0.90000	  0	 25	 87	 68	  0	
18-Apr-2013	sub2317	2317	  1	  1	106	  2	  2	  6	  6	  4	  1	  1	  0	0.63023	  0	0.90000	  0	 26	 85	 86	  0	
18-Apr-2013	sub2317	2317	  1	  1	107	  2	  2	  5	  5	  4	  0	  2	  1	0.61520	  0	0.90000	  0	 25	 87	 68	  0	
18-Apr-2013	sub2317	2317	  1	  1	108	  2	  2	  4	  4	  4	  1	  2	  1	0.58139	  1	0.90000	  0	 24	 62	 63	  0	
18-Apr-2013	sub2317	2317	  1	  1	109	  2	  2	  3	  1	  6	  0	  2	  1	0.65483	  0	0.90000	  0	 23	 84	 69	  0	
18-Apr-2013	sub2317	2317	  1	  1	110	  2	  2	  5	  5	  4	  0	  2	  1	0.69314	  0	0.90000	  0	 25	 87	 68	  0	
18-Apr-2013	sub2317	2317	  1	  1	111	  2	  2	  2	  2	  2	  1	  1	  0	0.62320	  0	0.90000	  0	 22	 80	 81	  0	
18-Apr-2013	sub2317	2317	  1	  1	112	  2	  2	  1	  3	  4	  1	  1	  1	0.55194	  1	0.90000	  0	 21	 60	 61	  0	
18-Apr-2013	sub2317	2317	  1	  1	113	  2	  2	  1	  3	  4	  1	  1	  1	0.59074	  1	0.90000	  0	 21	 60	 61	  0	
18-Apr-2013	sub2317	2317	  1	  1	114	  2	  2	  6	  6	  4	  1	  2	  1	0.54673	  1	0.90000	  0	 26	 65	 66	  0	
18-Apr-2013	sub2317	2317	  1	  1	115	  2	  2	  3	  1	  6	  1	  2	  0	0.71304	  0	0.90000	  0	 23	 82	 83	  0	
18-Apr-2013	sub2317	2317	  1	  1	116	  2	  2	  3	  1	  6	  1	  1	  1	0.47089	  1	0.90000	  0	 23	 62	 63	  1	
18-Apr-2013	sub2317	2317	  1	  1	117	  2	  2	  3	  1	  6	  0	  1	  0	0.53123	  1	0.90000	  0	 23	 64	 89	  0	
18-Apr-2013	sub2317	2317	  1	  1	118	  2	  2	  4	  4	  4	  1	  2	  1	0.58103	  1	0.90000	  0	 24	 62	 63	  0	
18-Apr-2013	sub2317	2317	  1	  1	119	  2	  2	  3	  1	  6	  1	  2	  0	0.59996	  0	0.90000	  0	 23	 82	 83	  0	
18-Apr-2013	sub2317	2317	  1	  1	120	  2	  2	  2	  2	  2	  1	  1	  0	0.60077	  0	0.90000	  0	 22	 80	 81	  0	
18-Apr-2013	sub2317	2317	  1	  1	121	  2	  2	  2	  2	  2	  1	  2	  1	0.60355	  1	0.90000	  0	 22	 60	 61	  0	
18-Apr-2013	sub2317	2317	  1	  1	122	  2	  2	  4	  4	  4	  1	  2	  1	0.50161	  1	0.90000	  0	 24	 62	 63	  0	
18-Apr-2013	sub2317	2317	  1	  1	123	  2	  2	  4	  4	  4	  0	  2	  0	0.63014	  1	0.90000	  0	 24	 64	 89	  0	
18-Apr-2013	sub2317	2317	  1	  1	124	  2	  2	  5	  5	  4	  0	  1	  0	0.62004	  1	0.90000	  0	 25	 67	 88	  0	
18-Apr-2013	sub2317	2317	  1	  1	125	  2	  2	  6	  6	  4	  0	  2	  0	0.38331	  1	0.90000	  0	 26	 67	 88	  1	
18-Apr-2013	sub2317	2317	  1	  1	126	  2	  2	  1	  3	  4	  1	  1	  1	0.60754	  1	0.90000	  0	 21	 60	 61	  0	
18-Apr-2013	sub2317	2317	  1	  1	127	  2	  2	  3	  1	  6	  1	  2	  0	0.54355	  0	0.90000	  0	 23	 82	 83	  0	
18-Apr-2013	sub2317	2317	  1	  1	128	  2	  2	  6	  6	  4	  1	  1	  0	0.83738	  0	0.90000	  0	 26	 85	 86	  0	
18-Apr-2013	sub2317	2317	  1	  1	129	  2	  2	  2	  2	  2	  1	  1	  0	0.62846	  0	0.90000	  0	 22	 80	 81	  0	
18-Apr-2013	sub2317	2317	  1	  1	130	  2	  2	  4	  4	  4	  1	  2	  1	0.45633	  1	0.80000	  0	 24	 62	 63	  1	
18-Apr-2013	sub2317	2317	  1	  1	131	  2	  2	  1	  3	  4	  1	  1	  1	0.57544	  1	0.80000	  0	 21	 60	 61	  0	
18-Apr-2013	sub2317	2317	  1	  1	132	  2	  2	  3	  1	  6	  1	  2	  0	0.47675	  0	0.80000	  0	 23	 82	 83	  1	
18-Apr-2013	sub2317	2317	  1	  1	133	  2	  2	  4	  4	  4	  1	  1	  0	16.10503	  0	0.80000	  1	 24	 82	 51	  0	
18-Apr-2013	sub2317	2317	  1	  1	134	  2	  2	  1	  3	  4	  1	  1	  1	1.02527	  1	0.90000	  1	 21	 60	 51	  0	
18-Apr-2013	sub2317	2317	  1	  1	135	  2	  2	  2	  2	  2	  1	  1	  0	0.48169	  0	0.90000	  0	 22	 80	 81	  1	
18-Apr-2013	sub2317	2317	  1	  1	136	  2	  2	  4	  4	  4	  1	  2	  1	0.37291	  1	0.90000	  0	 24	 62	 63	  1	
18-Apr-2013	sub2317	2317	  1	  1	137	  2	  2	  5	  5	  4	  0	  1	  0	0.51102	  1	0.90000	  0	 25	 67	 88	  0	
18-Apr-2013	sub2317	2317	  1	  1	138	  2	  2	  2	  2	  2	  1	  1	  0	4.34045	  0	0.90000	  1	 22	 80	 51	  0	
18-Apr-2013	sub2317	2317	  1	  1	139	  2	  2	  5	  5	  4	  0	  2	  1	0.67499	  0	0.90000	  0	 25	 87	 68	  0	
18-Apr-2013	sub2317	2317	  1	  1	140	  2	  2	  1	  3	  4	  1	  1	  1	0.47598	  1	0.90000	  0	 21	 60	 61	  1	
18-Apr-2013	sub2317	2317	  1	  1	141	  2	  2	  6	  6	  4	  0	  2	  0	0.78128	  1	0.90000	  0	 26	 67	 88	  0	
18-Apr-2013	sub2317	2317	  1	  1	142	  2	  2	  6	  6	  4	  1	  2	  1	0.62679	  1	0.90000	  0	 26	 65	 66	  0	
18-Apr-2013	sub2317	2317	  1	  1	143	  2	  2	  5	  5	  4	  0	  1	  0	0.51877	  1	0.90000	  0	 25	 67	 88	  0	
18-Apr-2013	sub2317	2317	  1	  1	144	  2	  2	  4	  4	  4	  0	  2	  0	0.65869	  1	0.90000	  0	 24	 64	 89	  0	
18-Apr-2013	sub2317	2317	  1	  1	145	  2	  2	  2	  2	  2	  1	  1	  0	0.52762	  0	0.90000	  0	 22	 80	 81	  0	
18-Apr-2013	sub2317	2317	  1	  1	146	  2	  2	  1	  3	  4	  1	  1	  1	0.46397	  1	0.90000	  0	 21	 60	 61	  1	
18-Apr-2013	sub2317	2317	  1	  1	147	  2	  2	  6	  6	  4	  1	  2	  1	0.86233	  1	0.90000	  0	 26	 65	 66	  0	
18-Apr-2013	sub2317	2317	  1	  1	148	  2	  2	  6	  6	  4	  0	  2	  0	0.51692	  1	0.90000	  0	 26	 67	 88	  0	
18-Apr-2013	sub2317	2317	  1	  1	149	  2	  2	  2	  2	  2	  1	  1	  0	0.60258	  0	0.90000	  0	 22	 80	 81	  0	
18-Apr-2013	sub2317	2317	  1	  1	150	  2	  2	  2	  2	  2	  1	  2	  1	0.55060	  1	0.90000	  0	 22	 60	 61	  0	
18-Apr-2013	sub2317	2317	  1	  1	  1	  3	  1	  3	  6	  1	  1	  1	  1	0.55555	  1	0.60000	  0	 13	 32	 33	  0	
18-Apr-2013	sub2317	2317	  1	  1	  2	  3	  1	  2	  2	  3	  1	  2	  1	0.44646	  1	0.30000	  1	 12	 30	 51	  1	
18-Apr-2013	sub2317	2317	  1	  1	  3	  3	  1	  3	  6	  1	  0	  1	  0	0.75152	  1	0.90000	  0	 13	 34	 49	  0	
18-Apr-2013	sub2317	2317	  1	  1	  4	  3	  1	  2	  2	  3	  1	  2	  1	0.49078	  1	0.90000	  0	 12	 30	 31	  1	
18-Apr-2013	sub2317	2317	  1	  1	  5	  3	  1	  6	  3	  1	  0	  2	  0	0.73026	  1	0.90000	  0	 16	 37	 48	  0	
18-Apr-2013	sub2317	2317	  1	  1	  6	  3	  1	  6	  3	  1	  0	  1	  1	0.78167	  0	0.90000	  0	 16	 47	 38	  0	
18-Apr-2013	sub2317	2317	  1	  1	  7	  3	  1	  5	  5	  1	  0	  2	  1	0.68060	  0	0.90000	  0	 15	 47	 38	  0	
18-Apr-2013	sub2317	2317	  1	  1	  8	  3	  1	  4	  1	  1	  0	  2	  0	0.69141	  1	0.90000	  0	 14	 34	 49	  0	
18-Apr-2013	sub2317	2317	  1	  1	  9	  3	  1	  4	  1	  1	  0	  1	  1	0.83145	  0	0.90000	  0	 14	 44	 39	  0	
18-Apr-2013	sub2317	2317	  1	  1	 10	  3	  1	  3	  6	  1	  0	  1	  0	0.58291	  1	0.90000	  0	 13	 34	 49	  0	
18-Apr-2013	sub2317	2317	  1	  1	 11	  3	  1	  5	  5	  1	  1	  1	  1	0.86207	  1	0.90000	  0	 15	 35	 36	  0	
18-Apr-2013	sub2317	2317	  1	  1	 12	  3	  1	  1	  4	  1	  1	  2	  0	0.65288	  0	0.90000	  0	 11	 40	 41	  0	
18-Apr-2013	sub2317	2317	  1	  1	 13	  3	  1	  3	  6	  1	  1	  1	  1	0.61950	  1	0.90000	  0	 13	 32	 33	  0	
18-Apr-2013	sub2317	2317	  1	  1	 14	  3	  1	  2	  2	  3	  1	  2	  1	0.88904	  1	0.90000	  0	 12	 30	 31	  0	
18-Apr-2013	sub2317	2317	  1	  1	 15	  3	  1	  4	  1	  1	  1	  1	  0	0.73653	  0	0.90000	  0	 14	 42	 43	  0	
18-Apr-2013	sub2317	2317	  1	  1	 16	  3	  1	  3	  6	  1	  1	  1	  1	0.89375	  1	0.80000	  1	 13	 32	 51	  0	
18-Apr-2013	sub2317	2317	  1	  1	 17	  3	  1	  4	  1	  1	  1	  1	  0	0.41330	  0	0.90000	  0	 14	 42	 43	  1	
18-Apr-2013	sub2317	2317	  1	  1	 18	  3	  1	  4	  1	  1	  1	  2	  1	0.53045	  1	0.90000	  0	 14	 32	 33	  0	
18-Apr-2013	sub2317	2317	  1	  1	 19	  3	  1	  2	  2	  3	  1	  1	  0	0.50131	  0	0.90000	  0	 12	 40	 41	  0	
18-Apr-2013	sub2317	2317	  1	  1	 20	  3	  1	  4	  1	  1	  1	  1	  0	0.81921	  0	0.90000	  0	 14	 42	 43	  0	
18-Apr-2013	sub2317	2317	  1	  1	 21	  3	  1	  1	  4	  1	  1	  1	  1	0.73070	  1	0.90000	  0	 11	 30	 31	  0	
18-Apr-2013	sub2317	2317	  1	  1	 22	  3	  1	  5	  5	  1	  1	  2	  0	0.59981	  0	0.90000	  0	 15	 45	 46	  0	
18-Apr-2013	sub2317	2317	  1	  1	 23	  3	  1	  4	  1	  1	  1	  1	  0	1.03490	  0	0.90000	  1	 14	 42	 51	  0	
18-Apr-2013	sub2317	2317	  1	  1	 24	  3	  1	  5	  5	  1	  1	  1	  1	0.71136	  1	0.90000	  0	 15	 35	 36	  0	
18-Apr-2013	sub2317	2317	  1	  1	 25	  3	  1	  1	  4	  1	  1	  2	  0	0.57085	  0	0.90000	  0	 11	 40	 41	  0	
18-Apr-2013	sub2317	2317	  1	  1	 26	  3	  1	  6	  3	  1	  1	  1	  0	0.57669	  0	0.90000	  0	 16	 45	 46	  0	
18-Apr-2013	sub2317	2317	  1	  1	 27	  3	  1	  5	  5	  1	  0	  1	  0	1.06440	  1	0.90000	  1	 15	 37	 51	  0	
18-Apr-2013	sub2317	2317	  1	  1	 28	  3	  1	  3	  6	  1	  1	  1	  1	0.91232	  1	0.90000	  1	 13	 32	 51	  0	
18-Apr-2013	sub2317	2317	  1	  1	 29	  3	  1	  4	  1	  1	  1	  2	  1	0.57968	  1	0.90000	  0	 14	 32	 33	  0	
18-Apr-2013	sub2317	2317	  1	  1	 30	  3	  1	  6	  3	  1	  1	  1	  0	0.56209	  0	0.90000	  0	 16	 45	 46	  0	
18-Apr-2013	sub2317	2317	  1	  1	 31	  3	  1	  5	  5	  1	  0	  1	  0	0.63888	  1	0.90000	  0	 15	 37	 48	  0	
18-Apr-2013	sub2317	2317	  1	  1	 32	  3	  1	  6	  3	  1	  1	  2	  1	0.78065	  1	0.90000	  0	 16	 35	 36	  0	
18-Apr-2013	sub2317	2317	  1	  1	 33	  3	  1	  2	  2	  3	  1	  2	  1	0.67869	  1	0.90000	  0	 12	 30	 31	  0	
18-Apr-2013	sub2317	2317	  1	  1	 34	  3	  1	  5	  5	  1	  1	  1	  1	0.65554	  1	0.90000	  0	 15	 35	 36	  0	
18-Apr-2013	sub2317	2317	  1	  1	 35	  3	  1	  3	  6	  1	  1	  1	  1	0.56312	  1	0.90000	  0	 13	 32	 33	  0	
18-Apr-2013	sub2317	2317	  1	  1	 36	  3	  1	  2	  2	  3	  1	  2	  1	0.83441	  1	0.90000	  0	 12	 30	 31	  0	
18-Apr-2013	sub2317	2317	  1	  1	 37	  3	  1	  3	  6	  1	  1	  1	  1	0.49925	  1	0.90000	  0	 13	 32	 33	  1	
18-Apr-2013	sub2317	2317	  1	  1	 38	  3	  1	  1	  4	  1	  1	  2	  0	0.60245	  0	0.90000	  0	 11	 40	 41	  0	
18-Apr-2013	sub2317	2317	  1	  1	 39	  3	  1	  6	  3	  1	  1	  1	  0	0.53041	  0	0.90000	  0	 16	 45	 46	  0	
18-Apr-2013	sub2317	2317	  1	  1	 40	  3	  1	  2	  2	  3	  1	  1	  0	0.76781	  0	0.90000	  0	 12	 40	 41	  0	
18-Apr-2013	sub2317	2317	  1	  1	 41	  3	  1	  1	  4	  1	  1	  2	  0	0.62899	  0	0.90000	  0	 11	 40	 41	  0	
18-Apr-2013	sub2317	2317	  1	  1	 42	  3	  1	  5	  5	  1	  1	  1	  1	0.48138	  1	0.90000	  0	 15	 35	 36	  1	
18-Apr-2013	sub2317	2317	  1	  1	 43	  3	  1	  5	  5	  1	  0	  1	  0	0.58062	  1	0.90000	  0	 15	 37	 48	  0	
18-Apr-2013	sub2317	2317	  1	  1	 44	  3	  1	  3	  6	  1	  1	  1	  1	0.62060	  1	0.90000	  0	 13	 32	 33	  0	
18-Apr-2013	sub2317	2317	  1	  1	 45	  3	  1	  4	  1	  1	  1	  2	  1	0.68748	  1	0.90000	  0	 14	 32	 33	  0	
18-Apr-2013	sub2317	2317	  1	  1	 46	  3	  1	  6	  3	  1	  1	  1	  0	0.56836	  0	0.90000	  0	 16	 45	 46	  0	
18-Apr-2013	sub2317	2317	  1	  1	 47	  3	  1	  1	  4	  1	  1	  2	  0	0.52779	  0	0.90000	  0	 11	 40	 41	  0	
18-Apr-2013	sub2317	2317	  1	  1	 48	  3	  1	  4	  1	  1	  1	  1	  0	0.42228	  0	0.90000	  0	 14	 42	 43	  1	
18-Apr-2013	sub2317	2317	  1	  1	 49	  3	  1	  2	  2	  3	  1	  2	  1	0.62534	  1	0.90000	  0	 12	 30	 31	  0	
18-Apr-2013	sub2317	2317	  1	  1	 50	  3	  1	  4	  1	  1	  1	  1	  0	0.57482	  0	0.90000	  0	 14	 42	 43	  0	
18-Apr-2013	sub2317	2317	  1	  1	 51	  3	  1	  2	  2	  3	  1	  1	  0	0.63172	  0	0.90000	  0	 12	 40	 41	  0	
18-Apr-2013	sub2317	2317	  1	  1	 52	  3	  1	  4	  1	  1	  1	  2	  1	0.91440	  1	0.90000	  1	 14	 32	 51	  0	
18-Apr-2013	sub2317	2317	  1	  1	 53	  3	  1	  5	  5	  1	  1	  1	  1	0.69830	  1	0.90000	  0	 15	 35	 36	  0	
18-Apr-2013	sub2317	2317	  1	  1	 54	  3	  1	  1	  4	  1	  1	  2	  0	0.54255	  0	0.90000	  0	 11	 40	 41	  0	
18-Apr-2013	sub2317	2317	  1	  1	 55	  3	  1	  3	  6	  1	  1	  1	  1	0.60124	  1	0.90000	  0	 13	 32	 33	  0	
18-Apr-2013	sub2317	2317	  1	  1	 56	  3	  1	  3	  6	  1	  0	  1	  0	0.50956	  1	0.90000	  0	 13	 34	 49	  0	
18-Apr-2013	sub2317	2317	  1	  1	 57	  3	  1	  1	  4	  1	  1	  2	  0	0.63921	  0	0.90000	  0	 11	 40	 41	  0	
18-Apr-2013	sub2317	2317	  1	  1	 58	  3	  1	  3	  6	  1	  1	  1	  1	0.38997	  1	0.90000	  0	 13	 32	 33	  1	
18-Apr-2013	sub2317	2317	  1	  1	 59	  3	  1	  1	  4	  1	  1	  1	  1	0.37658	  1	0.90000	  0	 11	 30	 31	  1	
18-Apr-2013	sub2317	2317	  1	  1	 60	  3	  1	  3	  6	  1	  1	  1	  1	0.45532	  1	0.90000	  0	 13	 32	 33	  1	
18-Apr-2013	sub2317	2317	  1	  1	 61	  3	  1	  2	  2	  3	  1	  2	  1	0.68401	  1	0.90000	  0	 12	 30	 31	  0	
18-Apr-2013	sub2317	2317	  1	  1	 62	  3	  1	  1	  4	  1	  1	  1	  1	0.66291	  1	0.90000	  0	 11	 30	 31	  0	
18-Apr-2013	sub2317	2317	  1	  1	 63	  3	  1	  5	  5	  1	  0	  1	  0	0.79456	  1	0.90000	  0	 15	 37	 48	  0	
18-Apr-2013	sub2317	2317	  1	  1	 64	  3	  1	  6	  3	  1	  0	  1	  1	0.64637	  0	0.90000	  0	 16	 47	 38	  0	
18-Apr-2013	sub2317	2317	  1	  1	 65	  3	  1	  6	  3	  1	  0	  1	  1	0.54282	  0	0.90000	  0	 16	 47	 38	  0	
18-Apr-2013	sub2317	2317	  1	  1	 66	  3	  1	  1	  4	  1	  1	  1	  1	0.46101	  1	0.90000	  0	 11	 30	 31	  1	
18-Apr-2013	sub2317	2317	  1	  1	 67	  3	  1	  6	  3	  1	  1	  1	  0	0.59340	  0	0.90000	  0	 16	 45	 46	  0	
18-Apr-2013	sub2317	2317	  1	  1	 68	  3	  1	  6	  3	  1	  0	  2	  0	0.56886	  1	0.90000	  0	 16	 37	 48	  0	
18-Apr-2013	sub2317	2317	  1	  1	 69	  3	  1	  6	  3	  1	  0	  1	  1	0.36564	  0	0.90000	  0	 16	 47	 38	  1	
18-Apr-2013	sub2317	2317	  1	  1	 70	  3	  1	  2	  2	  3	  1	  2	  1	0.89759	  1	0.90000	  0	 12	 30	 31	  0	
18-Apr-2013	sub2317	2317	  1	  1	 71	  3	  1	  2	  2	  3	  1	  2	  1	0.51239	  1	0.90000	  0	 12	 30	 31	  0	
18-Apr-2013	sub2317	2317	  1	  1	 72	  3	  1	  5	  5	  1	  0	  1	  0	0.57510	  1	0.90000	  0	 15	 37	 48	  0	
18-Apr-2013	sub2317	2317	  1	  1	 73	  3	  1	  2	  2	  3	  1	  2	  1	0.48629	  1	0.90000	  0	 12	 30	 31	  1	
18-Apr-2013	sub2317	2317	  1	  1	 74	  3	  1	  1	  4	  1	  1	  2	  0	0.82070	  0	0.90000	  0	 11	 40	 41	  0	
18-Apr-2013	sub2317	2317	  1	  1	 75	  3	  1	  6	  3	  1	  1	  1	  0	0.42937	  0	0.90000	  0	 16	 45	 46	  1	
18-Apr-2013	sub2317	2317	  1	  1	 76	  3	  2	  2	  2	  3	  1	  1	  0	0.68746	  0	0.90000	  0	 22	 80	 81	  0	
18-Apr-2013	sub2317	2317	  1	  1	 77	  3	  2	  3	  6	  1	  1	  1	  1	0.61029	  1	0.90000	  0	 23	 62	 63	  0	
18-Apr-2013	sub2317	2317	  1	  1	 78	  3	  2	  3	  6	  1	  1	  1	  1	0.46338	  1	0.90000	  0	 23	 62	 63	  1	
18-Apr-2013	sub2317	2317	  1	  1	 79	  3	  2	  6	  3	  1	  0	  2	  0	0.69640	  1	0.90000	  0	 26	 67	 88	  0	
18-Apr-2013	sub2317	2317	  1	  1	 80	  3	  2	  5	  5	  1	  0	  1	  0	0.83279	  1	0.90000	  0	 25	 67	 88	  0	
18-Apr-2013	sub2317	2317	  1	  1	 81	  3	  2	  6	  3	  1	  1	  1	  0	0.48753	  0	0.90000	  0	 26	 85	 86	  1	
18-Apr-2013	sub2317	2317	  1	  1	 82	  3	  2	  5	  5	  1	  0	  1	  0	0.62088	  1	0.90000	  0	 25	 67	 88	  0	
18-Apr-2013	sub2317	2317	  1	  1	 83	  3	  2	  5	  5	  1	  0	  1	  0	0.52935	  1	0.90000	  0	 25	 67	 88	  0	
18-Apr-2013	sub2317	2317	  1	  1	 84	  3	  2	  1	  4	  1	  1	  2	  0	0.65552	  0	0.90000	  0	 21	 80	 81	  0	
18-Apr-2013	sub2317	2317	  1	  1	 85	  3	  2	  1	  4	  1	  1	  1	  1	0.62929	  1	0.90000	  0	 21	 60	 61	  0	
18-Apr-2013	sub2317	2317	  1	  1	 86	  3	  2	  6	  3	  1	  0	  1	  1	0.91682	  0	0.90000	  1	 26	 87	 51	  0	
18-Apr-2013	sub2317	2317	  1	  1	 87	  3	  2	  3	  6	  1	  0	  1	  0	0.57626	  1	0.90000	  0	 23	 64	 89	  0	
18-Apr-2013	sub2317	2317	  1	  1	 88	  3	  2	  4	  1	  1	  0	  2	  0	0.57596	  1	0.90000	  0	 24	 64	 89	  0	
18-Apr-2013	sub2317	2317	  1	  1	 89	  3	  2	  4	  1	  1	  1	  1	  0	0.44560	  0	0.90000	  0	 24	 82	 83	  1	
18-Apr-2013	sub2317	2317	  1	  1	 90	  3	  2	  1	  4	  1	  1	  1	  1	0.58730	  1	0.90000	  0	 21	 60	 61	  0	
18-Apr-2013	sub2317	2317	  1	  1	 91	  3	  2	  2	  2	  3	  1	  2	  1	0.63857	  1	0.90000	  0	 22	 60	 61	  0	
18-Apr-2013	sub2317	2317	  1	  1	 92	  3	  2	  2	  2	  3	  1	  2	  1	0.56660	  1	0.90000	  0	 22	 60	 61	  0	
18-Apr-2013	sub2317	2317	  1	  1	 93	  3	  2	  6	  3	  1	  0	  1	  1	0.45145	  0	0.90000	  0	 26	 87	 68	  1	
18-Apr-2013	sub2317	2317	  1	  1	 94	  3	  2	  6	  3	  1	  1	  1	  0	0.57096	  0	0.90000	  0	 26	 85	 86	  0	
18-Apr-2013	sub2317	2317	  1	  1	 95	  3	  2	  2	  2	  3	  1	  2	  1	0.50896	  1	0.90000	  0	 22	 60	 61	  0	
18-Apr-2013	sub2317	2317	  1	  1	 96	  3	  2	  3	  6	  1	  1	  1	  1	0.51080	  1	0.90000	  0	 23	 62	 63	  0	
18-Apr-2013	sub2317	2317	  1	  1	 97	  3	  2	  5	  5	  1	  0	  2	  1	0.52270	  0	0.90000	  0	 25	 87	 68	  0	
18-Apr-2013	sub2317	2317	  1	  1	 98	  3	  2	  3	  6	  1	  1	  2	  0	0.45275	  0	0.90000	  0	 23	 82	 83	  1	
18-Apr-2013	sub2317	2317	  1	  1	 99	  3	  2	  4	  1	  1	  1	  2	  1	0.71364	  1	0.90000	  0	 24	 62	 63	  0	
18-Apr-2013	sub2317	2317	  1	  1	100	  3	  2	  6	  3	  1	  1	  1	  0	0.61151	  0	0.90000	  0	 26	 85	 86	  0	
18-Apr-2013	sub2317	2317	  1	  1	101	  3	  2	  6	  3	  1	  1	  2	  1	0.53879	  1	0.80000	  0	 26	 65	 66	  0	
18-Apr-2013	sub2317	2317	  1	  1	102	  3	  2	  4	  1	  1	  1	  1	  0	0.54531	  0	0.80000	  0	 24	 82	 83	  0	
18-Apr-2013	sub2317	2317	  1	  1	103	  3	  2	  1	  4	  1	  1	  2	  0	0.52119	  0	0.80000	  0	 21	 80	 81	  0	
18-Apr-2013	sub2317	2317	  1	  1	104	  3	  2	  2	  2	  3	  1	  1	  0	0.46631	  0	0.80000	  0	 22	 80	 81	  1	
18-Apr-2013	sub2317	2317	  1	  1	105	  3	  2	  3	  6	  1	  0	  1	  0	0.59993	  1	0.80000	  0	 23	 64	 89	  0	
18-Apr-2013	sub2317	2317	  1	  1	106	  3	  2	  5	  5	  1	  0	  1	  0	0.62789	  1	0.80000	  0	 25	 67	 88	  0	
18-Apr-2013	sub2317	2317	  1	  1	107	  3	  2	  6	  3	  1	  0	  1	  1	0.55102	  0	0.80000	  0	 26	 87	 68	  0	
18-Apr-2013	sub2317	2317	  1	  1	108	  3	  2	  5	  5	  1	  0	  1	  0	0.95151	  1	0.80000	  1	 25	 67	 51	  0	
18-Apr-2013	sub2317	2317	  1	  1	109	  3	  2	  1	  4	  1	  1	  1	  1	0.90762	  1	0.90000	  1	 21	 60	 51	  0	
18-Apr-2013	sub2317	2317	  1	  1	110	  3	  2	  4	  1	  1	  1	  2	  1	1.69825	  1	0.90000	  1	 24	 62	 51	  0	
18-Apr-2013	sub2317	2317	  1	  1	111	  3	  2	  6	  3	  1	  0	  1	  1	0.51359	  0	0.90000	  0	 26	 87	 68	  0	
18-Apr-2013	sub2317	2317	  1	  1	112	  3	  2	  2	  2	  3	  1	  1	  0	0.50162	  0	0.90000	  0	 22	 80	 81	  0	
18-Apr-2013	sub2317	2317	  1	  1	113	  3	  2	  1	  4	  1	  1	  1	  1	0.75926	  1	0.90000	  0	 21	 60	 61	  0	
18-Apr-2013	sub2317	2317	  1	  1	114	  3	  2	  2	  2	  3	  1	  1	  0	1.60763	  0	0.90000	  1	 22	 80	 51	  0	
18-Apr-2013	sub2317	2317	  1	  1	115	  3	  2	  4	  1	  1	  1	  1	  0	2.41944	  0	0.90000	  1	 24	 82	 51	  0	
18-Apr-2013	sub2317	2317	  1	  1	116	  3	  2	  2	  2	  3	  1	  1	  0	0.44128	  0	0.90000	  0	 22	 80	 81	  1	
18-Apr-2013	sub2317	2317	  1	  1	117	  3	  2	  4	  1	  1	  1	  1	  0	0.59994	  0	0.90000	  0	 24	 82	 83	  0	
18-Apr-2013	sub2317	2317	  1	  1	118	  3	  2	  3	  6	  1	  1	  1	  1	0.61311	  1	0.90000	  0	 23	 62	 63	  0	
18-Apr-2013	sub2317	2317	  1	  1	119	  3	  2	  3	  6	  1	  1	  1	  1	0.42594	  1	0.90000	  0	 23	 62	 63	  1	
18-Apr-2013	sub2317	2317	  1	  1	120	  3	  2	  5	  5	  1	  0	  2	  1	0.61610	  0	0.90000	  0	 25	 87	 68	  0	
18-Apr-2013	sub2317	2317	  1	  1	121	  3	  2	  1	  4	  1	  1	  2	  0	0.70363	  0	0.90000	  0	 21	 80	 81	  0	
18-Apr-2013	sub2317	2317	  1	  1	122	  3	  2	  6	  3	  1	  0	  1	  1	0.49707	  0	0.90000	  0	 26	 87	 68	  1	
18-Apr-2013	sub2317	2317	  1	  1	123	  3	  2	  1	  4	  1	  1	  2	  0	0.66308	  0	0.90000	  0	 21	 80	 81	  0	
18-Apr-2013	sub2317	2317	  1	  1	124	  3	  2	  5	  5	  1	  0	  1	  0	0.43352	  1	0.90000	  0	 25	 67	 88	  1	
18-Apr-2013	sub2317	2317	  1	  1	125	  3	  2	  5	  5	  1	  0	  1	  0	0.53492	  1	0.90000	  0	 25	 67	 88	  0	
18-Apr-2013	sub2317	2317	  1	  1	126	  3	  2	  3	  6	  1	  1	  1	  1	0.55345	  1	0.90000	  0	 23	 62	 63	  0	
18-Apr-2013	sub2317	2317	  1	  1	127	  3	  2	  2	  2	  3	  1	  1	  0	0.80327	  0	0.90000	  0	 22	 80	 81	  0	
18-Apr-2013	sub2317	2317	  1	  1	128	  3	  2	  1	  4	  1	  1	  2	  0	0.70186	  0	0.90000	  0	 21	 80	 81	  0	
18-Apr-2013	sub2317	2317	  1	  1	129	  3	  2	  1	  4	  1	  1	  1	  1	0.39632	  1	0.90000	  0	 21	 60	 61	  1	
18-Apr-2013	sub2317	2317	  1	  1	130	  3	  2	  3	  6	  1	  1	  1	  1	0.46890	  1	0.90000	  0	 23	 62	 63	  1	
18-Apr-2013	sub2317	2317	  1	  1	131	  3	  2	  3	  6	  1	  1	  1	  1	0.49387	  1	0.90000	  0	 23	 62	 63	  1	
18-Apr-2013	sub2317	2317	  1	  1	132	  3	  2	  3	  6	  1	  1	  1	  1	0.49917	  1	0.90000	  0	 23	 62	 63	  1	
18-Apr-2013	sub2317	2317	  1	  1	133	  3	  2	  2	  2	  3	  1	  2	  1	0.62543	  1	0.90000	  0	 22	 60	 61	  0	
18-Apr-2013	sub2317	2317	  1	  1	134	  3	  2	  5	  5	  1	  0	  2	  1	0.92774	  0	0.90000	  1	 25	 87	 51	  0	
18-Apr-2013	sub2317	2317	  1	  1	135	  3	  2	  5	  5	  1	  0	  2	  1	0.69249	  0	0.90000	  0	 25	 87	 68	  0	
18-Apr-2013	sub2317	2317	  1	  1	136	  3	  2	  2	  2	  3	  1	  1	  0	0.66980	  0	0.90000	  0	 22	 80	 81	  0	
18-Apr-2013	sub2317	2317	  1	  1	137	  3	  2	  1	  4	  1	  1	  1	  1	0.69126	  1	0.90000	  0	 21	 60	 61	  0	
18-Apr-2013	sub2317	2317	  1	  1	138	  3	  2	  6	  3	  1	  1	  1	  0	0.51643	  0	0.90000	  0	 26	 85	 86	  0	
18-Apr-2013	sub2317	2317	  1	  1	139	  3	  2	  4	  1	  1	  1	  1	  0	0.58131	  0	0.90000	  0	 24	 82	 83	  0	
18-Apr-2013	sub2317	2317	  1	  1	140	  3	  2	  4	  1	  1	  1	  1	  0	0.65241	  0	0.90000	  0	 24	 82	 83	  0	
18-Apr-2013	sub2317	2317	  1	  1	141	  3	  2	  5	  5	  1	  0	  2	  1	0.11105	  0	0.90000	  0	 25	 87	 68	  1	
18-Apr-2013	sub2317	2317	  1	  1	142	  3	  2	  4	  1	  1	  1	  1	  0	0.42886	  0	0.90000	  0	 24	 82	 83	  1	
18-Apr-2013	sub2317	2317	  1	  1	143	  3	  2	  5	  5	  1	  0	  1	  0	0.49318	  1	0.90000	  0	 25	 67	 88	  1	
18-Apr-2013	sub2317	2317	  1	  1	144	  3	  2	  1	  4	  1	  1	  1	  1	0.64625	  1	0.90000	  0	 21	 60	 61	  0	
18-Apr-2013	sub2317	2317	  1	  1	145	  3	  2	  1	  4	  1	  1	  1	  1	0.51617	  1	0.90000	  0	 21	 60	 61	  0	
18-Apr-2013	sub2317	2317	  1	  1	146	  3	  2	  4	  1	  1	  0	  2	  0	0.87208	  1	0.90000	  0	 24	 64	 89	  0	
18-Apr-2013	sub2317	2317	  1	  1	147	  3	  2	  4	  1	  1	  1	  1	  0	0.75953	  0	0.90000	  0	 24	 82	 83	  0	
18-Apr-2013	sub2317	2317	  1	  1	148	  3	  2	  6	  3	  1	  1	  1	  0	0.73700	  0	0.90000	  0	 26	 85	 86	  0	
18-Apr-2013	sub2317	2317	  1	  1	149	  3	  2	  2	  2	  3	  1	  1	  0	0.50391	  0	0.90000	  0	 22	 80	 81	  0	
18-Apr-2013	sub2317	2317	  1	  1	150	  3	  2	  4	  1	  1	  0	  2	  0	0.96875	  1	0.90000	  1	 24	 64	 51	  0	
18-Apr-2013	sub2317	2317	  1	  1	  1	  4	  1	  1	  2	  6	  1	  1	  1	0.52718	  1	0.60000	  0	 11	 30	 31	  0	
18-Apr-2013	sub2317	2317	  1	  1	  2	  4	  1	  3	  6	  6	  1	  1	  1	0.59638	  1	0.30000	  1	 13	 32	 51	  0	
18-Apr-2013	sub2317	2317	  1	  1	  3	  4	  1	  2	  3	  5	  1	  1	  0	0.39305	  0	0.90000	  0	 12	 40	 41	  1	
18-Apr-2013	sub2317	2317	  1	  1	  4	  4	  1	  4	  4	  5	  1	  1	  0	0.40836	  0	0.90000	  0	 14	 42	 43	  1	
18-Apr-2013	sub2317	2317	  1	  1	  5	  4	  1	  5	  5	  6	  0	  1	  0	0.39631	  1	0.90000	  0	 15	 37	 48	  1	
18-Apr-2013	sub2317	2317	  1	  1	  6	  4	  1	  6	  1	  3	  1	  1	  0	0.33348	  0	0.90000	  0	 16	 45	 46	  1	
18-Apr-2013	sub2317	2317	  1	  1	  7	  4	  1	  1	  2	  6	  1	  1	  1	0.29324	  1	0.90000	  0	 11	 30	 31	  1	
18-Apr-2013	sub2317	2317	  1	  1	  8	  4	  1	  5	  5	  6	  0	  1	  0	0.42017	  1	0.90000	  0	 15	 37	 48	  1	
18-Apr-2013	sub2317	2317	  1	  1	  9	  4	  1	  6	  1	  3	  0	  2	  0	0.53474	  1	0.90000	  0	 16	 37	 48	  0	
18-Apr-2013	sub2317	2317	  1	  1	 10	  4	  1	  1	  2	  6	  1	  1	  1	0.42520	  1	0.90000	  0	 11	 30	 31	  1	
18-Apr-2013	sub2317	2317	  1	  1	 11	  4	  1	  1	  2	  6	  1	  1	  1	0.41028	  1	0.90000	  0	 11	 30	 31	  1	
18-Apr-2013	sub2317	2317	  1	  1	 12	  4	  1	  2	  3	  5	  1	  1	  0	0.44302	  0	0.90000	  0	 12	 40	 41	  1	
18-Apr-2013	sub2317	2317	  1	  1	 13	  4	  1	  6	  1	  3	  1	  2	  1	0.40584	  1	0.90000	  0	 16	 35	 36	  1	
18-Apr-2013	sub2317	2317	  1	  1	 14	  4	  1	  3	  6	  6	  1	  2	  0	0.41886	  0	0.90000	  0	 13	 42	 43	  1	
18-Apr-2013	sub2317	2317	  1	  1	 15	  4	  1	  3	  6	  6	  0	  2	  1	0.48485	  0	0.90000	  0	 13	 44	 39	  1	
18-Apr-2013	sub2317	2317	  1	  1	 16	  4	  1	  1	  2	  6	  1	  1	  1	0.59951	  1	0.80000	  0	 11	 30	 31	  0	
18-Apr-2013	sub2317	2317	  1	  1	 17	  4	  1	  2	  3	  5	  1	  2	  1	0.64855	  1	0.80000	  0	 12	 30	 31	  0	
18-Apr-2013	sub2317	2317	  1	  1	 18	  4	  1	  2	  3	  5	  1	  2	  1	0.38961	  1	0.70000	  0	 12	 30	 31	  1	
18-Apr-2013	sub2317	2317	  1	  1	 19	  4	  1	  6	  1	  3	  1	  2	  1	0.64154	  1	0.70000	  0	 16	 35	 36	  0	
18-Apr-2013	sub2317	2317	  1	  1	 20	  4	  1	  5	  5	  6	  0	  2	  1	0.40769	  0	0.70000	  0	 15	 47	 38	  1	
18-Apr-2013	sub2317	2317	  1	  1	 21	  4	  1	  3	  6	  6	  1	  2	  0	0.49912	  0	0.60000	  0	 13	 42	 43	  1	
18-Apr-2013	sub2317	2317	  1	  1	 22	  4	  1	  3	  6	  6	  1	  1	  1	0.58886	  1	0.60000	  0	 13	 32	 33	  0	
18-Apr-2013	sub2317	2317	  1	  1	 23	  4	  1	  4	  4	  5	  0	  1	  1	0.60304	  0	0.60000	  1	 14	 44	 51	  0	
18-Apr-2013	sub2317	2317	  1	  1	 24	  4	  1	  6	  1	  3	  0	  2	  0	0.68213	  1	0.90000	  0	 16	 37	 48	  0	
18-Apr-2013	sub2317	2317	  1	  1	 25	  4	  1	  1	  2	  6	  1	  1	  1	0.67815	  1	0.90000	  0	 11	 30	 31	  0	
18-Apr-2013	sub2317	2317	  1	  1	 26	  4	  1	  2	  3	  5	  1	  2	  1	0.51904	  1	0.90000	  0	 12	 30	 31	  0	
18-Apr-2013	sub2317	2317	  1	  1	 27	  4	  1	  6	  1	  3	  0	  2	  0	0.81267	  1	0.90000	  0	 16	 37	 48	  0	
18-Apr-2013	sub2317	2317	  1	  1	 28	  4	  1	  5	  5	  6	  1	  2	  0	0.63539	  0	0.90000	  0	 15	 45	 46	  0	
18-Apr-2013	sub2317	2317	  1	  1	 29	  4	  1	  5	  5	  6	  1	  2	  0	0.51362	  0	0.90000	  0	 15	 45	 46	  0	
18-Apr-2013	sub2317	2317	  1	  1	 30	  4	  1	  1	  2	  6	  1	  1	  1	0.53635	  1	0.80000	  0	 11	 30	 31	  0	
18-Apr-2013	sub2317	2317	  1	  1	 31	  4	  1	  2	  3	  5	  1	  2	  1	2.20133	  1	0.80000	  1	 12	 30	 51	  0	
18-Apr-2013	sub2317	2317	  1	  1	 32	  4	  1	  4	  4	  5	  1	  2	  1	0.70570	  1	0.90000	  0	 14	 32	 33	  0	
18-Apr-2013	sub2317	2317	  1	  1	 33	  4	  1	  5	  5	  6	  1	  2	  0	0.37857	  0	0.90000	  0	 15	 45	 46	  1	
18-Apr-2013	sub2317	2317	  1	  1	 34	  4	  1	  3	  6	  6	  0	  1	  0	0.68872	  1	0.90000	  0	 13	 34	 49	  0	
18-Apr-2013	sub2317	2317	  1	  1	 35	  4	  1	  4	  4	  5	  1	  2	  1	0.49627	  1	0.90000	  0	 14	 32	 33	  1	
18-Apr-2013	sub2317	2317	  1	  1	 36	  4	  1	  5	  5	  6	  1	  1	  1	0.66009	  1	0.90000	  0	 15	 35	 36	  0	
18-Apr-2013	sub2317	2317	  1	  1	 37	  4	  1	  6	  1	  3	  1	  2	  1	0.54317	  1	0.90000	  0	 16	 35	 36	  0	
18-Apr-2013	sub2317	2317	  1	  1	 38	  4	  1	  4	  4	  5	  1	  2	  1	0.67018	  1	0.90000	  0	 14	 32	 33	  0	
18-Apr-2013	sub2317	2317	  1	  1	 39	  4	  1	  4	  4	  5	  1	  2	  1	0.43663	  1	0.90000	  0	 14	 32	 33	  1	
18-Apr-2013	sub2317	2317	  1	  1	 40	  4	  1	  2	  3	  5	  1	  2	  1	0.61058	  1	0.90000	  0	 12	 30	 31	  0	
18-Apr-2013	sub2317	2317	  1	  1	 41	  4	  1	  5	  5	  6	  1	  1	  1	0.75937	  1	0.90000	  0	 15	 35	 36	  0	
18-Apr-2013	sub2317	2317	  1	  1	 42	  4	  1	  3	  6	  6	  1	  2	  0	0.60213	  0	0.90000	  0	 13	 42	 43	  0	
18-Apr-2013	sub2317	2317	  1	  1	 43	  4	  1	  2	  3	  5	  1	  2	  1	0.63694	  1	0.90000	  0	 12	 30	 31	  0	
18-Apr-2013	sub2317	2317	  1	  1	 44	  4	  1	  4	  4	  5	  1	  2	  1	0.59434	  1	0.80000	  0	 14	 32	 33	  0	
18-Apr-2013	sub2317	2317	  1	  1	 45	  4	  1	  3	  6	  6	  1	  1	  1	0.52442	  1	0.80000	  0	 13	 32	 33	  0	
18-Apr-2013	sub2317	2317	  1	  1	 46	  4	  1	  3	  6	  6	  1	  1	  1	0.58667	  1	0.80000	  0	 13	 32	 33	  0	
18-Apr-2013	sub2317	2317	  1	  1	 47	  4	  1	  1	  2	  6	  1	  1	  1	0.52469	  1	0.80000	  0	 11	 30	 31	  0	
18-Apr-2013	sub2317	2317	  1	  1	 48	  4	  1	  3	  6	  6	  1	  1	  1	0.57465	  1	0.80000	  0	 13	 32	 33	  0	
18-Apr-2013	sub2317	2317	  1	  1	 49	  4	  1	  6	  1	  3	  1	  1	  0	0.50211	  0	0.80000	  0	 16	 45	 46	  0	
18-Apr-2013	sub2317	2317	  1	  1	 50	  4	  1	  4	  4	  5	  1	  2	  1	0.67669	  1	0.80000	  0	 14	 32	 33	  0	
18-Apr-2013	sub2317	2317	  1	  1	 51	  4	  1	  5	  5	  6	  0	  1	  0	0.63092	  1	0.70000	  0	 15	 37	 48	  0	
18-Apr-2013	sub2317	2317	  1	  1	 52	  4	  1	  5	  5	  6	  0	  1	  0	0.57924	  1	0.70000	  0	 15	 37	 48	  0	
18-Apr-2013	sub2317	2317	  1	  1	 53	  4	  1	  5	  5	  6	  1	  2	  0	0.54100	  0	0.70000	  0	 15	 45	 46	  0	
18-Apr-2013	sub2317	2317	  1	  1	 54	  4	  1	  6	  1	  3	  0	  1	  1	0.60139	  0	0.70000	  0	 16	 47	 38	  0	
18-Apr-2013	sub2317	2317	  1	  1	 55	  4	  1	  5	  5	  6	  0	  1	  0	0.41487	  1	0.70000	  0	 15	 37	 48	  1	
18-Apr-2013	sub2317	2317	  1	  1	 56	  4	  1	  1	  2	  6	  1	  1	  1	0.63959	  1	0.70000	  0	 11	 30	 31	  0	
18-Apr-2013	sub2317	2317	  1	  1	 57	  4	  1	  6	  1	  3	  1	  1	  0	0.99570	  0	0.70000	  1	 16	 45	 51	  0	
18-Apr-2013	sub2317	2317	  1	  1	 58	  4	  1	  4	  4	  5	  1	  2	  1	0.57868	  1	0.90000	  0	 14	 32	 33	  0	
18-Apr-2013	sub2317	2317	  1	  1	 59	  4	  1	  2	  3	  5	  1	  1	  0	0.57313	  0	0.80000	  0	 12	 40	 41	  0	
18-Apr-2013	sub2317	2317	  1	  1	 60	  4	  1	  6	  1	  3	  1	  1	  0	0.53743	  0	0.80000	  0	 16	 45	 46	  0	
18-Apr-2013	sub2317	2317	  1	  1	 61	  4	  1	  1	  2	  6	  1	  1	  1	0.55134	  1	0.80000	  0	 11	 30	 31	  0	
18-Apr-2013	sub2317	2317	  1	  1	 62	  4	  1	  1	  2	  6	  1	  1	  1	0.53960	  1	0.80000	  0	 11	 30	 31	  0	
18-Apr-2013	sub2317	2317	  1	  1	 63	  4	  1	  2	  3	  5	  1	  2	  1	0.54130	  1	0.80000	  0	 12	 30	 31	  0	
18-Apr-2013	sub2317	2317	  1	  1	 64	  4	  1	  3	  6	  6	  1	  1	  1	0.54605	  1	0.80000	  0	 13	 32	 33	  0	
18-Apr-2013	sub2317	2317	  1	  1	 65	  4	  1	  2	  3	  5	  1	  1	  0	0.63209	  0	0.80000	  0	 12	 40	 41	  0	
18-Apr-2013	sub2317	2317	  1	  1	 66	  4	  1	  4	  4	  5	  0	  2	  0	0.62910	  1	0.80000	  0	 14	 34	 49	  0	
18-Apr-2013	sub2317	2317	  1	  1	 67	  4	  1	  6	  1	  3	  0	  2	  0	0.64729	  1	0.80000	  0	 16	 37	 48	  0	
18-Apr-2013	sub2317	2317	  1	  1	 68	  4	  1	  3	  6	  6	  0	  1	  0	0.46734	  1	0.70000	  0	 13	 34	 49	  1	
18-Apr-2013	sub2317	2317	  1	  1	 69	  4	  1	  4	  4	  5	  1	  2	  1	0.56369	  1	0.70000	  0	 14	 32	 33	  0	
18-Apr-2013	sub2317	2317	  1	  1	 70	  4	  1	  2	  3	  5	  1	  1	  0	0.55711	  0	0.70000	  0	 12	 40	 41	  0	
18-Apr-2013	sub2317	2317	  1	  1	 71	  4	  1	  4	  4	  5	  1	  2	  1	0.47235	  1	0.70000	  0	 14	 32	 33	  1	
18-Apr-2013	sub2317	2317	  1	  1	 72	  4	  1	  3	  6	  6	  1	  1	  1	0.73816	  1	0.70000	  1	 13	 32	 51	  0	
18-Apr-2013	sub2317	2317	  1	  1	 73	  4	  1	  1	  2	  6	  1	  1	  1	1.59253	  1	0.80000	  1	 11	 30	 51	  0	
18-Apr-2013	sub2317	2317	  1	  1	 74	  4	  1	  2	  3	  5	  1	  2	  1	0.63235	  1	0.90000	  0	 12	 30	 31	  0	
18-Apr-2013	sub2317	2317	  1	  1	 75	  4	  1	  6	  1	  3	  0	  1	  1	0.90392	  0	0.90000	  1	 16	 47	 51	  0	
18-Apr-2013	sub2317	2317	  1	  1	 76	  4	  2	  3	  6	  6	  1	  1	  1	0.76585	  1	0.90000	  0	 23	 62	 63	  0	
18-Apr-2013	sub2317	2317	  1	  1	 77	  4	  2	  4	  4	  5	  1	  2	  1	0.47847	  1	0.90000	  0	 24	 62	 63	  1	
18-Apr-2013	sub2317	2317	  1	  1	 78	  4	  2	  6	  1	  3	  0	  2	  0	0.53604	  1	0.90000	  0	 26	 67	 88	  0	
18-Apr-2013	sub2317	2317	  1	  1	 79	  4	  2	  5	  5	  6	  0	  2	  1	0.82152	  0	0.90000	  0	 25	 87	 68	  0	
18-Apr-2013	sub2317	2317	  1	  1	 80	  4	  2	  2	  3	  5	  1	  2	  1	0.52414	  1	0.90000	  0	 22	 60	 61	  0	
18-Apr-2013	sub2317	2317	  1	  1	 81	  4	  2	  1	  2	  6	  1	  2	  0	0.36958	  0	0.90000	  0	 21	 80	 81	  1	
18-Apr-2013	sub2317	2317	  1	  1	 82	  4	  2	  4	  4	  5	  1	  2	  1	0.79891	  1	0.90000	  0	 24	 62	 63	  0	
18-Apr-2013	sub2317	2317	  1	  1	 83	  4	  2	  3	  6	  6	  1	  1	  1	0.51611	  1	0.90000	  0	 23	 62	 63	  0	
18-Apr-2013	sub2317	2317	  1	  1	 84	  4	  2	  6	  1	  3	  0	  2	  0	0.51262	  1	0.90000	  0	 26	 67	 88	  0	
18-Apr-2013	sub2317	2317	  1	  1	 85	  4	  2	  1	  2	  6	  1	  1	  1	0.50300	  1	0.90000	  0	 21	 60	 61	  0	
18-Apr-2013	sub2317	2317	  1	  1	 86	  4	  2	  4	  4	  5	  1	  2	  1	0.66363	  1	0.90000	  0	 24	 62	 63	  0	
18-Apr-2013	sub2317	2317	  1	  1	 87	  4	  2	  2	  3	  5	  1	  1	  0	0.52891	  0	0.90000	  0	 22	 80	 81	  0	
18-Apr-2013	sub2317	2317	  1	  1	 88	  4	  2	  4	  4	  5	  1	  2	  1	0.68717	  1	0.90000	  0	 24	 62	 63	  0	
18-Apr-2013	sub2317	2317	  1	  1	 89	  4	  2	  5	  5	  6	  0	  2	  1	0.69526	  0	0.90000	  0	 25	 87	 68	  0	
18-Apr-2013	sub2317	2317	  1	  1	 90	  4	  2	  2	  3	  5	  1	  2	  1	0.57800	  1	0.90000	  0	 22	 60	 61	  0	
18-Apr-2013	sub2317	2317	  1	  1	 91	  4	  2	  4	  4	  5	  0	  2	  0	0.53694	  1	0.90000	  0	 24	 64	 89	  0	
18-Apr-2013	sub2317	2317	  1	  1	 92	  4	  2	  1	  2	  6	  1	  2	  0	0.37868	  0	0.90000	  0	 21	 80	 81	  1	
18-Apr-2013	sub2317	2317	  1	  1	 93	  4	  2	  2	  3	  5	  1	  2	  1	0.50204	  1	0.90000	  0	 22	 60	 61	  0	
18-Apr-2013	sub2317	2317	  1	  1	 94	  4	  2	  5	  5	  6	  0	  2	  1	0.72984	  0	0.90000	  0	 25	 87	 68	  0	
18-Apr-2013	sub2317	2317	  1	  1	 95	  4	  2	  2	  3	  5	  1	  2	  1	0.65931	  1	0.90000	  0	 22	 60	 61	  0	
18-Apr-2013	sub2317	2317	  1	  1	 96	  4	  2	  5	  5	  6	  0	  2	  1	0.54574	  0	0.90000	  0	 25	 87	 68	  0	
18-Apr-2013	sub2317	2317	  1	  1	 97	  4	  2	  6	  1	  3	  1	  2	  1	0.58920	  1	0.90000	  0	 26	 65	 66	  0	
18-Apr-2013	sub2317	2317	  1	  1	 98	  4	  2	  3	  6	  6	  1	  1	  1	0.60385	  1	0.90000	  0	 23	 62	 63	  0	
18-Apr-2013	sub2317	2317	  1	  1	 99	  4	  2	  3	  6	  6	  1	  1	  1	0.53633	  1	0.90000	  0	 23	 62	 63	  0	
18-Apr-2013	sub2317	2317	  1	  1	100	  4	  2	  1	  2	  6	  1	  2	  0	0.48765	  0	0.90000	  0	 21	 80	 81	  1	
18-Apr-2013	sub2317	2317	  1	  1	101	  4	  2	  4	  4	  5	  1	  2	  1	0.51865	  1	0.80000	  0	 24	 62	 63	  0	
18-Apr-2013	sub2317	2317	  1	  1	102	  4	  2	  2	  3	  5	  1	  2	  1	0.68937	  1	0.80000	  0	 22	 60	 61	  0	
18-Apr-2013	sub2317	2317	  1	  1	103	  4	  2	  1	  2	  6	  1	  1	  1	0.50795	  1	0.80000	  0	 21	 60	 61	  0	
18-Apr-2013	sub2317	2317	  1	  1	104	  4	  2	  4	  4	  5	  1	  2	  1	0.49552	  1	0.80000	  0	 24	 62	 63	  1	
18-Apr-2013	sub2317	2317	  1	  1	105	  4	  2	  3	  6	  6	  1	  1	  1	0.60653	  1	0.80000	  0	 23	 62	 63	  0	
18-Apr-2013	sub2317	2317	  1	  1	106	  4	  2	  3	  6	  6	  1	  1	  1	0.53059	  1	0.80000	  0	 23	 62	 63	  0	
18-Apr-2013	sub2317	2317	  1	  1	107	  4	  2	  6	  1	  3	  0	  1	  1	0.51396	  0	0.80000	  0	 26	 87	 68	  0	
18-Apr-2013	sub2317	2317	  1	  1	108	  4	  2	  5	  5	  6	  0	  2	  1	0.53657	  0	0.80000	  0	 25	 87	 68	  0	
18-Apr-2013	sub2317	2317	  1	  1	109	  4	  2	  5	  5	  6	  0	  2	  1	0.62332	  0	0.80000	  0	 25	 87	 68	  0	
18-Apr-2013	sub2317	2317	  1	  1	110	  4	  2	  3	  6	  6	  1	  1	  1	0.56225	  1	0.80000	  0	 23	 62	 63	  0	
18-Apr-2013	sub2317	2317	  1	  1	111	  4	  2	  3	  6	  6	  1	  1	  1	0.43449	  1	0.80000	  0	 23	 62	 63	  1	
18-Apr-2013	sub2317	2317	  1	  1	112	  4	  2	  3	  6	  6	  1	  1	  1	0.49806	  1	0.80000	  0	 23	 62	 63	  1	
18-Apr-2013	sub2317	2317	  1	  1	113	  4	  2	  5	  5	  6	  0	  2	  1	0.55938	  0	0.80000	  0	 25	 87	 68	  0	
18-Apr-2013	sub2317	2317	  1	  1	114	  4	  2	  5	  5	  6	  0	  2	  1	0.51159	  0	0.80000	  0	 25	 87	 68	  0	
18-Apr-2013	sub2317	2317	  1	  1	115	  4	  2	  5	  5	  6	  0	  2	  1	0.35088	  0	0.80000	  0	 25	 87	 68	  1	
18-Apr-2013	sub2317	2317	  1	  1	116	  4	  2	  5	  5	  6	  0	  2	  1	0.45868	  0	0.80000	  0	 25	 87	 68	  1	
18-Apr-2013	sub2317	2317	  1	  1	117	  4	  2	  6	  1	  3	  1	  1	  0	0.62552	  0	0.80000	  0	 26	 85	 86	  0	
18-Apr-2013	sub2317	2317	  1	  1	118	  4	  2	  1	  2	  6	  1	  1	  1	0.69499	  1	0.70000	  0	 21	 60	 61	  0	
18-Apr-2013	sub2317	2317	  1	  1	119	  4	  2	  4	  4	  5	  1	  2	  1	0.53762	  1	0.70000	  0	 24	 62	 63	  0	
18-Apr-2013	sub2317	2317	  1	  1	120	  4	  2	  1	  2	  6	  1	  1	  1	0.43982	  1	0.70000	  0	 21	 60	 61	  1	
18-Apr-2013	sub2317	2317	  1	  1	121	  4	  2	  6	  1	  3	  1	  1	  0	0.45268	  0	0.70000	  0	 26	 85	 86	  1	
18-Apr-2013	sub2317	2317	  1	  1	122	  4	  2	  2	  3	  5	  1	  2	  1	0.50381	  1	0.70000	  0	 22	 60	 61	  0	
18-Apr-2013	sub2317	2317	  1	  1	123	  4	  2	  2	  3	  5	  1	  2	  1	0.51180	  1	0.70000	  0	 22	 60	 61	  0	
18-Apr-2013	sub2317	2317	  1	  1	124	  4	  2	  1	  2	  6	  1	  1	  1	0.61572	  1	0.70000	  0	 21	 60	 61	  0	
18-Apr-2013	sub2317	2317	  1	  1	125	  4	  2	  6	  1	  3	  1	  2	  1	0.48435	  1	0.70000	  0	 26	 65	 66	  1	
18-Apr-2013	sub2317	2317	  1	  1	126	  4	  2	  3	  6	  6	  0	  1	  0	0.49661	  1	0.70000	  0	 23	 64	 89	  1	
18-Apr-2013	sub2317	2317	  1	  1	127	  4	  2	  5	  5	  6	  0	  2	  1	0.52456	  0	0.70000	  0	 25	 87	 68	  0	
18-Apr-2013	sub2317	2317	  1	  1	128	  4	  2	  2	  3	  5	  1	  2	  1	0.87908	  1	0.70000	  1	 22	 60	 51	  0	
18-Apr-2013	sub2317	2317	  1	  1	129	  4	  2	  5	  5	  6	  0	  2	  1	0.56336	  0	0.80000	  0	 25	 87	 68	  0	
18-Apr-2013	sub2317	2317	  1	  1	130	  4	  2	  1	  2	  6	  1	  1	  1	0.56771	  1	0.80000	  0	 21	 60	 61	  0	
18-Apr-2013	sub2317	2317	  1	  1	131	  4	  2	  1	  2	  6	  1	  1	  1	0.45130	  1	0.80000	  0	 21	 60	 61	  1	
18-Apr-2013	sub2317	2317	  1	  1	132	  4	  2	  3	  6	  6	  1	  1	  1	0.53982	  1	0.80000	  0	 23	 62	 63	  0	
18-Apr-2013	sub2317	2317	  1	  1	133	  4	  2	  3	  6	  6	  0	  1	  0	0.47470	  1	0.80000	  0	 23	 64	 89	  1	
18-Apr-2013	sub2317	2317	  1	  1	134	  4	  2	  4	  4	  5	  1	  2	  1	0.56107	  1	0.80000	  0	 24	 62	 63	  0	
18-Apr-2013	sub2317	2317	  1	  1	135	  4	  2	  4	  4	  5	  1	  2	  1	0.50904	  1	0.70000	  0	 24	 62	 63	  0	
18-Apr-2013	sub2317	2317	  1	  1	136	  4	  2	  4	  4	  5	  0	  2	  0	0.54243	  1	0.70000	  0	 24	 64	 89	  0	
18-Apr-2013	sub2317	2317	  1	  1	137	  4	  2	  6	  1	  3	  0	  1	  1	0.50588	  0	0.70000	  0	 26	 87	 68	  0	
18-Apr-2013	sub2317	2317	  1	  1	138	  4	  2	  6	  1	  3	  0	  1	  1	0.48086	  0	0.70000	  0	 26	 87	 68	  1	
18-Apr-2013	sub2317	2317	  1	  1	139	  4	  2	  6	  1	  3	  1	  1	  0	0.47641	  0	0.70000	  0	 26	 85	 86	  1	
18-Apr-2013	sub2317	2317	  1	  1	140	  4	  2	  6	  1	  3	  0	  1	  1	0.44745	  0	0.70000	  0	 26	 87	 68	  1	
18-Apr-2013	sub2317	2317	  1	  1	141	  4	  2	  2	  3	  5	  1	  2	  1	0.57784	  1	0.70000	  0	 22	 60	 61	  0	
18-Apr-2013	sub2317	2317	  1	  1	142	  4	  2	  4	  4	  5	  0	  2	  0	0.52452	  1	0.70000	  0	 24	 64	 89	  0	
18-Apr-2013	sub2317	2317	  1	  1	143	  4	  2	  1	  2	  6	  1	  1	  1	0.54392	  1	0.70000	  0	 21	 60	 61	  0	
18-Apr-2013	sub2317	2317	  1	  1	144	  4	  2	  2	  3	  5	  1	  2	  1	0.55901	  1	0.70000	  0	 22	 60	 61	  0	
18-Apr-2013	sub2317	2317	  1	  1	145	  4	  2	  2	  3	  5	  1	  2	  1	0.52076	  1	0.70000	  0	 22	 60	 61	  0	
18-Apr-2013	sub2317	2317	  1	  1	146	  4	  2	  1	  2	  6	  1	  1	  1	0.45293	  1	0.70000	  0	 21	 60	 61	  1	
18-Apr-2013	sub2317	2317	  1	  1	147	  4	  2	  1	  2	  6	  1	  1	  1	0.45449	  1	0.70000	  0	 21	 60	 61	  1	
18-Apr-2013	sub2317	2317	  1	  1	148	  4	  2	  5	  5	  6	  0	  2	  1	0.52590	  0	0.70000	  0	 25	 87	 68	  0	
18-Apr-2013	sub2317	2317	  1	  1	149	  4	  2	  6	  1	  3	  1	  2	  1	0.40722	  1	0.70000	  0	 26	 65	 66	  1	
18-Apr-2013	sub2317	2317	  1	  1	150	  4	  2	  4	  4	  5	  1	  1	  0	0.43157	  0	0.70000	  0	 24	 82	 83	  1	
18-Apr-2013	sub2317	2317	  1	  1	  1	  5	  1	  5	  2	  5	  1	  1	  1	0.39311	  1	0.60000	  0	 15	 35	 36	  1	
18-Apr-2013	sub2317	2317	  1	  1	  2	  5	  1	  6	  4	  6	  0	  1	  1	0.43861	  0	0.30000	  1	 16	 47	 51	  1	
18-Apr-2013	sub2317	2317	  1	  1	  3	  5	  1	  3	  5	  5	  0	  1	  0	0.32992	  1	0.90000	  0	 13	 34	 49	  1	
18-Apr-2013	sub2317	2317	  1	  1	  4	  5	  1	  1	  1	  4	  1	  1	  1	0.34607	  1	0.90000	  0	 11	 30	 31	  1	
18-Apr-2013	sub2317	2317	  1	  1	  5	  5	  1	  6	  4	  6	  0	  1	  1	0.49887	  0	0.90000	  0	 16	 47	 38	  1	
18-Apr-2013	sub2317	2317	  1	  1	  6	  5	  1	  5	  2	  5	  0	  1	  0	0.50668	  1	0.90000	  0	 15	 37	 48	  0	
18-Apr-2013	sub2317	2317	  1	  1	  7	  5	  1	  5	  2	  5	  0	  1	  0	0.45399	  1	0.90000	  0	 15	 37	 48	  1	
18-Apr-2013	sub2317	2317	  1	  1	  8	  5	  1	  4	  3	  6	  1	  2	  1	0.82898	  1	0.90000	  0	 14	 32	 33	  0	
18-Apr-2013	sub2317	2317	  1	  1	  9	  5	  1	  6	  4	  6	  1	  1	  0	0.57630	  0	0.90000	  0	 16	 45	 46	  0	
18-Apr-2013	sub2317	2317	  1	  1	 10	  5	  1	  6	  4	  6	  1	  1	  0	0.43574	  0	0.90000	  0	 16	 45	 46	  1	
18-Apr-2013	sub2317	2317	  1	  1	 11	  5	  1	  5	  2	  5	  1	  1	  1	0.56991	  1	0.90000	  0	 15	 35	 36	  0	
18-Apr-2013	sub2317	2317	  1	  1	 12	  5	  1	  5	  2	  5	  0	  1	  0	0.55457	  1	0.90000	  0	 15	 37	 48	  0	
18-Apr-2013	sub2317	2317	  1	  1	 13	  5	  1	  6	  4	  6	  0	  2	  0	0.57059	  1	0.90000	  0	 16	 37	 48	  0	
18-Apr-2013	sub2317	2317	  1	  1	 14	  5	  1	  2	  6	  5	  1	  1	  0	0.37942	  0	0.90000	  0	 12	 40	 41	  1	
18-Apr-2013	sub2317	2317	  1	  1	 15	  5	  1	  1	  1	  4	  1	  2	  0	0.64770	  0	0.90000	  0	 11	 40	 41	  0	
18-Apr-2013	sub2317	2317	  1	  1	 16	  5	  1	  1	  1	  4	  1	  2	  0	0.41491	  0	0.80000	  0	 11	 40	 41	  1	
18-Apr-2013	sub2317	2317	  1	  1	 17	  5	  1	  3	  5	  5	  1	  2	  0	0.82127	  0	0.80000	  1	 13	 42	 51	  0	
18-Apr-2013	sub2317	2317	  1	  1	 18	  5	  1	  6	  4	  6	  0	  1	  1	0.62962	  0	0.90000	  0	 16	 47	 38	  0	
18-Apr-2013	sub2317	2317	  1	  1	 19	  5	  1	  3	  5	  5	  1	  2	  0	0.57019	  0	0.90000	  0	 13	 42	 43	  0	
18-Apr-2013	sub2317	2317	  1	  1	 20	  5	  1	  2	  6	  5	  1	  1	  0	0.36486	  0	0.90000	  0	 12	 40	 41	  1	
18-Apr-2013	sub2317	2317	  1	  1	 21	  5	  1	  1	  1	  4	  1	  1	  1	0.58922	  1	0.90000	  0	 11	 30	 31	  0	
18-Apr-2013	sub2317	2317	  1	  1	 22	  5	  1	  3	  5	  5	  0	  2	  1	0.59052	  0	0.90000	  0	 13	 44	 39	  0	
18-Apr-2013	sub2317	2317	  1	  1	 23	  5	  1	  3	  5	  5	  1	  2	  0	0.48174	  0	0.90000	  0	 13	 42	 43	  1	
18-Apr-2013	sub2317	2317	  1	  1	 24	  5	  1	  3	  5	  5	  1	  2	  0	0.41205	  0	0.90000	  0	 13	 42	 43	  1	
18-Apr-2013	sub2317	2317	  1	  1	 25	  5	  1	  1	  1	  4	  1	  2	  0	0.58680	  0	0.90000	  0	 11	 40	 41	  0	
18-Apr-2013	sub2317	2317	  1	  1	 26	  5	  1	  4	  3	  6	  1	  2	  1	0.53326	  1	0.90000	  0	 14	 32	 33	  0	
18-Apr-2013	sub2317	2317	  1	  1	 27	  5	  1	  4	  3	  6	  1	  2	  1	0.54064	  1	0.90000	  0	 14	 32	 33	  0	
18-Apr-2013	sub2317	2317	  1	  1	 28	  5	  1	  1	  1	  4	  1	  1	  1	0.52155	  1	0.90000	  0	 11	 30	 31	  0	
18-Apr-2013	sub2317	2317	  1	  1	 29	  5	  1	  3	  5	  5	  1	  1	  1	0.43855	  1	0.90000	  0	 13	 32	 33	  1	
18-Apr-2013	sub2317	2317	  1	  1	 30	  5	  1	  2	  6	  5	  1	  2	  1	0.42319	  1	0.80000	  0	 12	 30	 31	  1	
18-Apr-2013	sub2317	2317	  1	  1	 31	  5	  1	  3	  5	  5	  1	  2	  0	0.85718	  0	0.80000	  1	 13	 42	 51	  0	
18-Apr-2013	sub2317	2317	  1	  1	 32	  5	  1	  2	  6	  5	  1	  2	  1	1.00330	  1	0.90000	  1	 12	 30	 51	  0	
18-Apr-2013	sub2317	2317	  1	  1	 33	  5	  1	  5	  2	  5	  1	  2	  0	0.47663	  0	0.90000	  0	 15	 45	 46	  1	
18-Apr-2013	sub2317	2317	  1	  1	 34	  5	  1	  6	  4	  6	  1	  2	  1	0.48756	  1	0.90000	  0	 16	 35	 36	  1	
18-Apr-2013	sub2317	2317	  1	  1	 35	  5	  1	  3	  5	  5	  1	  2	  0	0.46649	  0	0.90000	  0	 13	 42	 43	  1	
18-Apr-2013	sub2317	2317	  1	  1	 36	  5	  1	  4	  3	  6	  0	  2	  0	0.52388	  1	0.90000	  0	 14	 34	 49	  0	
18-Apr-2013	sub2317	2317	  1	  1	 37	  5	  1	  2	  6	  5	  1	  2	  1	0.58423	  1	0.90000	  0	 12	 30	 31	  0	
18-Apr-2013	sub2317	2317	  1	  1	 38	  5	  1	  4	  3	  6	  1	  2	  1	0.57866	  1	0.90000	  0	 14	 32	 33	  0	
18-Apr-2013	sub2317	2317	  1	  1	 39	  5	  1	  2	  6	  5	  1	  2	  1	0.56917	  1	0.90000	  0	 12	 30	 31	  0	
18-Apr-2013	sub2317	2317	  1	  1	 40	  5	  1	  6	  4	  6	  0	  2	  0	0.51446	  1	0.90000	  0	 16	 37	 48	  0	
18-Apr-2013	sub2317	2317	  1	  1	 41	  5	  1	  4	  3	  6	  1	  2	  1	0.53626	  1	0.90000	  0	 14	 32	 33	  0	
18-Apr-2013	sub2317	2317	  1	  1	 42	  5	  1	  4	  3	  6	  1	  2	  1	0.56498	  1	0.90000	  0	 14	 32	 33	  0	
18-Apr-2013	sub2317	2317	  1	  1	 43	  5	  1	  3	  5	  5	  1	  1	  1	0.57710	  1	0.90000	  0	 13	 32	 33	  0	
18-Apr-2013	sub2317	2317	  1	  1	 44	  5	  1	  1	  1	  4	  1	  1	  1	0.53272	  1	0.90000	  0	 11	 30	 31	  0	
18-Apr-2013	sub2317	2317	  1	  1	 45	  5	  1	  2	  6	  5	  1	  2	  1	0.48699	  1	0.90000	  0	 12	 30	 31	  1	
18-Apr-2013	sub2317	2317	  1	  1	 46	  5	  1	  2	  6	  5	  1	  1	  0	0.41352	  0	0.90000	  0	 12	 40	 41	  1	
18-Apr-2013	sub2317	2317	  1	  1	 47	  5	  1	  2	  6	  5	  1	  2	  1	0.52536	  1	0.90000	  0	 12	 30	 31	  0	
18-Apr-2013	sub2317	2317	  1	  1	 48	  5	  1	  4	  3	  6	  0	  2	  0	0.50437	  1	0.90000	  0	 14	 34	 49	  0	
18-Apr-2013	sub2317	2317	  1	  1	 49	  5	  1	  6	  4	  6	  1	  2	  1	1.93013	  1	0.90000	  1	 16	 35	 51	  0	
18-Apr-2013	sub2317	2317	  1	  1	 50	  5	  1	  4	  3	  6	  1	  2	  1	0.58746	  1	0.90000	  0	 14	 32	 33	  0	
18-Apr-2013	sub2317	2317	  1	  1	 51	  5	  1	  6	  4	  6	  1	  2	  1	0.60842	  1	0.90000	  0	 16	 35	 36	  0	
18-Apr-2013	sub2317	2317	  1	  1	 52	  5	  1	  1	  1	  4	  1	  1	  1	0.54593	  1	0.90000	  0	 11	 30	 31	  0	
18-Apr-2013	sub2317	2317	  1	  1	 53	  5	  1	  4	  3	  6	  1	  2	  1	0.46010	  1	0.90000	  0	 14	 32	 33	  1	
18-Apr-2013	sub2317	2317	  1	  1	 54	  5	  1	  5	  2	  5	  1	  1	  1	0.67728	  1	0.90000	  0	 15	 35	 36	  0	
18-Apr-2013	sub2317	2317	  1	  1	 55	  5	  1	  6	  4	  6	  0	  1	  1	0.72730	  0	0.90000	  0	 16	 47	 38	  0	
18-Apr-2013	sub2317	2317	  1	  1	 56	  5	  1	  1	  1	  4	  1	  1	  1	0.42117	  1	0.90000	  0	 11	 30	 31	  1	
18-Apr-2013	sub2317	2317	  1	  1	 57	  5	  1	  5	  2	  5	  1	  2	  0	0.94583	  0	0.90000	  1	 15	 45	 51	  0	
18-Apr-2013	sub2317	2317	  1	  1	 58	  5	  1	  5	  2	  5	  1	  2	  0	0.56827	  0	0.90000	  0	 15	 45	 46	  0	
18-Apr-2013	sub2317	2317	  1	  1	 59	  5	  1	  5	  2	  5	  0	  2	  1	0.41741	  0	0.90000	  0	 15	 47	 38	  1	
18-Apr-2013	sub2317	2317	  1	  1	 60	  5	  1	  5	  2	  5	  1	  2	  0	0.51421	  0	0.90000	  0	 15	 45	 46	  0	
18-Apr-2013	sub2317	2317	  1	  1	 61	  5	  1	  1	  1	  4	  1	  1	  1	0.56956	  1	0.90000	  0	 11	 30	 31	  0	
18-Apr-2013	sub2317	2317	  1	  1	 62	  5	  1	  4	  3	  6	  1	  2	  1	0.53737	  1	0.90000	  0	 14	 32	 33	  0	
18-Apr-2013	sub2317	2317	  1	  1	 63	  5	  1	  2	  6	  5	  1	  2	  1	0.85833	  1	0.90000	  0	 12	 30	 31	  0	
18-Apr-2013	sub2317	2317	  1	  1	 64	  5	  1	  2	  6	  5	  1	  2	  1	0.44978	  1	0.90000	  0	 12	 30	 31	  1	
18-Apr-2013	sub2317	2317	  1	  1	 65	  5	  1	  6	  4	  6	  0	  1	  1	0.61865	  0	0.90000	  0	 16	 47	 38	  0	
18-Apr-2013	sub2317	2317	  1	  1	 66	  5	  1	  3	  5	  5	  1	  2	  0	0.48743	  0	0.90000	  0	 13	 42	 43	  1	
18-Apr-2013	sub2317	2317	  1	  1	 67	  5	  1	  1	  1	  4	  1	  1	  1	0.53372	  1	0.90000	  0	 11	 30	 31	  0	
18-Apr-2013	sub2317	2317	  1	  1	 68	  5	  1	  3	  5	  5	  1	  1	  1	0.50590	  1	0.90000	  0	 13	 32	 33	  0	
18-Apr-2013	sub2317	2317	  1	  1	 69	  5	  1	  4	  3	  6	  1	  2	  1	0.50389	  1	0.90000	  0	 14	 32	 33	  0	
18-Apr-2013	sub2317	2317	  1	  1	 70	  5	  1	  5	  2	  5	  0	  2	  1	0.67114	  0	0.90000	  0	 15	 47	 38	  0	
18-Apr-2013	sub2317	2317	  1	  1	 71	  5	  1	  2	  6	  5	  1	  2	  1	0.50585	  1	0.90000	  0	 12	 30	 31	  0	
18-Apr-2013	sub2317	2317	  1	  1	 72	  5	  1	  1	  1	  4	  1	  2	  0	0.40533	  0	0.90000	  0	 11	 40	 41	  1	
18-Apr-2013	sub2317	2317	  1	  1	 73	  5	  1	  3	  5	  5	  0	  1	  0	0.50498	  1	0.90000	  0	 13	 34	 49	  0	
18-Apr-2013	sub2317	2317	  1	  1	 74	  5	  1	  6	  4	  6	  0	  1	  1	0.74612	  0	0.90000	  0	 16	 47	 38	  0	
18-Apr-2013	sub2317	2317	  1	  1	 75	  5	  1	  2	  6	  5	  1	  1	  0	0.56388	  0	0.90000	  0	 12	 40	 41	  0	
18-Apr-2013	sub2317	2317	  1	  1	 76	  5	  2	  3	  5	  5	  1	  1	  1	0.56426	  1	0.90000	  0	 23	 62	 63	  0	
18-Apr-2013	sub2317	2317	  1	  1	 77	  5	  2	  1	  1	  4	  1	  1	  1	0.50702	  1	0.90000	  0	 21	 60	 61	  0	
18-Apr-2013	sub2317	2317	  1	  1	 78	  5	  2	  6	  4	  6	  0	  1	  1	0.55077	  0	0.90000	  0	 26	 87	 68	  0	
18-Apr-2013	sub2317	2317	  1	  1	 79	  5	  2	  6	  4	  6	  1	  1	  0	0.41150	  0	0.90000	  0	 26	 85	 86	  1	
18-Apr-2013	sub2317	2317	  1	  1	 80	  5	  2	  4	  3	  6	  1	  2	  1	0.56569	  1	0.90000	  0	 24	 62	 63	  0	
18-Apr-2013	sub2317	2317	  1	  1	 81	  5	  2	  4	  3	  6	  1	  2	  1	0.54712	  1	0.90000	  0	 24	 62	 63	  0	
18-Apr-2013	sub2317	2317	  1	  1	 82	  5	  2	  5	  2	  5	  0	  1	  0	0.60247	  1	0.90000	  0	 25	 67	 88	  0	
18-Apr-2013	sub2317	2317	  1	  1	 83	  5	  2	  6	  4	  6	  0	  1	  1	0.50923	  0	0.90000	  0	 26	 87	 68	  0	
18-Apr-2013	sub2317	2317	  1	  1	 84	  5	  2	  4	  3	  6	  0	  2	  0	0.46029	  1	0.90000	  0	 24	 64	 89	  1	
18-Apr-2013	sub2317	2317	  1	  1	 85	  5	  2	  3	  5	  5	  0	  2	  1	0.44746	  0	0.90000	  0	 23	 84	 69	  1	
18-Apr-2013	sub2317	2317	  1	  1	 86	  5	  2	  3	  5	  5	  1	  2	  0	0.55393	  0	0.90000	  0	 23	 82	 83	  0	
18-Apr-2013	sub2317	2317	  1	  1	 87	  5	  2	  4	  3	  6	  0	  2	  0	0.59992	  1	0.80000	  0	 24	 64	 89	  0	
18-Apr-2013	sub2317	2317	  1	  1	 88	  5	  2	  6	  4	  6	  0	  1	  1	0.60182	  0	0.80000	  0	 26	 87	 68	  0	
18-Apr-2013	sub2317	2317	  1	  1	 89	  5	  2	  4	  3	  6	  1	  2	  1	0.63412	  1	0.80000	  0	 24	 62	 63	  0	
18-Apr-2013	sub2317	2317	  1	  1	 90	  5	  2	  3	  5	  5	  1	  1	  1	0.49980	  1	0.80000	  0	 23	 62	 63	  1	
18-Apr-2013	sub2317	2317	  1	  1	 91	  5	  2	  5	  2	  5	  0	  2	  1	0.76592	  0	0.80000	  0	 25	 87	 68	  0	
18-Apr-2013	sub2317	2317	  1	  1	 92	  5	  2	  3	  5	  5	  1	  2	  0	0.57873	  0	0.80000	  0	 23	 82	 83	  0	
18-Apr-2013	sub2317	2317	  1	  1	 93	  5	  2	  2	  6	  5	  1	  2	  1	0.59591	  1	0.80000	  0	 22	 60	 61	  0	
18-Apr-2013	sub2317	2317	  1	  1	 94	  5	  2	  2	  6	  5	  1	  2	  1	0.75640	  1	0.80000	  0	 22	 60	 61	  0	
18-Apr-2013	sub2317	2317	  1	  1	 95	  5	  2	  1	  1	  4	  1	  1	  1	0.46058	  1	0.80000	  0	 21	 60	 61	  1	
18-Apr-2013	sub2317	2317	  1	  1	 96	  5	  2	  5	  2	  5	  0	  2	  1	0.69841	  0	0.80000	  0	 25	 87	 68	  0	
18-Apr-2013	sub2317	2317	  1	  1	 97	  5	  2	  5	  2	  5	  0	  2	  1	0.46846	  0	0.80000	  0	 25	 87	 68	  1	
18-Apr-2013	sub2317	2317	  1	  1	 98	  5	  2	  5	  2	  5	  0	  2	  1	0.36741	  0	0.80000	  0	 25	 87	 68	  1	
18-Apr-2013	sub2317	2317	  1	  1	 99	  5	  2	  3	  5	  5	  1	  1	  1	0.52882	  1	0.80000	  0	 23	 62	 63	  0	
18-Apr-2013	sub2317	2317	  1	  1	100	  5	  2	  2	  6	  5	  1	  2	  1	0.53338	  1	0.80000	  0	 22	 60	 61	  0	
18-Apr-2013	sub2317	2317	  1	  1	101	  5	  2	  5	  2	  5	  0	  2	  1	0.66445	  0	0.70000	  0	 25	 87	 68	  0	
18-Apr-2013	sub2317	2317	  1	  1	102	  5	  2	  4	  3	  6	  0	  2	  0	0.50249	  1	0.70000	  0	 24	 64	 89	  0	
18-Apr-2013	sub2317	2317	  1	  1	103	  5	  2	  4	  3	  6	  1	  2	  1	0.51355	  1	0.70000	  0	 24	 62	 63	  0	
18-Apr-2013	sub2317	2317	  1	  1	104	  5	  2	  3	  5	  5	  1	  1	  1	0.52824	  1	0.70000	  0	 23	 62	 63	  0	
18-Apr-2013	sub2317	2317	  1	  1	105	  5	  2	  2	  6	  5	  1	  2	  1	0.52674	  1	0.70000	  0	 22	 60	 61	  0	
18-Apr-2013	sub2317	2317	  1	  1	106	  5	  2	  5	  2	  5	  0	  2	  1	0.53332	  0	0.70000	  0	 25	 87	 68	  0	
18-Apr-2013	sub2317	2317	  1	  1	107	  5	  2	  6	  4	  6	  1	  1	  0	0.44557	  0	0.70000	  0	 26	 85	 86	  1	
18-Apr-2013	sub2317	2317	  1	  1	108	  5	  2	  1	  1	  4	  1	  1	  1	0.49569	  1	0.70000	  0	 21	 60	 61	  1	
18-Apr-2013	sub2317	2317	  1	  1	109	  5	  2	  6	  4	  6	  1	  1	  0	0.48343	  0	0.70000	  0	 26	 85	 86	  1	
18-Apr-2013	sub2317	2317	  1	  1	110	  5	  2	  6	  4	  6	  0	  1	  1	0.41636	  0	0.70000	  0	 26	 87	 68	  1	
18-Apr-2013	sub2317	2317	  1	  1	111	  5	  2	  6	  4	  6	  1	  1	  0	0.44321	  0	0.70000	  0	 26	 85	 86	  1	
18-Apr-2013	sub2317	2317	  1	  1	112	  5	  2	  3	  5	  5	  1	  1	  1	0.58955	  1	0.70000	  0	 23	 62	 63	  0	
18-Apr-2013	sub2317	2317	  1	  1	113	  5	  2	  2	  6	  5	  1	  2	  1	0.53260	  1	0.70000	  0	 22	 60	 61	  0	
18-Apr-2013	sub2317	2317	  1	  1	114	  5	  2	  2	  6	  5	  1	  2	  1	0.65531	  1	0.70000	  0	 22	 60	 61	  0	
18-Apr-2013	sub2317	2317	  1	  1	115	  5	  2	  5	  2	  5	  0	  2	  1	0.98542	  0	0.70000	  1	 25	 87	 51	  0	
18-Apr-2013	sub2317	2317	  1	  1	116	  5	  2	  6	  4	  6	  1	  1	  0	0.47557	  0	0.80000	  0	 26	 85	 86	  1	
18-Apr-2013	sub2317	2317	  1	  1	117	  5	  2	  1	  1	  4	  1	  1	  1	0.62768	  1	0.80000	  0	 21	 60	 61	  0	
18-Apr-2013	sub2317	2317	  1	  1	118	  5	  2	  2	  6	  5	  1	  2	  1	0.56974	  1	0.70000	  0	 22	 60	 61	  0	
18-Apr-2013	sub2317	2317	  1	  1	119	  5	  2	  3	  5	  5	  0	  1	  0	0.61569	  1	0.70000	  0	 23	 64	 89	  0	
18-Apr-2013	sub2317	2317	  1	  1	120	  5	  2	  5	  2	  5	  0	  2	  1	0.55662	  0	0.70000	  0	 25	 87	 68	  0	
18-Apr-2013	sub2317	2317	  1	  1	121	  5	  2	  2	  6	  5	  1	  2	  1	0.60439	  1	0.70000	  0	 22	 60	 61	  0	
18-Apr-2013	sub2317	2317	  1	  1	122	  5	  2	  2	  6	  5	  1	  2	  1	0.49728	  1	0.70000	  0	 22	 60	 61	  1	
18-Apr-2013	sub2317	2317	  1	  1	123	  5	  2	  6	  4	  6	  1	  1	  0	0.46591	  0	0.70000	  0	 26	 85	 86	  1	
18-Apr-2013	sub2317	2317	  1	  1	124	  5	  2	  4	  3	  6	  1	  2	  1	0.51445	  1	0.70000	  0	 24	 62	 63	  0	
18-Apr-2013	sub2317	2317	  1	  1	125	  5	  2	  4	  3	  6	  1	  2	  1	0.46429	  1	0.70000	  0	 24	 62	 63	  1	
18-Apr-2013	sub2317	2317	  1	  1	126	  5	  2	  5	  2	  5	  0	  2	  1	0.52432	  0	0.70000	  0	 25	 87	 68	  0	
18-Apr-2013	sub2317	2317	  1	  1	127	  5	  2	  4	  3	  6	  1	  2	  1	0.41843	  1	0.70000	  0	 24	 62	 63	  1	
18-Apr-2013	sub2317	2317	  1	  1	128	  5	  2	  2	  6	  5	  1	  2	  1	0.53559	  1	0.70000	  0	 22	 60	 61	  0	
18-Apr-2013	sub2317	2317	  1	  1	129	  5	  2	  6	  4	  6	  0	  1	  1	0.50979	  0	0.70000	  0	 26	 87	 68	  0	
18-Apr-2013	sub2317	2317	  1	  1	130	  5	  2	  1	  1	  4	  1	  1	  1	0.52564	  1	0.70000	  0	 21	 60	 61	  0	
18-Apr-2013	sub2317	2317	  1	  1	131	  5	  2	  1	  1	  4	  1	  1	  1	0.50135	  1	0.70000	  0	 21	 60	 61	  0	
18-Apr-2013	sub2317	2317	  1	  1	132	  5	  2	  6	  4	  6	  0	  1	  1	0.47660	  0	0.70000	  0	 26	 87	 68	  1	
18-Apr-2013	sub2317	2317	  1	  1	133	  5	  2	  5	  2	  5	  0	  2	  1	0.56966	  0	0.70000	  0	 25	 87	 68	  0	
18-Apr-2013	sub2317	2317	  1	  1	134	  5	  2	  5	  2	  5	  0	  2	  1	0.44423	  0	0.70000	  0	 25	 87	 68	  1	
18-Apr-2013	sub2317	2317	  1	  1	135	  5	  2	  2	  6	  5	  1	  2	  1	0.68007	  1	0.70000	  0	 22	 60	 61	  0	
18-Apr-2013	sub2317	2317	  1	  1	136	  5	  2	  1	  1	  4	  1	  1	  1	0.52144	  1	0.70000	  0	 21	 60	 61	  0	
18-Apr-2013	sub2317	2317	  1	  1	137	  5	  2	  1	  1	  4	  1	  1	  1	0.38573	  1	0.70000	  0	 21	 60	 61	  1	
18-Apr-2013	sub2317	2317	  1	  1	138	  5	  2	  4	  3	  6	  1	  2	  1	0.43001	  1	0.70000	  0	 24	 62	 63	  1	
18-Apr-2013	sub2317	2317	  1	  1	139	  5	  2	  1	  1	  4	  1	  1	  1	0.46854	  1	0.70000	  0	 21	 60	 61	  1	
18-Apr-2013	sub2317	2317	  1	  1	140	  5	  2	  3	  5	  5	  1	  2	  0	0.38821	  0	0.70000	  0	 23	 82	 83	  1	
18-Apr-2013	sub2317	2317	  1	  1	141	  5	  2	  1	  1	  4	  1	  1	  1	0.50423	  1	0.60000	  0	 21	 60	 61	  0	
18-Apr-2013	sub2317	2317	  1	  1	142	  5	  2	  3	  5	  5	  1	  2	  0	0.46941	  0	0.60000	  0	 23	 82	 83	  1	
18-Apr-2013	sub2317	2317	  1	  1	143	  5	  2	  4	  3	  6	  1	  2	  1	0.54175	  1	0.60000	  0	 24	 62	 63	  0	
18-Apr-2013	sub2317	2317	  1	  1	144	  5	  2	  1	  1	  4	  1	  1	  1	0.43770	  1	0.60000	  0	 21	 60	 61	  1	
18-Apr-2013	sub2317	2317	  1	  1	145	  5	  2	  3	  5	  5	  1	  1	  1	0.42185	  1	0.60000	  0	 23	 62	 63	  1	
18-Apr-2013	sub2317	2317	  1	  1	146	  5	  2	  4	  3	  6	  1	  2	  1	0.51911	  1	0.60000	  0	 24	 62	 63	  0	
18-Apr-2013	sub2317	2317	  1	  1	147	  5	  2	  1	  1	  4	  1	  1	  1	0.36913	  1	0.60000	  0	 21	 60	 61	  1	
18-Apr-2013	sub2317	2317	  1	  1	148	  5	  2	  2	  6	  5	  1	  2	  1	0.63728	  1	0.60000	  1	 22	 60	 51	  0	
18-Apr-2013	sub2317	2317	  1	  1	149	  5	  2	  5	  2	  5	  0	  1	  0	0.39174	  1	0.70000	  0	 25	 67	 88	  1	
18-Apr-2013	sub2317	2317	  1	  1	150	  5	  2	  1	  1	  4	  1	  1	  1	0.39405	  1	0.70000	  0	 21	 60	 61	  1	
18-Apr-2013	sub2317	2317	  1	  1	  1	  6	  1	  3	  3	  3	  1	  1	  1	0.45484	  1	0.60000	  0	 13	 32	 33	  1	
18-Apr-2013	sub2317	2317	  1	  1	  2	  6	  1	  2	  4	  3	  1	  1	  0	0.81860	  0	0.30000	  1	 12	 40	 51	  0	
18-Apr-2013	sub2317	2317	  1	  1	  3	  6	  1	  2	  4	  3	  1	  1	  0	0.35188	  0	0.90000	  0	 12	 40	 41	  1	
18-Apr-2013	sub2317	2317	  1	  1	  4	  6	  1	  3	  3	  3	  1	  1	  1	0.52804	  1	0.90000	  0	 13	 32	 33	  0	
18-Apr-2013	sub2317	2317	  1	  1	  5	  6	  1	  4	  5	  2	  1	  1	  0	0.49986	  0	0.90000	  0	 14	 42	 43	  1	
18-Apr-2013	sub2317	2317	  1	  1	  6	  6	  1	  1	  2	  1	  1	  1	  1	0.45500	  1	0.90000	  0	 11	 30	 31	  1	
18-Apr-2013	sub2317	2317	  1	  1	  7	  6	  1	  2	  4	  3	  1	  1	  0	0.41291	  0	0.90000	  0	 12	 40	 41	  1	
18-Apr-2013	sub2317	2317	  1	  1	  8	  6	  1	  4	  5	  2	  1	  1	  0	0.53110	  0	0.90000	  0	 14	 42	 43	  0	
18-Apr-2013	sub2317	2317	  1	  1	  9	  6	  1	  6	  6	  2	  1	  2	  1	0.64208	  1	0.90000	  0	 16	 35	 36	  0	
18-Apr-2013	sub2317	2317	  1	  1	 10	  6	  1	  4	  5	  2	  0	  1	  1	0.66625	  0	0.90000	  0	 14	 44	 39	  0	
18-Apr-2013	sub2317	2317	  1	  1	 11	  6	  1	  1	  2	  1	  1	  2	  0	0.87843	  0	0.90000	  0	 11	 40	 41	  0	
18-Apr-2013	sub2317	2317	  1	  1	 12	  6	  1	  5	  1	  5	  0	  1	  0	0.52072	  1	0.90000	  0	 15	 37	 48	  0	
18-Apr-2013	sub2317	2317	  1	  1	 13	  6	  1	  3	  3	  3	  1	  1	  1	0.51091	  1	0.90000	  0	 13	 32	 33	  0	
18-Apr-2013	sub2317	2317	  1	  1	 14	  6	  1	  3	  3	  3	  1	  1	  1	0.72030	  1	0.90000	  0	 13	 32	 33	  0	
18-Apr-2013	sub2317	2317	  1	  1	 15	  6	  1	  2	  4	  3	  1	  2	  1	0.57615	  1	0.90000	  0	 12	 30	 31	  0	
18-Apr-2013	sub2317	2317	  1	  1	 16	  6	  1	  2	  4	  3	  1	  2	  1	0.50018	  1	0.80000	  0	 12	 30	 31	  1	
18-Apr-2013	sub2317	2317	  1	  1	 17	  6	  1	  6	  6	  2	  0	  2	  0	0.62429	  1	0.80000	  0	 16	 37	 48	  0	
18-Apr-2013	sub2317	2317	  1	  1	 18	  6	  1	  5	  1	  5	  1	  1	  1	0.46371	  1	0.70000	  0	 15	 35	 36	  1	
18-Apr-2013	sub2317	2317	  1	  1	 19	  6	  1	  3	  3	  3	  1	  1	  1	0.58661	  1	0.70000	  0	 13	 32	 33	  0	
18-Apr-2013	sub2317	2317	  1	  1	 20	  6	  1	  2	  4	  3	  1	  2	  1	0.75040	  1	0.70000	  1	 12	 30	 51	  0	
18-Apr-2013	sub2317	2317	  1	  1	 21	  6	  1	  1	  2	  1	  1	  2	  0	0.63760	  0	0.90000	  0	 11	 40	 41	  0	
18-Apr-2013	sub2317	2317	  1	  1	 22	  6	  1	  4	  5	  2	  1	  1	  0	0.41946	  0	0.90000	  0	 14	 42	 43	  1	
18-Apr-2013	sub2317	2317	  1	  1	 23	  6	  1	  3	  3	  3	  1	  1	  1	0.41058	  1	0.90000	  0	 13	 32	 33	  1	
18-Apr-2013	sub2317	2317	  1	  1	 24	  6	  1	  6	  6	  2	  1	  1	  0	0.43827	  0	0.90000	  0	 16	 45	 46	  1	
18-Apr-2013	sub2317	2317	  1	  1	 25	  6	  1	  5	  1	  5	  0	  1	  0	0.53915	  1	0.90000	  0	 15	 37	 48	  0	
18-Apr-2013	sub2317	2317	  1	  1	 26	  6	  1	  3	  3	  3	  1	  1	  1	0.48412	  1	0.90000	  0	 13	 32	 33	  1	
18-Apr-2013	sub2317	2317	  1	  1	 27	  6	  1	  1	  2	  1	  1	  1	  1	0.51086	  1	0.90000	  0	 11	 30	 31	  0	
18-Apr-2013	sub2317	2317	  1	  1	 28	  6	  1	  4	  5	  2	  1	  1	  0	0.71422	  0	0.90000	  0	 14	 42	 43	  0	
18-Apr-2013	sub2317	2317	  1	  1	 29	  6	  1	  2	  4	  3	  1	  2	  1	0.70166	  1	0.90000	  0	 12	 30	 31	  0	
18-Apr-2013	sub2317	2317	  1	  1	 30	  6	  1	  3	  3	  3	  0	  1	  0	0.42617	  1	0.80000	  0	 13	 34	 49	  1	
18-Apr-2013	sub2317	2317	  1	  1	 31	  6	  1	  5	  1	  5	  1	  2	  0	0.70645	  0	0.80000	  0	 15	 45	 46	  0	
18-Apr-2013	sub2317	2317	  1	  1	 32	  6	  1	  3	  3	  3	  0	  1	  0	0.52546	  1	0.80000	  0	 13	 34	 49	  0	
18-Apr-2013	sub2317	2317	  1	  1	 33	  6	  1	  6	  6	  2	  0	  2	  0	1.70726	  1	0.80000	  1	 16	 37	 51	  0	
18-Apr-2013	sub2317	2317	  1	  1	 34	  6	  1	  4	  5	  2	  1	  1	  0	0.60057	  0	0.90000	  0	 14	 42	 43	  0	
18-Apr-2013	sub2317	2317	  1	  1	 35	  6	  1	  5	  1	  5	  0	  1	  0	0.85682	  1	0.90000	  0	 15	 37	 48	  0	
18-Apr-2013	sub2317	2317	  1	  1	 36	  6	  1	  5	  1	  5	  1	  1	  1	0.42296	  1	0.90000	  0	 15	 35	 36	  1	
18-Apr-2013	sub2317	2317	  1	  1	 37	  6	  1	  6	  6	  2	  0	  2	  0	0.53084	  1	0.90000	  0	 16	 37	 48	  0	
18-Apr-2013	sub2317	2317	  1	  1	 38	  6	  1	  5	  1	  5	  1	  1	  1	0.64441	  1	0.90000	  0	 15	 35	 36	  0	
18-Apr-2013	sub2317	2317	  1	  1	 39	  6	  1	  4	  5	  2	  1	  2	  1	0.62198	  1	0.90000	  0	 14	 32	 33	  0	
18-Apr-2013	sub2317	2317	  1	  1	 40	  6	  1	  4	  5	  2	  1	  2	  1	0.59886	  1	0.90000	  0	 14	 32	 33	  0	
18-Apr-2013	sub2317	2317	  1	  1	 41	  6	  1	  2	  4	  3	  1	  2	  1	0.39438	  1	0.90000	  0	 12	 30	 31	  1	
18-Apr-2013	sub2317	2317	  1	  1	 42	  6	  1	  5	  1	  5	  1	  1	  1	0.70412	  1	0.90000	  0	 15	 35	 36	  0	
18-Apr-2013	sub2317	2317	  1	  1	 43	  6	  1	  6	  6	  2	  1	  2	  1	0.46997	  1	0.90000	  0	 16	 35	 36	  1	
18-Apr-2013	sub2317	2317	  1	  1	 44	  6	  1	  3	  3	  3	  1	  2	  0	0.42481	  0	0.80000	  0	 13	 42	 43	  1	
18-Apr-2013	sub2317	2317	  1	  1	 45	  6	  1	  2	  4	  3	  1	  1	  0	0.52512	  0	0.80000	  0	 12	 40	 41	  0	
18-Apr-2013	sub2317	2317	  1	  1	 46	  6	  1	  6	  6	  2	  1	  2	  1	0.66792	  1	0.80000	  0	 16	 35	 36	  0	
18-Apr-2013	sub2317	2317	  1	  1	 47	  6	  1	  1	  2	  1	  1	  1	  1	0.56215	  1	0.80000	  0	 11	 30	 31	  0	
18-Apr-2013	sub2317	2317	  1	  1	 48	  6	  1	  4	  5	  2	  1	  2	  1	0.62152	  1	0.80000	  0	 14	 32	 33	  0	
18-Apr-2013	sub2317	2317	  1	  1	 49	  6	  1	  1	  2	  1	  1	  1	  1	0.65060	  1	0.80000	  0	 11	 30	 31	  0	
18-Apr-2013	sub2317	2317	  1	  1	 50	  6	  1	  5	  1	  5	  0	  1	  0	0.51305	  1	0.80000	  0	 15	 37	 48	  0	
18-Apr-2013	sub2317	2317	  1	  1	 51	  6	  1	  6	  6	  2	  0	  2	  0	0.61062	  1	0.70000	  0	 16	 37	 48	  0	
18-Apr-2013	sub2317	2317	  1	  1	 52	  6	  1	  2	  4	  3	  1	  2	  1	0.49253	  1	0.70000	  0	 12	 30	 31	  1	
18-Apr-2013	sub2317	2317	  1	  1	 53	  6	  1	  4	  5	  2	  0	  2	  0	0.58905	  1	0.70000	  0	 14	 34	 49	  0	
18-Apr-2013	sub2317	2317	  1	  1	 54	  6	  1	  3	  3	  3	  1	  1	  1	0.48975	  1	0.70000	  0	 13	 32	 33	  1	
18-Apr-2013	sub2317	2317	  1	  1	 55	  6	  1	  6	  6	  2	  0	  2	  0	0.55226	  1	0.70000	  0	 16	 37	 48	  0	
18-Apr-2013	sub2317	2317	  1	  1	 56	  6	  1	  5	  1	  5	  1	  1	  1	0.47176	  1	0.70000	  0	 15	 35	 36	  1	
18-Apr-2013	sub2317	2317	  1	  1	 57	  6	  1	  2	  4	  3	  1	  2	  1	0.50426	  1	0.70000	  0	 12	 30	 31	  0	
18-Apr-2013	sub2317	2317	  1	  1	 58	  6	  1	  3	  3	  3	  1	  1	  1	0.49333	  1	0.70000	  0	 13	 32	 33	  1	
18-Apr-2013	sub2317	2317	  1	  1	 59	  6	  1	  6	  6	  2	  0	  2	  0	0.60675	  1	0.70000	  0	 16	 37	 48	  0	
18-Apr-2013	sub2317	2317	  1	  1	 60	  6	  1	  1	  2	  1	  1	  1	  1	0.58572	  1	0.70000	  0	 11	 30	 31	  0	
18-Apr-2013	sub2317	2317	  1	  1	 61	  6	  1	  6	  6	  2	  1	  2	  1	0.54249	  1	0.60000	  0	 16	 35	 36	  0	
18-Apr-2013	sub2317	2317	  1	  1	 62	  6	  1	  1	  2	  1	  1	  1	  1	0.56617	  1	0.60000	  0	 11	 30	 31	  0	
18-Apr-2013	sub2317	2317	  1	  1	 63	  6	  1	  4	  5	  2	  1	  2	  1	0.50470	  1	0.60000	  0	 14	 32	 33	  0	
18-Apr-2013	sub2317	2317	  1	  1	 64	  6	  1	  1	  2	  1	  1	  1	  1	0.70550	  1	0.60000	  1	 11	 30	 51	  0	
18-Apr-2013	sub2317	2317	  1	  1	 65	  6	  1	  3	  3	  3	  0	  1	  0	0.47200	  1	0.80000	  0	 13	 34	 49	  1	
18-Apr-2013	sub2317	2317	  1	  1	 66	  6	  1	  1	  2	  1	  1	  1	  1	0.43053	  1	0.80000	  0	 11	 30	 31	  1	
18-Apr-2013	sub2317	2317	  1	  1	 67	  6	  1	  6	  6	  2	  1	  2	  1	0.50922	  1	0.80000	  0	 16	 35	 36	  0	
18-Apr-2013	sub2317	2317	  1	  1	 68	  6	  1	  4	  5	  2	  1	  2	  1	0.57044	  1	0.70000	  0	 14	 32	 33	  0	
18-Apr-2013	sub2317	2317	  1	  1	 69	  6	  1	  5	  1	  5	  0	  1	  0	0.58876	  1	0.70000	  0	 15	 37	 48	  0	
18-Apr-2013	sub2317	2317	  1	  1	 70	  6	  1	  1	  2	  1	  1	  1	  1	0.82640	  1	0.70000	  1	 11	 30	 51	  0	
18-Apr-2013	sub2317	2317	  1	  1	 71	  6	  1	  6	  6	  2	  0	  2	  0	0.55176	  1	0.90000	  0	 16	 37	 48	  0	
18-Apr-2013	sub2317	2317	  1	  1	 72	  6	  1	  2	  4	  3	  1	  2	  1	0.58009	  1	0.90000	  0	 12	 30	 31	  0	
18-Apr-2013	sub2317	2317	  1	  1	 73	  6	  1	  1	  2	  1	  1	  1	  1	0.51971	  1	0.80000	  0	 11	 30	 31	  0	
18-Apr-2013	sub2317	2317	  1	  1	 74	  6	  1	  2	  4	  3	  1	  2	  1	0.56128	  1	0.80000	  0	 12	 30	 31	  0	
18-Apr-2013	sub2317	2317	  1	  1	 75	  6	  1	  5	  1	  5	  1	  1	  1	0.51742	  1	0.80000	  0	 15	 35	 36	  0	
18-Apr-2013	sub2317	2317	  1	  1	 76	  6	  2	  2	  4	  3	  1	  2	  1	0.48435	  1	0.80000	  0	 22	 60	 61	  1	
18-Apr-2013	sub2317	2317	  1	  1	 77	  6	  2	  5	  1	  5	  0	  1	  0	0.50204	  1	0.80000	  0	 25	 67	 88	  0	
18-Apr-2013	sub2317	2317	  1	  1	 78	  6	  2	  2	  4	  3	  1	  2	  1	0.50863	  1	0.80000	  0	 22	 60	 61	  0	
18-Apr-2013	sub2317	2317	  1	  1	 79	  6	  2	  4	  5	  2	  1	  2	  1	0.67694	  1	0.80000	  0	 24	 62	 63	  0	
18-Apr-2013	sub2317	2317	  1	  1	 80	  6	  2	  1	  2	  1	  1	  1	  1	0.38360	  1	0.80000	  0	 21	 60	 61	  1	
18-Apr-2013	sub2317	2317	  1	  1	 81	  6	  2	  4	  5	  2	  1	  2	  1	0.40878	  1	0.80000	  0	 24	 62	 63	  1	
18-Apr-2013	sub2317	2317	  1	  1	 82	  6	  2	  1	  2	  1	  1	  1	  1	0.41134	  1	0.80000	  0	 21	 60	 61	  1	
18-Apr-2013	sub2317	2317	  1	  1	 83	  6	  2	  4	  5	  2	  1	  2	  1	0.55211	  1	0.80000	  0	 24	 62	 63	  0	
18-Apr-2013	sub2317	2317	  1	  1	 84	  6	  2	  6	  6	  2	  0	  2	  0	0.54962	  1	0.80000	  0	 26	 67	 88	  0	
18-Apr-2013	sub2317	2317	  1	  1	 85	  6	  2	  6	  6	  2	  1	  2	  1	0.62731	  1	0.70000	  0	 26	 65	 66	  0	
18-Apr-2013	sub2317	2317	  1	  1	 86	  6	  2	  4	  5	  2	  1	  2	  1	0.56455	  1	0.70000	  0	 24	 62	 63	  0	
18-Apr-2013	sub2317	2317	  1	  1	 87	  6	  2	  2	  4	  3	  1	  2	  1	0.53343	  1	0.70000	  0	 22	 60	 61	  0	
18-Apr-2013	sub2317	2317	  1	  1	 88	  6	  2	  4	  5	  2	  1	  2	  1	0.49774	  1	0.70000	  0	 24	 62	 63	  1	
18-Apr-2013	sub2317	2317	  1	  1	 89	  6	  2	  5	  1	  5	  0	  2	  1	0.40971	  0	0.70000	  0	 25	 87	 68	  1	
18-Apr-2013	sub2317	2317	  1	  1	 90	  6	  2	  3	  3	  3	  1	  1	  1	0.43888	  1	0.70000	  0	 23	 62	 63	  1	
18-Apr-2013	sub2317	2317	  1	  1	 91	  6	  2	  4	  5	  2	  1	  2	  1	0.54970	  1	0.70000	  0	 24	 62	 63	  0	
18-Apr-2013	sub2317	2317	  1	  1	 92	  6	  2	  1	  2	  1	  1	  1	  1	0.54898	  1	0.70000	  0	 21	 60	 61	  0	
18-Apr-2013	sub2317	2317	  1	  1	 93	  6	  2	  3	  3	  3	  0	  1	  0	0.52586	  1	0.70000	  0	 23	 64	 89	  0	
18-Apr-2013	sub2317	2317	  1	  1	 94	  6	  2	  1	  2	  1	  1	  1	  1	0.57016	  1	0.70000	  0	 21	 60	 61	  0	
18-Apr-2013	sub2317	2317	  1	  1	 95	  6	  2	  1	  2	  1	  1	  1	  1	0.52118	  1	0.70000	  0	 21	 60	 61	  0	
18-Apr-2013	sub2317	2317	  1	  1	 96	  6	  2	  1	  2	  1	  1	  1	  1	0.46890	  1	0.70000	  0	 21	 60	 61	  1	
18-Apr-2013	sub2317	2317	  1	  1	 97	  6	  2	  3	  3	  3	  1	  1	  1	0.43812	  1	0.70000	  0	 23	 62	 63	  1	
18-Apr-2013	sub2317	2317	  1	  1	 98	  6	  2	  4	  5	  2	  0	  1	  1	0.52179	  0	0.70000	  0	 24	 84	 69	  0	
18-Apr-2013	sub2317	2317	  1	  1	 99	  6	  2	  6	  6	  2	  0	  2	  0	0.59339	  1	0.70000	  0	 26	 67	 88	  0	
18-Apr-2013	sub2317	2317	  1	  1	100	  6	  2	  5	  1	  5	  0	  1	  0	0.45820	  1	0.70000	  0	 25	 67	 88	  1	
18-Apr-2013	sub2317	2317	  1	  1	101	  6	  2	  2	  4	  3	  1	  2	  1	0.55810	  1	0.60000	  0	 22	 60	 61	  0	
18-Apr-2013	sub2317	2317	  1	  1	102	  6	  2	  1	  2	  1	  1	  1	  1	0.51322	  1	0.60000	  0	 21	 60	 61	  0	
18-Apr-2013	sub2317	2317	  1	  1	103	  6	  2	  6	  6	  2	  1	  2	  1	0.54344	  1	0.60000	  0	 26	 65	 66	  0	
18-Apr-2013	sub2317	2317	  1	  1	104	  6	  2	  6	  6	  2	  1	  2	  1	0.51039	  1	0.60000	  0	 26	 65	 66	  0	
18-Apr-2013	sub2317	2317	  1	  1	105	  6	  2	  1	  2	  1	  1	  1	  1	0.64883	  1	0.60000	  1	 21	 60	 51	  0	
18-Apr-2013	sub2317	2317	  1	  1	106	  6	  2	  5	  1	  5	  0	  1	  0	0.54689	  1	0.70000	  0	 25	 67	 88	  0	
18-Apr-2013	sub2317	2317	  1	  1	107	  6	  2	  5	  1	  5	  0	  1	  0	0.47463	  1	0.70000	  0	 25	 67	 88	  1	
18-Apr-2013	sub2317	2317	  1	  1	108	  6	  2	  3	  3	  3	  1	  2	  0	0.43732	  0	0.70000	  0	 23	 82	 83	  1	
18-Apr-2013	sub2317	2317	  1	  1	109	  6	  2	  6	  6	  2	  0	  2	  0	0.56584	  1	0.70000	  0	 26	 67	 88	  0	
18-Apr-2013	sub2317	2317	  1	  1	110	  6	  2	  5	  1	  5	  0	  1	  0	0.64227	  1	0.70000	  0	 25	 67	 88	  0	
18-Apr-2013	sub2317	2317	  1	  1	111	  6	  2	  3	  3	  3	  0	  1	  0	0.48850	  1	0.70000	  0	 23	 64	 89	  1	
18-Apr-2013	sub2317	2317	  1	  1	112	  6	  2	  5	  1	  5	  0	  1	  0	0.70892	  1	0.70000	  1	 25	 67	 51	  0	
18-Apr-2013	sub2317	2317	  1	  1	113	  6	  2	  3	  3	  3	  1	  1	  1	0.54585	  1	0.80000	  0	 23	 62	 63	  0	
18-Apr-2013	sub2317	2317	  1	  1	114	  6	  2	  6	  6	  2	  1	  2	  1	0.50215	  1	0.80000	  0	 26	 65	 66	  0	
18-Apr-2013	sub2317	2317	  1	  1	115	  6	  2	  5	  1	  5	  0	  1	  0	0.56014	  1	0.80000	  0	 25	 67	 88	  0	
18-Apr-2013	sub2317	2317	  1	  1	116	  6	  2	  2	  4	  3	  1	  2	  1	0.56810	  1	0.80000	  0	 22	 60	 61	  0	
18-Apr-2013	sub2317	2317	  1	  1	117	  6	  2	  4	  5	  2	  0	  2	  0	0.65029	  1	0.80000	  0	 24	 64	 89	  0	
18-Apr-2013	sub2317	2317	  1	  1	118	  6	  2	  2	  4	  3	  1	  2	  1	0.55497	  1	0.70000	  0	 22	 60	 61	  0	
18-Apr-2013	sub2317	2317	  1	  1	119	  6	  2	  6	  6	  2	  0	  2	  0	0.44200	  1	0.70000	  0	 26	 67	 88	  1	
18-Apr-2013	sub2317	2317	  1	  1	120	  6	  2	  6	  6	  2	  0	  2	  0	0.51766	  1	0.70000	  0	 26	 67	 88	  0	
18-Apr-2013	sub2317	2317	  1	  1	121	  6	  2	  4	  5	  2	  1	  2	  1	0.61150	  1	0.70000	  0	 24	 62	 63	  0	
18-Apr-2013	sub2317	2317	  1	  1	122	  6	  2	  3	  3	  3	  1	  1	  1	0.53173	  1	0.70000	  0	 23	 62	 63	  0	
18-Apr-2013	sub2317	2317	  1	  1	123	  6	  2	  5	  1	  5	  0	  1	  0	0.55725	  1	0.70000	  0	 25	 67	 88	  0	
18-Apr-2013	sub2317	2317	  1	  1	124	  6	  2	  1	  2	  1	  1	  1	  1	0.52939	  1	0.70000	  0	 21	 60	 61	  0	
18-Apr-2013	sub2317	2317	  1	  1	125	  6	  2	  4	  5	  2	  1	  2	  1	0.51330	  1	0.70000	  0	 24	 62	 63	  0	
18-Apr-2013	sub2317	2317	  1	  1	126	  6	  2	  6	  6	  2	  1	  1	  0	0.52481	  0	0.70000	  0	 26	 85	 86	  0	
18-Apr-2013	sub2317	2317	  1	  1	127	  6	  2	  2	  4	  3	  1	  2	  1	0.54989	  1	0.70000	  0	 22	 60	 61	  0	
18-Apr-2013	sub2317	2317	  1	  1	128	  6	  2	  3	  3	  3	  1	  1	  1	0.56198	  1	0.70000	  0	 23	 62	 63	  0	
18-Apr-2013	sub2317	2317	  1	  1	129	  6	  2	  5	  1	  5	  0	  2	  1	0.74371	  0	0.70000	  1	 25	 87	 51	  0	
18-Apr-2013	sub2317	2317	  1	  1	130	  6	  2	  4	  5	  2	  0	  2	  0	0.59764	  1	0.80000	  0	 24	 64	 89	  0	
18-Apr-2013	sub2317	2317	  1	  1	131	  6	  2	  2	  4	  3	  1	  2	  1	0.50650	  1	0.80000	  0	 22	 60	 61	  0	
18-Apr-2013	sub2317	2317	  1	  1	132	  6	  2	  3	  3	  3	  1	  1	  1	0.49372	  1	0.80000	  0	 23	 62	 63	  1	
18-Apr-2013	sub2317	2317	  1	  1	133	  6	  2	  6	  6	  2	  1	  2	  1	0.47828	  1	0.80000	  0	 26	 65	 66	  1	
18-Apr-2013	sub2317	2317	  1	  1	134	  6	  2	  5	  1	  5	  0	  2	  1	0.91778	  0	0.80000	  1	 25	 87	 51	  0	
18-Apr-2013	sub2317	2317	  1	  1	135	  6	  2	  1	  2	  1	  1	  1	  1	0.51116	  1	0.80000	  0	 21	 60	 61	  0	
18-Apr-2013	sub2317	2317	  1	  1	136	  6	  2	  2	  4	  3	  1	  2	  1	0.59314	  1	0.80000	  0	 22	 60	 61	  0	
18-Apr-2013	sub2317	2317	  1	  1	137	  6	  2	  2	  4	  3	  1	  2	  1	0.46760	  1	0.80000	  0	 22	 60	 61	  1	
18-Apr-2013	sub2317	2317	  1	  1	138	  6	  2	  2	  4	  3	  1	  2	  1	0.46299	  1	0.80000	  0	 22	 60	 61	  1	
18-Apr-2013	sub2317	2317	  1	  1	139	  6	  2	  3	  3	  3	  1	  1	  1	0.48738	  1	0.80000	  0	 23	 62	 63	  1	
18-Apr-2013	sub2317	2317	  1	  1	140	  6	  2	  1	  2	  1	  1	  1	  1	0.42403	  1	0.80000	  0	 21	 60	 61	  1	
18-Apr-2013	sub2317	2317	  1	  1	141	  6	  2	  4	  5	  2	  1	  2	  1	0.53091	  1	0.80000	  0	 24	 62	 63	  0	
18-Apr-2013	sub2317	2317	  1	  1	142	  6	  2	  5	  1	  5	  0	  1	  0	0.51878	  1	0.80000	  0	 25	 67	 88	  0	
18-Apr-2013	sub2317	2317	  1	  1	143	  6	  2	  1	  2	  1	  1	  1	  1	0.53486	  1	0.80000	  0	 21	 60	 61	  0	
18-Apr-2013	sub2317	2317	  1	  1	144	  6	  2	  2	  4	  3	  1	  2	  1	0.50720	  1	0.80000	  0	 22	 60	 61	  0	
18-Apr-2013	sub2317	2317	  1	  1	145	  6	  2	  6	  6	  2	  0	  2	  0	0.59853	  1	0.80000	  0	 26	 67	 88	  0	
18-Apr-2013	sub2317	2317	  1	  1	146	  6	  2	  3	  3	  3	  1	  1	  1	0.56184	  1	0.80000	  0	 23	 62	 63	  0	
18-Apr-2013	sub2317	2317	  1	  1	147	  6	  2	  5	  1	  5	  0	  2	  1	0.56437	  0	0.80000	  0	 25	 87	 68	  0	
18-Apr-2013	sub2317	2317	  1	  1	148	  6	  2	  1	  2	  1	  1	  1	  1	0.47056	  1	0.80000	  0	 21	 60	 61	  1	
18-Apr-2013	sub2317	2317	  1	  1	149	  6	  2	  3	  3	  3	  1	  1	  1	0.56090	  1	0.80000	  0	 23	 62	 63	  0	
18-Apr-2013	sub2317	2317	  1	  1	150	  6	  2	  4	  5	  2	  1	  2	  1	0.42854	  1	0.80000	  0	 24	 62	 63	  1	
