Date 	 Name 	 ID 	 Gender 	 Appearance 	 Trial 	 Block 	 Bin 	 Condition 	 Category 	 Number 	 Valid 	 Keypress 	 Correct 	 RT 	 Realcorrect 	 Deadline 	 Timeout 	 Stimtrigger 	 Resptrigger 	 Fedtrigger 	 WithinTime 	 
19-Apr-2013	sub2318	2318	  2	  1	  1	  1	  1	  3	  6	  6	  1	  1	  1	30.03626	  1	0.60000	  1	 13	 32	 51	  0	
19-Apr-2013	sub2318	2318	  2	  1	  2	  1	  1	  5	  5	  6	  1	  1	  1	0.64511	  1	0.90000	  0	 15	 35	 36	  0	
19-Apr-2013	sub2318	2318	  2	  1	  3	  1	  1	  1	  1	  1	  1	  1	  1	0.31664	  1	0.90000	  0	 11	 30	 31	  1	
19-Apr-2013	sub2318	2318	  2	  1	  4	  1	  1	  5	  5	  6	  0	  1	  0	0.25078	  1	0.90000	  0	 15	 37	 48	  1	
19-Apr-2013	sub2318	2318	  2	  1	  5	  1	  1	  2	  2	  2	  1	  1	  0	0.38698	  0	0.90000	  0	 12	 40	 41	  1	
19-Apr-2013	sub2318	2318	  2	  1	  6	  1	  1	  4	  4	  1	  1	  1	  0	0.37236	  0	0.90000	  0	 14	 42	 43	  1	
19-Apr-2013	sub2318	2318	  2	  1	  7	  1	  1	  6	  3	  1	  0	  1	  1	0.28668	  0	0.90000	  0	 16	 47	 38	  1	
19-Apr-2013	sub2318	2318	  2	  1	  8	  1	  1	  3	  6	  6	  1	  1	  1	0.34309	  1	0.90000	  0	 13	 32	 33	  1	
19-Apr-2013	sub2318	2318	  2	  1	  9	  1	  1	  1	  1	  1	  1	  1	  1	0.28298	  1	0.90000	  0	 11	 30	 31	  1	
19-Apr-2013	sub2318	2318	  2	  1	 10	  1	  1	  2	  2	  2	  1	  1	  0	0.33988	  0	0.90000	  0	 12	 40	 41	  1	
19-Apr-2013	sub2318	2318	  2	  1	 11	  1	  1	  6	  3	  1	  0	  1	  1	0.39849	  0	0.90000	  0	 16	 47	 38	  1	
19-Apr-2013	sub2318	2318	  2	  1	 12	  1	  1	  1	  1	  1	  1	  1	  1	0.36022	  1	0.90000	  0	 11	 30	 31	  1	
19-Apr-2013	sub2318	2318	  2	  1	 13	  1	  1	  4	  4	  1	  1	  1	  0	0.36097	  0	0.90000	  0	 14	 42	 43	  1	
19-Apr-2013	sub2318	2318	  2	  1	 14	  1	  1	  6	  3	  1	  0	  1	  1	0.46797	  0	0.90000	  0	 16	 47	 38	  1	
19-Apr-2013	sub2318	2318	  2	  1	 15	  1	  1	  2	  2	  2	  1	  1	  0	0.37156	  0	0.90000	  0	 12	 40	 41	  1	
19-Apr-2013	sub2318	2318	  2	  1	 16	  1	  1	  4	  4	  1	  0	  1	  1	0.44930	  0	0.80000	  0	 14	 44	 39	  1	
19-Apr-2013	sub2318	2318	  2	  1	 17	  1	  1	  4	  4	  1	  1	  2	  1	0.48966	  1	0.80000	  0	 14	 32	 33	  1	
19-Apr-2013	sub2318	2318	  2	  1	 18	  1	  1	  6	  3	  1	  1	  1	  0	0.34779	  0	0.70000	  0	 16	 45	 46	  1	
19-Apr-2013	sub2318	2318	  2	  1	 19	  1	  1	  1	  1	  1	  1	  1	  1	0.51138	  1	0.70000	  0	 11	 30	 31	  0	
19-Apr-2013	sub2318	2318	  2	  1	 20	  1	  1	  3	  6	  6	  1	  2	  0	0.62732	  0	0.70000	  0	 13	 42	 43	  0	
19-Apr-2013	sub2318	2318	  2	  1	 21	  1	  1	  1	  1	  1	  1	  1	  1	0.39387	  1	0.60000	  0	 11	 30	 31	  1	
19-Apr-2013	sub2318	2318	  2	  1	 22	  1	  1	  1	  1	  1	  1	  1	  1	0.41372	  1	0.60000	  0	 11	 30	 31	  1	
19-Apr-2013	sub2318	2318	  2	  1	 23	  1	  1	  1	  1	  1	  1	  1	  1	0.32937	  1	0.60000	  0	 11	 30	 31	  1	
19-Apr-2013	sub2318	2318	  2	  1	 24	  1	  1	  6	  3	  1	  1	  1	  0	0.43961	  0	0.60000	  0	 16	 45	 46	  1	
19-Apr-2013	sub2318	2318	  2	  1	 25	  1	  1	  3	  6	  6	  0	  1	  0	0.35378	  1	0.60000	  0	 13	 34	 49	  1	
19-Apr-2013	sub2318	2318	  2	  1	 26	  1	  1	  6	  3	  1	  1	  1	  0	0.35654	  0	0.50000	  0	 16	 45	 46	  1	
19-Apr-2013	sub2318	2318	  2	  1	 27	  1	  1	  6	  3	  1	  0	  1	  1	0.33445	  0	0.50000	  0	 16	 47	 38	  1	
19-Apr-2013	sub2318	2318	  2	  1	 28	  1	  1	  5	  5	  6	  1	  1	  1	0.25362	  1	0.50000	  0	 15	 35	 36	  1	
19-Apr-2013	sub2318	2318	  2	  1	 29	  1	  1	  2	  2	  2	  1	  1	  0	0.29232	  0	0.50000	  0	 12	 40	 41	  1	
19-Apr-2013	sub2318	2318	  2	  1	 30	  1	  1	  6	  3	  1	  0	  1	  1	0.42903	  0	0.50000	  0	 16	 47	 38	  1	
19-Apr-2013	sub2318	2318	  2	  1	 31	  1	  1	  1	  1	  1	  1	  1	  1	0.43640	  1	0.50000	  0	 11	 30	 31	  1	
19-Apr-2013	sub2318	2318	  2	  1	 32	  1	  1	  3	  6	  6	  0	  2	  1	0.70916	  0	0.50000	  1	 13	 44	 51	  0	
19-Apr-2013	sub2318	2318	  2	  1	 33	  1	  1	  4	  4	  1	  1	  1	  0	1.42834	  0	0.80000	  1	 14	 42	 51	  0	
19-Apr-2013	sub2318	2318	  2	  1	 34	  1	  1	  5	  5	  6	  1	  1	  1	0.23532	  1	0.90000	  0	 15	 35	 36	  1	
19-Apr-2013	sub2318	2318	  2	  1	 35	  1	  1	  5	  5	  6	  1	  1	  1	0.29994	  1	0.90000	  0	 15	 35	 36	  1	
19-Apr-2013	sub2318	2318	  2	  1	 36	  1	  1	  2	  2	  2	  1	  1	  0	0.27867	  0	0.90000	  0	 12	 40	 41	  1	
19-Apr-2013	sub2318	2318	  2	  1	 37	  1	  1	  5	  5	  6	  1	  2	  0	0.45171	  0	0.90000	  0	 15	 45	 46	  1	
19-Apr-2013	sub2318	2318	  2	  1	 38	  1	  1	  6	  3	  1	  0	  1	  1	0.37210	  0	0.90000	  0	 16	 47	 38	  1	
19-Apr-2013	sub2318	2318	  2	  1	 39	  1	  1	  2	  2	  2	  1	  1	  0	0.42551	  0	0.90000	  0	 12	 40	 41	  1	
19-Apr-2013	sub2318	2318	  2	  1	 40	  1	  1	  4	  4	  1	  0	  1	  1	0.63404	  0	0.90000	  0	 14	 44	 39	  0	
19-Apr-2013	sub2318	2318	  2	  1	 41	  1	  1	  5	  5	  6	  0	  1	  0	0.48711	  1	0.90000	  0	 15	 37	 48	  1	
19-Apr-2013	sub2318	2318	  2	  1	 42	  1	  1	  2	  2	  2	  1	  2	  1	0.46269	  1	0.90000	  0	 12	 30	 31	  1	
19-Apr-2013	sub2318	2318	  2	  1	 43	  1	  1	  5	  5	  6	  0	  2	  1	0.34581	  0	0.90000	  0	 15	 47	 38	  1	
19-Apr-2013	sub2318	2318	  2	  1	 44	  1	  1	  4	  4	  1	  1	  2	  1	0.49330	  1	0.80000	  0	 14	 32	 33	  1	
19-Apr-2013	sub2318	2318	  2	  1	 45	  1	  1	  3	  6	  6	  1	  1	  1	0.36873	  1	0.80000	  0	 13	 32	 33	  1	
19-Apr-2013	sub2318	2318	  2	  1	 46	  1	  1	  2	  2	  2	  1	  2	  1	0.43306	  1	0.80000	  0	 12	 30	 31	  1	
19-Apr-2013	sub2318	2318	  2	  1	 47	  1	  1	  4	  4	  1	  1	  2	  1	0.52145	  1	0.80000	  0	 14	 32	 33	  0	
19-Apr-2013	sub2318	2318	  2	  1	 48	  1	  1	  1	  1	  1	  1	  1	  1	0.49840	  1	0.80000	  0	 11	 30	 31	  1	
19-Apr-2013	sub2318	2318	  2	  1	 49	  1	  1	  6	  3	  1	  1	  1	  0	0.43227	  0	0.80000	  0	 16	 45	 46	  1	
19-Apr-2013	sub2318	2318	  2	  1	 50	  1	  1	  3	  6	  6	  0	  1	  0	0.37442	  1	0.80000	  0	 13	 34	 49	  1	
19-Apr-2013	sub2318	2318	  2	  1	 51	  1	  1	  1	  1	  1	  1	  1	  1	0.41476	  1	0.70000	  0	 11	 30	 31	  1	
19-Apr-2013	sub2318	2318	  2	  1	 52	  1	  1	  3	  6	  6	  1	  1	  1	0.37567	  1	0.70000	  0	 13	 32	 33	  1	
19-Apr-2013	sub2318	2318	  2	  1	 53	  1	  1	  2	  2	  2	  1	  1	  0	0.36121	  0	0.70000	  0	 12	 40	 41	  1	
19-Apr-2013	sub2318	2318	  2	  1	 54	  1	  1	  1	  1	  1	  1	  1	  1	0.38979	  1	0.70000	  0	 11	 30	 31	  1	
19-Apr-2013	sub2318	2318	  2	  1	 55	  1	  1	  1	  1	  1	  1	  1	  1	0.40759	  1	0.70000	  0	 11	 30	 31	  1	
19-Apr-2013	sub2318	2318	  2	  1	 56	  1	  1	  4	  4	  1	  1	  2	  1	0.49974	  1	0.70000	  0	 14	 32	 33	  1	
19-Apr-2013	sub2318	2318	  2	  1	 57	  1	  1	  5	  5	  6	  0	  2	  1	0.35394	  0	0.70000	  0	 15	 47	 38	  1	
19-Apr-2013	sub2318	2318	  2	  1	 58	  1	  1	  6	  3	  1	  1	  1	  0	0.39666	  0	0.70000	  0	 16	 45	 46	  1	
19-Apr-2013	sub2318	2318	  2	  1	 59	  1	  1	  3	  6	  6	  1	  1	  1	0.38730	  1	0.70000	  0	 13	 32	 33	  1	
19-Apr-2013	sub2318	2318	  2	  1	 60	  1	  1	  5	  5	  6	  0	  1	  0	0.48064	  1	0.70000	  0	 15	 37	 48	  1	
19-Apr-2013	sub2318	2318	  2	  1	 61	  1	  1	  5	  5	  6	  1	  2	  0	0.42819	  0	0.60000	  0	 15	 45	 46	  1	
19-Apr-2013	sub2318	2318	  2	  1	 62	  1	  1	  4	  4	  1	  1	  2	  1	0.51613	  1	0.60000	  0	 14	 32	 33	  0	
19-Apr-2013	sub2318	2318	  2	  1	 63	  1	  1	  3	  6	  6	  1	  2	  0	0.46201	  0	0.60000	  0	 13	 42	 43	  1	
19-Apr-2013	sub2318	2318	  2	  1	 64	  1	  1	  2	  2	  2	  1	  1	  0	0.35817	  0	0.60000	  0	 12	 40	 41	  1	
19-Apr-2013	sub2318	2318	  2	  1	 65	  1	  1	  3	  6	  6	  1	  2	  0	0.51265	  0	0.60000	  0	 13	 42	 43	  0	
19-Apr-2013	sub2318	2318	  2	  1	 66	  1	  1	  2	  2	  2	  1	  1	  0	0.36989	  0	0.60000	  0	 12	 40	 41	  1	
19-Apr-2013	sub2318	2318	  2	  1	 67	  1	  1	  3	  6	  6	  1	  2	  0	0.54938	  0	0.60000	  0	 13	 42	 43	  0	
19-Apr-2013	sub2318	2318	  2	  1	 68	  1	  1	  3	  6	  6	  1	  1	  1	0.46833	  1	0.60000	  0	 13	 32	 33	  1	
19-Apr-2013	sub2318	2318	  2	  1	 69	  1	  1	  6	  3	  1	  1	  1	  0	0.35647	  0	0.60000	  0	 16	 45	 46	  1	
19-Apr-2013	sub2318	2318	  2	  1	 70	  1	  1	  2	  2	  2	  1	  1	  0	0.34614	  0	0.60000	  0	 12	 40	 41	  1	
19-Apr-2013	sub2318	2318	  2	  1	 71	  1	  1	  4	  4	  1	  1	  1	  0	0.37596	  0	0.60000	  0	 14	 42	 43	  1	
19-Apr-2013	sub2318	2318	  2	  1	 72	  1	  1	  2	  2	  2	  1	  2	  1	0.52499	  1	0.60000	  0	 12	 30	 31	  0	
19-Apr-2013	sub2318	2318	  2	  1	 73	  1	  1	  6	  3	  1	  1	  2	  1	0.39553	  1	0.60000	  0	 16	 35	 36	  1	
19-Apr-2013	sub2318	2318	  2	  1	 74	  1	  1	  5	  5	  6	  0	  2	  1	0.44194	  0	0.60000	  0	 15	 47	 38	  1	
19-Apr-2013	sub2318	2318	  2	  1	 75	  1	  1	  4	  4	  1	  1	  1	  0	0.31038	  0	0.60000	  0	 14	 42	 43	  1	
19-Apr-2013	sub2318	2318	  2	  1	  1	  2	  1	  4	  4	  4	  1	  1	  0	0.61938	  0	0.60000	  1	 14	 42	 51	  0	
19-Apr-2013	sub2318	2318	  2	  1	  2	  2	  1	  5	  3	  4	  1	  1	  1	0.23317	  1	0.90000	  0	 15	 35	 36	  1	
19-Apr-2013	sub2318	2318	  2	  1	  3	  2	  1	  6	  1	  6	  0	  1	  1	0.29306	  0	0.90000	  0	 16	 47	 38	  1	
19-Apr-2013	sub2318	2318	  2	  1	  4	  2	  1	  5	  3	  4	  1	  1	  1	0.33729	  1	0.90000	  0	 15	 35	 36	  1	
19-Apr-2013	sub2318	2318	  2	  1	  5	  2	  1	  3	  2	  3	  0	  1	  0	0.42396	  1	0.90000	  0	 13	 34	 49	  1	
19-Apr-2013	sub2318	2318	  2	  1	  6	  2	  1	  3	  2	  3	  1	  1	  1	0.30760	  1	0.90000	  0	 13	 32	 33	  1	
19-Apr-2013	sub2318	2318	  2	  1	  7	  2	  1	  3	  2	  3	  1	  2	  0	0.35429	  0	0.90000	  0	 13	 42	 43	  1	
19-Apr-2013	sub2318	2318	  2	  1	  8	  2	  1	  5	  3	  4	  0	  1	  0	0.61433	  1	0.90000	  0	 15	 37	 48	  0	
19-Apr-2013	sub2318	2318	  2	  1	  9	  2	  1	  5	  3	  4	  1	  1	  1	0.35987	  1	0.90000	  0	 15	 35	 36	  1	
19-Apr-2013	sub2318	2318	  2	  1	 10	  2	  1	  4	  4	  4	  1	  2	  1	0.40652	  1	0.90000	  0	 14	 32	 33	  1	
19-Apr-2013	sub2318	2318	  2	  1	 11	  2	  1	  4	  4	  4	  1	  1	  0	0.28466	  0	0.90000	  0	 14	 42	 43	  1	
19-Apr-2013	sub2318	2318	  2	  1	 12	  2	  1	  2	  6	  3	  1	  1	  0	0.38819	  0	0.90000	  0	 12	 40	 41	  1	
19-Apr-2013	sub2318	2318	  2	  1	 13	  2	  1	  1	  5	  3	  1	  2	  0	0.51826	  0	0.90000	  0	 11	 40	 41	  0	
19-Apr-2013	sub2318	2318	  2	  1	 14	  2	  1	  5	  3	  4	  1	  1	  1	0.34392	  1	0.90000	  0	 15	 35	 36	  1	
19-Apr-2013	sub2318	2318	  2	  1	 15	  2	  1	  3	  2	  3	  1	  1	  1	0.50631	  1	0.90000	  0	 13	 32	 33	  0	
19-Apr-2013	sub2318	2318	  2	  1	 16	  2	  1	  5	  3	  4	  0	  1	  0	0.35412	  1	0.80000	  0	 15	 37	 48	  1	
19-Apr-2013	sub2318	2318	  2	  1	 17	  2	  1	  2	  6	  3	  1	  2	  1	0.54117	  1	0.80000	  0	 12	 30	 31	  0	
19-Apr-2013	sub2318	2318	  2	  1	 18	  2	  1	  5	  3	  4	  0	  1	  0	0.32761	  1	0.70000	  0	 15	 37	 48	  1	
19-Apr-2013	sub2318	2318	  2	  1	 19	  2	  1	  1	  5	  3	  1	  2	  0	0.39502	  0	0.70000	  0	 11	 40	 41	  1	
19-Apr-2013	sub2318	2318	  2	  1	 20	  2	  1	  3	  2	  3	  1	  1	  1	0.45073	  1	0.70000	  0	 13	 32	 33	  1	
19-Apr-2013	sub2318	2318	  2	  1	 21	  2	  1	  2	  6	  3	  1	  1	  0	0.35198	  0	0.60000	  0	 12	 40	 41	  1	
19-Apr-2013	sub2318	2318	  2	  1	 22	  2	  1	  4	  4	  4	  1	  1	  0	0.53042	  0	0.60000	  0	 14	 42	 43	  0	
19-Apr-2013	sub2318	2318	  2	  1	 23	  2	  1	  2	  6	  3	  1	  2	  1	0.38234	  1	0.60000	  0	 12	 30	 31	  1	
19-Apr-2013	sub2318	2318	  2	  1	 24	  2	  1	  1	  5	  3	  1	  1	  1	0.46175	  1	0.60000	  0	 11	 30	 31	  1	
19-Apr-2013	sub2318	2318	  2	  1	 25	  2	  1	  6	  1	  6	  0	  1	  1	0.40404	  0	0.60000	  0	 16	 47	 38	  1	
19-Apr-2013	sub2318	2318	  2	  1	 26	  2	  1	  1	  5	  3	  1	  1	  1	0.40749	  1	0.50000	  0	 11	 30	 31	  1	
19-Apr-2013	sub2318	2318	  2	  1	 27	  2	  1	  6	  1	  6	  1	  1	  0	0.37593	  0	0.50000	  0	 16	 45	 46	  1	
19-Apr-2013	sub2318	2318	  2	  1	 28	  2	  1	  4	  4	  4	  1	  1	  0	0.40155	  0	0.50000	  0	 14	 42	 43	  1	
19-Apr-2013	sub2318	2318	  2	  1	 29	  2	  1	  4	  4	  4	  1	  2	  1	0.40711	  1	0.50000	  0	 14	 32	 33	  1	
19-Apr-2013	sub2318	2318	  2	  1	 30	  2	  1	  6	  1	  6	  0	  2	  0	0.31554	  1	0.50000	  0	 16	 37	 48	  1	
19-Apr-2013	sub2318	2318	  2	  1	 31	  2	  1	  2	  6	  3	  1	  1	  0	0.30702	  0	0.50000	  0	 12	 40	 41	  1	
19-Apr-2013	sub2318	2318	  2	  1	 32	  2	  1	  2	  6	  3	  1	  1	  0	0.37244	  0	0.50000	  0	 12	 40	 41	  1	
19-Apr-2013	sub2318	2318	  2	  1	 33	  2	  1	  3	  2	  3	  1	  2	  0	0.55389	  0	0.50000	  1	 13	 42	 51	  0	
19-Apr-2013	sub2318	2318	  2	  1	 34	  2	  1	  4	  4	  4	  1	  1	  0	0.47596	  0	0.80000	  0	 14	 42	 43	  1	
19-Apr-2013	sub2318	2318	  2	  1	 35	  2	  1	  5	  3	  4	  1	  2	  0	0.39429	  0	0.70000	  0	 15	 45	 46	  1	
19-Apr-2013	sub2318	2318	  2	  1	 36	  2	  1	  4	  4	  4	  1	  2	  1	0.51059	  1	0.70000	  0	 14	 32	 33	  0	
19-Apr-2013	sub2318	2318	  2	  1	 37	  2	  1	  1	  5	  3	  1	  1	  1	0.33866	  1	0.70000	  0	 11	 30	 31	  1	
19-Apr-2013	sub2318	2318	  2	  1	 38	  2	  1	  6	  1	  6	  1	  1	  0	0.37470	  0	0.70000	  0	 16	 45	 46	  1	
19-Apr-2013	sub2318	2318	  2	  1	 39	  2	  1	  6	  1	  6	  0	  1	  1	0.34753	  0	0.70000	  0	 16	 47	 38	  1	
19-Apr-2013	sub2318	2318	  2	  1	 40	  2	  1	  3	  2	  3	  0	  2	  1	0.55134	  0	0.70000	  0	 13	 44	 39	  0	
19-Apr-2013	sub2318	2318	  2	  1	 41	  2	  1	  1	  5	  3	  1	  1	  1	0.45870	  1	0.60000	  0	 11	 30	 31	  1	
19-Apr-2013	sub2318	2318	  2	  1	 42	  2	  1	  1	  5	  3	  1	  1	  1	0.44596	  1	0.60000	  0	 11	 30	 31	  1	
19-Apr-2013	sub2318	2318	  2	  1	 43	  2	  1	  3	  2	  3	  0	  1	  0	0.43093	  1	0.60000	  0	 13	 34	 49	  1	
19-Apr-2013	sub2318	2318	  2	  1	 44	  2	  1	  1	  5	  3	  1	  1	  1	0.39249	  1	0.60000	  0	 11	 30	 31	  1	
19-Apr-2013	sub2318	2318	  2	  1	 45	  2	  1	  6	  1	  6	  1	  1	  0	0.46208	  0	0.60000	  0	 16	 45	 46	  1	
19-Apr-2013	sub2318	2318	  2	  1	 46	  2	  1	  4	  4	  4	  0	  1	  1	0.55819	  0	0.60000	  0	 14	 44	 39	  0	
19-Apr-2013	sub2318	2318	  2	  1	 47	  2	  1	  5	  3	  4	  1	  1	  1	0.50376	  1	0.60000	  0	 15	 35	 36	  0	
19-Apr-2013	sub2318	2318	  2	  1	 48	  2	  1	  2	  6	  3	  1	  2	  1	0.50874	  1	0.60000	  0	 12	 30	 31	  0	
19-Apr-2013	sub2318	2318	  2	  1	 49	  2	  1	  1	  5	  3	  1	  1	  1	0.45759	  1	0.60000	  0	 11	 30	 31	  1	
19-Apr-2013	sub2318	2318	  2	  1	 50	  2	  1	  2	  6	  3	  1	  1	  0	0.40468	  0	0.60000	  0	 12	 40	 41	  1	
19-Apr-2013	sub2318	2318	  2	  1	 51	  2	  1	  6	  1	  6	  0	  1	  1	0.38252	  0	0.50000	  0	 16	 47	 38	  1	
19-Apr-2013	sub2318	2318	  2	  1	 52	  2	  1	  1	  5	  3	  1	  1	  1	0.45799	  1	0.50000	  0	 11	 30	 31	  1	
19-Apr-2013	sub2318	2318	  2	  1	 53	  2	  1	  6	  1	  6	  0	  1	  1	0.49051	  0	0.50000	  0	 16	 47	 38	  1	
19-Apr-2013	sub2318	2318	  2	  1	 54	  2	  1	  2	  6	  3	  1	  1	  0	0.39606	  0	0.50000	  0	 12	 40	 41	  1	
19-Apr-2013	sub2318	2318	  2	  1	 55	  2	  1	  3	  2	  3	  1	  1	  1	0.35969	  1	0.50000	  0	 13	 32	 33	  1	
19-Apr-2013	sub2318	2318	  2	  1	 56	  2	  1	  2	  6	  3	  1	  1	  0	0.40816	  0	0.50000	  0	 12	 40	 41	  1	
19-Apr-2013	sub2318	2318	  2	  1	 57	  2	  1	  6	  1	  6	  1	  1	  0	0.45403	  0	0.50000	  0	 16	 45	 46	  1	
19-Apr-2013	sub2318	2318	  2	  1	 58	  2	  1	  5	  3	  4	  1	  1	  1	0.33247	  1	0.50000	  0	 15	 35	 36	  1	
19-Apr-2013	sub2318	2318	  2	  1	 59	  2	  1	  4	  4	  4	  0	  1	  1	0.43001	  0	0.50000	  0	 14	 44	 39	  1	
19-Apr-2013	sub2318	2318	  2	  1	 60	  2	  1	  6	  1	  6	  1	  1	  0	0.37988	  0	0.50000	  0	 16	 45	 46	  1	
19-Apr-2013	sub2318	2318	  2	  1	 61	  2	  1	  4	  4	  4	  1	  2	  1	0.51504	  1	0.50000	  1	 14	 32	 51	  0	
19-Apr-2013	sub2318	2318	  2	  1	 62	  2	  1	  3	  2	  3	  1	  1	  1	0.37870	  1	0.60000	  0	 13	 32	 33	  1	
19-Apr-2013	sub2318	2318	  2	  1	 63	  2	  1	  4	  4	  4	  1	  1	  0	0.39177	  0	0.60000	  0	 14	 42	 43	  1	
19-Apr-2013	sub2318	2318	  2	  1	 64	  2	  1	  5	  3	  4	  0	  1	  0	0.44869	  1	0.60000	  0	 15	 37	 48	  1	
19-Apr-2013	sub2318	2318	  2	  1	 65	  2	  1	  1	  5	  3	  1	  1	  1	0.48065	  1	0.60000	  0	 11	 30	 31	  1	
19-Apr-2013	sub2318	2318	  2	  1	 66	  2	  1	  3	  2	  3	  1	  2	  0	0.59483	  0	0.60000	  0	 13	 42	 43	  0	
19-Apr-2013	sub2318	2318	  2	  1	 67	  2	  1	  5	  3	  4	  0	  1	  0	0.24810	  1	0.60000	  0	 15	 37	 48	  1	
19-Apr-2013	sub2318	2318	  2	  1	 68	  2	  1	  2	  6	  3	  1	  1	  0	0.42141	  0	0.60000	  0	 12	 40	 41	  1	
19-Apr-2013	sub2318	2318	  2	  1	 69	  2	  1	  1	  5	  3	  1	  1	  1	0.35955	  1	0.60000	  0	 11	 30	 31	  1	
19-Apr-2013	sub2318	2318	  2	  1	 70	  2	  1	  6	  1	  6	  0	  1	  1	0.43734	  0	0.60000	  0	 16	 47	 38	  1	
19-Apr-2013	sub2318	2318	  2	  1	 71	  2	  1	  6	  1	  6	  0	  1	  1	0.43683	  0	0.60000	  0	 16	 47	 38	  1	
19-Apr-2013	sub2318	2318	  2	  1	 72	  2	  1	  3	  2	  3	  1	  2	  0	0.46226	  0	0.60000	  0	 13	 42	 43	  1	
19-Apr-2013	sub2318	2318	  2	  1	 73	  2	  1	  2	  6	  3	  1	  1	  0	0.30525	  0	0.60000	  0	 12	 40	 41	  1	
19-Apr-2013	sub2318	2318	  2	  1	 74	  2	  1	  2	  6	  3	  1	  2	  1	0.48680	  1	0.60000	  0	 12	 30	 31	  1	
19-Apr-2013	sub2318	2318	  2	  1	 75	  2	  1	  3	  2	  3	  1	  1	  1	0.42285	  1	0.60000	  0	 13	 32	 33	  1	
19-Apr-2013	sub2318	2318	  2	  1	 76	  2	  2	  1	  5	  3	  1	  1	  1	0.46413	  1	0.50000	  0	 21	 60	 61	  1	
19-Apr-2013	sub2318	2318	  2	  1	 77	  2	  2	  3	  2	  3	  1	  1	  1	0.39309	  1	0.50000	  0	 23	 62	 63	  1	
19-Apr-2013	sub2318	2318	  2	  1	 78	  2	  2	  6	  1	  6	  0	  1	  1	0.48087	  0	0.50000	  0	 26	 87	 68	  1	
19-Apr-2013	sub2318	2318	  2	  1	 79	  2	  2	  4	  4	  4	  0	  1	  1	0.38995	  0	0.50000	  0	 24	 84	 69	  1	
19-Apr-2013	sub2318	2318	  2	  1	 80	  2	  2	  3	  2	  3	  1	  1	  1	0.42126	  1	0.50000	  0	 23	 62	 63	  1	
19-Apr-2013	sub2318	2318	  2	  1	 81	  2	  2	  2	  6	  3	  1	  2	  1	0.55553	  1	0.50000	  1	 22	 60	 51	  0	
19-Apr-2013	sub2318	2318	  2	  1	 82	  2	  2	  3	  2	  3	  0	  1	  0	0.38226	  1	0.60000	  0	 23	 64	 89	  1	
19-Apr-2013	sub2318	2318	  2	  1	 83	  2	  2	  6	  1	  6	  0	  2	  0	0.40581	  1	0.60000	  0	 26	 67	 88	  1	
19-Apr-2013	sub2318	2318	  2	  1	 84	  2	  2	  2	  6	  3	  1	  1	  0	0.36222	  0	0.60000	  0	 22	 80	 81	  1	
19-Apr-2013	sub2318	2318	  2	  1	 85	  2	  2	  1	  5	  3	  1	  1	  1	0.39288	  1	0.60000	  0	 21	 60	 61	  1	
19-Apr-2013	sub2318	2318	  2	  1	 86	  2	  2	  4	  4	  4	  1	  1	  0	0.35501	  0	0.60000	  0	 24	 82	 83	  1	
19-Apr-2013	sub2318	2318	  2	  1	 87	  2	  2	  5	  3	  4	  0	  1	  0	0.47121	  1	0.60000	  0	 25	 67	 88	  1	
19-Apr-2013	sub2318	2318	  2	  1	 88	  2	  2	  1	  5	  3	  1	  1	  1	0.47407	  1	0.60000	  0	 21	 60	 61	  1	
19-Apr-2013	sub2318	2318	  2	  1	 89	  2	  2	  2	  6	  3	  1	  2	  1	0.50527	  1	0.60000	  0	 22	 60	 61	  0	
19-Apr-2013	sub2318	2318	  2	  1	 90	  2	  2	  1	  5	  3	  1	  1	  1	0.40825	  1	0.60000	  0	 21	 60	 61	  1	
19-Apr-2013	sub2318	2318	  2	  1	 91	  2	  2	  5	  3	  4	  0	  1	  0	0.41324	  1	0.60000	  0	 25	 67	 88	  1	
19-Apr-2013	sub2318	2318	  2	  1	 92	  2	  2	  5	  3	  4	  0	  1	  0	0.47966	  1	0.60000	  0	 25	 67	 88	  1	
19-Apr-2013	sub2318	2318	  2	  1	 93	  2	  2	  5	  3	  4	  0	  2	  1	0.46122	  0	0.60000	  0	 25	 87	 68	  1	
19-Apr-2013	sub2318	2318	  2	  1	 94	  2	  2	  6	  1	  6	  0	  1	  1	0.44798	  0	0.60000	  0	 26	 87	 68	  1	
19-Apr-2013	sub2318	2318	  2	  1	 95	  2	  2	  4	  4	  4	  1	  1	  0	0.46912	  0	0.60000	  0	 24	 82	 83	  1	
19-Apr-2013	sub2318	2318	  2	  1	 96	  2	  2	  4	  4	  4	  1	  2	  1	0.40676	  1	0.60000	  0	 24	 62	 63	  1	
19-Apr-2013	sub2318	2318	  2	  1	 97	  2	  2	  6	  1	  6	  1	  1	  0	0.48973	  0	0.60000	  0	 26	 85	 86	  1	
19-Apr-2013	sub2318	2318	  2	  1	 98	  2	  2	  3	  2	  3	  1	  1	  1	0.56683	  1	0.60000	  0	 23	 62	 63	  0	
19-Apr-2013	sub2318	2318	  2	  1	 99	  2	  2	  6	  1	  6	  0	  1	  1	0.44252	  0	0.60000	  0	 26	 87	 68	  1	
19-Apr-2013	sub2318	2318	  2	  1	100	  2	  2	  3	  2	  3	  1	  1	  1	0.42281	  1	0.60000	  0	 23	 62	 63	  1	
19-Apr-2013	sub2318	2318	  2	  1	101	  2	  2	  2	  6	  3	  1	  1	  0	0.52615	  0	0.50000	  1	 22	 80	 51	  0	
19-Apr-2013	sub2318	2318	  2	  1	102	  2	  2	  5	  3	  4	  0	  1	  0	0.30017	  1	0.60000	  0	 25	 67	 88	  1	
19-Apr-2013	sub2318	2318	  2	  1	103	  2	  2	  5	  3	  4	  0	  2	  1	0.39032	  0	0.60000	  0	 25	 87	 68	  1	
19-Apr-2013	sub2318	2318	  2	  1	104	  2	  2	  5	  3	  4	  0	  2	  1	0.48993	  0	0.60000	  0	 25	 87	 68	  1	
19-Apr-2013	sub2318	2318	  2	  1	105	  2	  2	  2	  6	  3	  1	  2	  1	0.47330	  1	0.60000	  0	 22	 60	 61	  1	
19-Apr-2013	sub2318	2318	  2	  1	106	  2	  2	  4	  4	  4	  1	  1	  0	0.53379	  0	0.60000	  0	 24	 82	 83	  0	
19-Apr-2013	sub2318	2318	  2	  1	107	  2	  2	  4	  4	  4	  1	  2	  1	0.44814	  1	0.60000	  0	 24	 62	 63	  1	
19-Apr-2013	sub2318	2318	  2	  1	108	  2	  2	  3	  2	  3	  0	  2	  1	0.52819	  0	0.60000	  0	 23	 84	 69	  0	
19-Apr-2013	sub2318	2318	  2	  1	109	  2	  2	  4	  4	  4	  1	  2	  1	0.50990	  1	0.60000	  0	 24	 62	 63	  0	
19-Apr-2013	sub2318	2318	  2	  1	110	  2	  2	  5	  3	  4	  0	  1	  0	0.40034	  1	0.60000	  0	 25	 67	 88	  1	
19-Apr-2013	sub2318	2318	  2	  1	111	  2	  2	  1	  5	  3	  1	  1	  1	0.52722	  1	0.60000	  0	 21	 60	 61	  0	
19-Apr-2013	sub2318	2318	  2	  1	112	  2	  2	  4	  4	  4	  1	  1	  0	0.51454	  0	0.60000	  0	 24	 82	 83	  0	
19-Apr-2013	sub2318	2318	  2	  1	113	  2	  2	  4	  4	  4	  1	  2	  1	0.47693	  1	0.60000	  0	 24	 62	 63	  1	
19-Apr-2013	sub2318	2318	  2	  1	114	  2	  2	  6	  1	  6	  1	  2	  1	0.42030	  1	0.60000	  0	 26	 65	 66	  1	
19-Apr-2013	sub2318	2318	  2	  1	115	  2	  2	  6	  1	  6	  1	  1	  0	0.55186	  0	0.60000	  0	 26	 85	 86	  0	
19-Apr-2013	sub2318	2318	  2	  1	116	  2	  2	  2	  6	  3	  1	  2	  1	0.51701	  1	0.60000	  0	 22	 60	 61	  0	
19-Apr-2013	sub2318	2318	  2	  1	117	  2	  2	  2	  6	  3	  1	  2	  1	0.47283	  1	0.60000	  0	 22	 60	 61	  1	
19-Apr-2013	sub2318	2318	  2	  1	118	  2	  2	  5	  3	  4	  0	  1	  0	0.53830	  1	0.60000	  0	 25	 67	 88	  0	
19-Apr-2013	sub2318	2318	  2	  1	119	  2	  2	  1	  5	  3	  1	  2	  0	0.42643	  0	0.60000	  0	 21	 80	 81	  1	
19-Apr-2013	sub2318	2318	  2	  1	120	  2	  2	  2	  6	  3	  1	  2	  1	0.52933	  1	0.60000	  0	 22	 60	 61	  0	
19-Apr-2013	sub2318	2318	  2	  1	121	  2	  2	  1	  5	  3	  1	  1	  1	0.38664	  1	0.60000	  0	 21	 60	 61	  1	
19-Apr-2013	sub2318	2318	  2	  1	122	  2	  2	  2	  6	  3	  1	  2	  1	0.52731	  1	0.60000	  0	 22	 60	 61	  0	
19-Apr-2013	sub2318	2318	  2	  1	123	  2	  2	  1	  5	  3	  1	  2	  0	0.57196	  0	0.60000	  0	 21	 80	 81	  0	
19-Apr-2013	sub2318	2318	  2	  1	124	  2	  2	  5	  3	  4	  0	  2	  1	0.49385	  0	0.60000	  0	 25	 87	 68	  1	
19-Apr-2013	sub2318	2318	  2	  1	125	  2	  2	  2	  6	  3	  1	  2	  1	0.57769	  1	0.60000	  0	 22	 60	 61	  0	
19-Apr-2013	sub2318	2318	  2	  1	126	  2	  2	  1	  5	  3	  1	  1	  1	0.40879	  1	0.50000	  0	 21	 60	 61	  1	
19-Apr-2013	sub2318	2318	  2	  1	127	  2	  2	  6	  1	  6	  0	  1	  1	0.41461	  0	0.50000	  0	 26	 87	 68	  1	
19-Apr-2013	sub2318	2318	  2	  1	128	  2	  2	  5	  3	  4	  0	  2	  1	0.51950	  0	0.50000	  1	 25	 87	 51	  0	
19-Apr-2013	sub2318	2318	  2	  1	129	  2	  2	  4	  4	  4	  0	  2	  0	0.54633	  1	0.60000	  0	 24	 64	 89	  0	
19-Apr-2013	sub2318	2318	  2	  1	130	  2	  2	  2	  6	  3	  1	  2	  1	0.48350	  1	0.60000	  0	 22	 60	 61	  1	
19-Apr-2013	sub2318	2318	  2	  1	131	  2	  2	  6	  1	  6	  0	  1	  1	0.51290	  0	0.60000	  0	 26	 87	 68	  0	
19-Apr-2013	sub2318	2318	  2	  1	132	  2	  2	  5	  3	  4	  0	  2	  1	0.52453	  0	0.60000	  0	 25	 87	 68	  0	
19-Apr-2013	sub2318	2318	  2	  1	133	  2	  2	  3	  2	  3	  1	  2	  0	0.68839	  0	0.60000	  1	 23	 82	 51	  0	
19-Apr-2013	sub2318	2318	  2	  1	134	  2	  2	  3	  2	  3	  1	  1	  1	0.37927	  1	0.70000	  0	 23	 62	 63	  1	
19-Apr-2013	sub2318	2318	  2	  1	135	  2	  2	  3	  2	  3	  1	  1	  1	0.39801	  1	0.70000	  0	 23	 62	 63	  1	
19-Apr-2013	sub2318	2318	  2	  1	136	  2	  2	  2	  6	  3	  1	  2	  1	0.43808	  1	0.70000	  0	 22	 60	 61	  1	
19-Apr-2013	sub2318	2318	  2	  1	137	  2	  2	  5	  3	  4	  0	  1	  0	0.46535	  1	0.70000	  0	 25	 67	 88	  1	
19-Apr-2013	sub2318	2318	  2	  1	138	  2	  2	  3	  2	  3	  1	  1	  1	0.44885	  1	0.70000	  0	 23	 62	 63	  1	
19-Apr-2013	sub2318	2318	  2	  1	139	  2	  2	  1	  5	  3	  1	  1	  1	0.53943	  1	0.70000	  0	 21	 60	 61	  0	
19-Apr-2013	sub2318	2318	  2	  1	140	  2	  2	  3	  2	  3	  1	  1	  1	0.41131	  1	0.70000	  0	 23	 62	 63	  1	
19-Apr-2013	sub2318	2318	  2	  1	141	  2	  2	  4	  4	  4	  1	  2	  1	0.48419	  1	0.60000	  0	 24	 62	 63	  1	
19-Apr-2013	sub2318	2318	  2	  1	142	  2	  2	  4	  4	  4	  1	  2	  1	0.38430	  1	0.60000	  0	 24	 62	 63	  1	
19-Apr-2013	sub2318	2318	  2	  1	143	  2	  2	  6	  1	  6	  1	  1	  0	0.68944	  0	0.60000	  1	 26	 85	 51	  0	
19-Apr-2013	sub2318	2318	  2	  1	144	  2	  2	  6	  1	  6	  1	  1	  0	0.34653	  0	0.70000	  0	 26	 85	 86	  1	
19-Apr-2013	sub2318	2318	  2	  1	145	  2	  2	  3	  2	  3	  1	  2	  0	0.46108	  0	0.70000	  0	 23	 82	 83	  1	
19-Apr-2013	sub2318	2318	  2	  1	146	  2	  2	  6	  1	  6	  1	  1	  0	0.44430	  0	0.70000	  0	 26	 85	 86	  1	
19-Apr-2013	sub2318	2318	  2	  1	147	  2	  2	  1	  5	  3	  1	  1	  1	0.50054	  1	0.70000	  0	 21	 60	 61	  1	
19-Apr-2013	sub2318	2318	  2	  1	148	  2	  2	  1	  5	  3	  1	  1	  1	0.37562	  1	0.70000	  0	 21	 60	 61	  1	
19-Apr-2013	sub2318	2318	  2	  1	149	  2	  2	  4	  4	  4	  0	  1	  1	0.38443	  0	0.70000	  0	 24	 84	 69	  1	
19-Apr-2013	sub2318	2318	  2	  1	150	  2	  2	  1	  5	  3	  1	  1	  1	0.43860	  1	0.70000	  0	 21	 60	 61	  1	
19-Apr-2013	sub2318	2318	  2	  1	  1	  3	  1	  3	  2	  5	  1	  1	  1	0.54806	  1	0.60000	  0	 13	 32	 33	  0	
19-Apr-2013	sub2318	2318	  2	  1	  2	  3	  1	  2	  5	  4	  1	  1	  0	0.34710	  0	0.30000	  1	 12	 40	 51	  1	
19-Apr-2013	sub2318	2318	  2	  1	  3	  3	  1	  2	  5	  4	  1	  1	  0	0.27852	  0	0.90000	  0	 12	 40	 41	  1	
19-Apr-2013	sub2318	2318	  2	  1	  4	  3	  1	  3	  2	  5	  1	  1	  1	0.50580	  1	0.90000	  0	 13	 32	 33	  0	
19-Apr-2013	sub2318	2318	  2	  1	  5	  3	  1	  4	  1	  4	  0	  1	  1	0.38409	  0	0.90000	  0	 14	 44	 39	  1	
19-Apr-2013	sub2318	2318	  2	  1	  6	  3	  1	  5	  4	  6	  0	  1	  0	0.35040	  1	0.90000	  0	 15	 37	 48	  1	
19-Apr-2013	sub2318	2318	  2	  1	  7	  3	  1	  5	  4	  6	  0	  2	  1	0.49466	  0	0.90000	  0	 15	 47	 38	  1	
19-Apr-2013	sub2318	2318	  2	  1	  8	  3	  1	  1	  3	  6	  1	  1	  1	0.38861	  1	0.90000	  0	 11	 30	 31	  1	
19-Apr-2013	sub2318	2318	  2	  1	  9	  3	  1	  3	  2	  5	  0	  1	  0	0.28935	  1	0.90000	  0	 13	 34	 49	  1	
19-Apr-2013	sub2318	2318	  2	  1	 10	  3	  1	  3	  2	  5	  1	  1	  1	0.40535	  1	0.90000	  0	 13	 32	 33	  1	
19-Apr-2013	sub2318	2318	  2	  1	 11	  3	  1	  2	  5	  4	  1	  1	  0	0.53982	  0	0.90000	  0	 12	 40	 41	  0	
19-Apr-2013	sub2318	2318	  2	  1	 12	  3	  1	  1	  3	  6	  1	  1	  1	0.38085	  1	0.90000	  0	 11	 30	 31	  1	
19-Apr-2013	sub2318	2318	  2	  1	 13	  3	  1	  4	  1	  4	  0	  1	  1	0.39841	  0	0.90000	  0	 14	 44	 39	  1	
19-Apr-2013	sub2318	2318	  2	  1	 14	  3	  1	  2	  5	  4	  1	  1	  0	0.32916	  0	0.90000	  0	 12	 40	 41	  1	
19-Apr-2013	sub2318	2318	  2	  1	 15	  3	  1	  3	  2	  5	  0	  1	  0	0.39959	  1	0.90000	  0	 13	 34	 49	  1	
19-Apr-2013	sub2318	2318	  2	  1	 16	  3	  1	  3	  2	  5	  1	  1	  1	0.29987	  1	0.80000	  0	 13	 32	 33	  1	
19-Apr-2013	sub2318	2318	  2	  1	 17	  3	  1	  2	  5	  4	  1	  1	  0	0.58156	  0	0.80000	  0	 12	 40	 41	  0	
19-Apr-2013	sub2318	2318	  2	  1	 18	  3	  1	  6	  6	  4	  0	  1	  1	0.53525	  0	0.70000	  0	 16	 47	 38	  0	
19-Apr-2013	sub2318	2318	  2	  1	 19	  3	  1	  5	  4	  6	  1	  1	  1	0.33444	  1	0.70000	  0	 15	 35	 36	  1	
19-Apr-2013	sub2318	2318	  2	  1	 20	  3	  1	  6	  6	  4	  0	  1	  1	0.31557	  0	0.70000	  0	 16	 47	 38	  1	
19-Apr-2013	sub2318	2318	  2	  1	 21	  3	  1	  4	  1	  4	  1	  1	  0	0.39858	  0	0.60000	  0	 14	 42	 43	  1	
19-Apr-2013	sub2318	2318	  2	  1	 22	  3	  1	  5	  4	  6	  1	  1	  1	0.37140	  1	0.60000	  0	 15	 35	 36	  1	
19-Apr-2013	sub2318	2318	  2	  1	 23	  3	  1	  6	  6	  4	  1	  1	  0	0.63002	  0	0.60000	  1	 16	 45	 51	  0	
19-Apr-2013	sub2318	2318	  2	  1	 24	  3	  1	  6	  6	  4	  1	  1	  0	0.25245	  0	0.90000	  0	 16	 45	 46	  1	
19-Apr-2013	sub2318	2318	  2	  1	 25	  3	  1	  1	  3	  6	  1	  1	  1	0.23786	  1	0.90000	  0	 11	 30	 31	  1	
19-Apr-2013	sub2318	2318	  2	  1	 26	  3	  1	  3	  2	  5	  1	  1	  1	0.29367	  1	0.90000	  0	 13	 32	 33	  1	
19-Apr-2013	sub2318	2318	  2	  1	 27	  3	  1	  6	  6	  4	  0	  1	  1	0.50257	  0	0.90000	  0	 16	 47	 38	  0	
19-Apr-2013	sub2318	2318	  2	  1	 28	  3	  1	  3	  2	  5	  1	  2	  0	0.39319	  0	0.90000	  0	 13	 42	 43	  1	
19-Apr-2013	sub2318	2318	  2	  1	 29	  3	  1	  4	  1	  4	  1	  1	  0	0.35818	  0	0.90000	  0	 14	 42	 43	  1	
19-Apr-2013	sub2318	2318	  2	  1	 30	  3	  1	  5	  4	  6	  1	  1	  1	0.34215	  1	0.80000	  0	 15	 35	 36	  1	
19-Apr-2013	sub2318	2318	  2	  1	 31	  3	  1	  5	  4	  6	  0	  1	  0	0.33594	  1	0.80000	  0	 15	 37	 48	  1	
19-Apr-2013	sub2318	2318	  2	  1	 32	  3	  1	  2	  5	  4	  1	  1	  0	0.27371	  0	0.80000	  0	 12	 40	 41	  1	
19-Apr-2013	sub2318	2318	  2	  1	 33	  3	  1	  6	  6	  4	  1	  1	  0	0.26658	  0	0.80000	  0	 16	 45	 46	  1	
19-Apr-2013	sub2318	2318	  2	  1	 34	  3	  1	  1	  3	  6	  1	  1	  1	0.36641	  1	0.80000	  0	 11	 30	 31	  1	
19-Apr-2013	sub2318	2318	  2	  1	 35	  3	  1	  5	  4	  6	  0	  1	  0	0.34624	  1	0.70000	  0	 15	 37	 48	  1	
19-Apr-2013	sub2318	2318	  2	  1	 36	  3	  1	  6	  6	  4	  1	  1	  0	0.36950	  0	0.70000	  0	 16	 45	 46	  1	
19-Apr-2013	sub2318	2318	  2	  1	 37	  3	  1	  1	  3	  6	  1	  1	  1	0.36590	  1	0.70000	  0	 11	 30	 31	  1	
19-Apr-2013	sub2318	2318	  2	  1	 38	  3	  1	  6	  6	  4	  1	  1	  0	0.26968	  0	0.70000	  0	 16	 45	 46	  1	
19-Apr-2013	sub2318	2318	  2	  1	 39	  3	  1	  5	  4	  6	  0	  1	  0	0.37062	  1	0.70000	  0	 15	 37	 48	  1	
19-Apr-2013	sub2318	2318	  2	  1	 40	  3	  1	  4	  1	  4	  1	  1	  0	0.43500	  0	0.70000	  0	 14	 42	 43	  1	
19-Apr-2013	sub2318	2318	  2	  1	 41	  3	  1	  6	  6	  4	  0	  1	  1	0.41895	  0	0.60000	  0	 16	 47	 38	  1	
19-Apr-2013	sub2318	2318	  2	  1	 42	  3	  1	  3	  2	  5	  1	  1	  1	0.26956	  1	0.60000	  0	 13	 32	 33	  1	
19-Apr-2013	sub2318	2318	  2	  1	 43	  3	  1	  2	  5	  4	  1	  2	  1	0.34916	  1	0.60000	  0	 12	 30	 31	  1	
19-Apr-2013	sub2318	2318	  2	  1	 44	  3	  1	  3	  2	  5	  1	  1	  1	0.36696	  1	0.60000	  0	 13	 32	 33	  1	
19-Apr-2013	sub2318	2318	  2	  1	 45	  3	  1	  3	  2	  5	  1	  1	  1	0.47171	  1	0.60000	  0	 13	 32	 33	  1	
19-Apr-2013	sub2318	2318	  2	  1	 46	  3	  1	  6	  6	  4	  1	  1	  0	0.34451	  0	0.60000	  0	 16	 45	 46	  1	
19-Apr-2013	sub2318	2318	  2	  1	 47	  3	  1	  2	  5	  4	  1	  1	  0	0.47249	  0	0.60000	  0	 12	 40	 41	  1	
19-Apr-2013	sub2318	2318	  2	  1	 48	  3	  1	  2	  5	  4	  1	  1	  0	0.35780	  0	0.60000	  0	 12	 40	 41	  1	
19-Apr-2013	sub2318	2318	  2	  1	 49	  3	  1	  3	  2	  5	  0	  1	  0	0.36534	  1	0.60000	  0	 13	 34	 49	  1	
19-Apr-2013	sub2318	2318	  2	  1	 50	  3	  1	  1	  3	  6	  1	  2	  0	0.43620	  0	0.60000	  0	 11	 40	 41	  1	
19-Apr-2013	sub2318	2318	  2	  1	 51	  3	  1	  2	  5	  4	  1	  1	  0	0.34327	  0	0.50000	  0	 12	 40	 41	  1	
19-Apr-2013	sub2318	2318	  2	  1	 52	  3	  1	  1	  3	  6	  1	  2	  0	0.43497	  0	0.50000	  0	 11	 40	 41	  1	
19-Apr-2013	sub2318	2318	  2	  1	 53	  3	  1	  4	  1	  4	  1	  1	  0	0.42308	  0	0.50000	  0	 14	 42	 43	  1	
19-Apr-2013	sub2318	2318	  2	  1	 54	  3	  1	  2	  5	  4	  1	  2	  1	0.53509	  1	0.50000	  1	 12	 30	 51	  0	
19-Apr-2013	sub2318	2318	  2	  1	 55	  3	  1	  5	  4	  6	  0	  1	  0	0.49829	  1	0.70000	  0	 15	 37	 48	  1	
19-Apr-2013	sub2318	2318	  2	  1	 56	  3	  1	  6	  6	  4	  0	  1	  1	0.43753	  0	0.70000	  0	 16	 47	 38	  1	
19-Apr-2013	sub2318	2318	  2	  1	 57	  3	  1	  6	  6	  4	  1	  1	  0	0.35148	  0	0.70000	  0	 16	 45	 46	  1	
19-Apr-2013	sub2318	2318	  2	  1	 58	  3	  1	  6	  6	  4	  0	  1	  1	0.34140	  0	0.70000	  0	 16	 47	 38	  1	
19-Apr-2013	sub2318	2318	  2	  1	 59	  3	  1	  1	  3	  6	  1	  1	  1	0.54561	  1	0.70000	  0	 11	 30	 31	  0	
19-Apr-2013	sub2318	2318	  2	  1	 60	  3	  1	  4	  1	  4	  1	  1	  0	0.32885	  0	0.70000	  0	 14	 42	 43	  1	
19-Apr-2013	sub2318	2318	  2	  1	 61	  3	  1	  2	  5	  4	  1	  1	  0	0.29489	  0	0.60000	  0	 12	 40	 41	  1	
19-Apr-2013	sub2318	2318	  2	  1	 62	  3	  1	  2	  5	  4	  1	  2	  1	0.47067	  1	0.60000	  0	 12	 30	 31	  1	
19-Apr-2013	sub2318	2318	  2	  1	 63	  3	  1	  5	  4	  6	  1	  1	  1	0.35889	  1	0.60000	  0	 15	 35	 36	  1	
19-Apr-2013	sub2318	2318	  2	  1	 64	  3	  1	  4	  1	  4	  1	  1	  0	0.34502	  0	0.60000	  0	 14	 42	 43	  1	
19-Apr-2013	sub2318	2318	  2	  1	 65	  3	  1	  4	  1	  4	  1	  1	  0	0.39109	  0	0.60000	  0	 14	 42	 43	  1	
19-Apr-2013	sub2318	2318	  2	  1	 66	  3	  1	  3	  2	  5	  1	  1	  1	0.51961	  1	0.60000	  0	 13	 32	 33	  0	
19-Apr-2013	sub2318	2318	  2	  1	 67	  3	  1	  1	  3	  6	  1	  1	  1	0.56973	  1	0.60000	  0	 11	 30	 31	  0	
19-Apr-2013	sub2318	2318	  2	  1	 68	  3	  1	  5	  4	  6	  1	  1	  1	0.34287	  1	0.60000	  0	 15	 35	 36	  1	
19-Apr-2013	sub2318	2318	  2	  1	 69	  3	  1	  5	  4	  6	  1	  1	  1	0.39148	  1	0.60000	  0	 15	 35	 36	  1	
19-Apr-2013	sub2318	2318	  2	  1	 70	  3	  1	  4	  1	  4	  1	  1	  0	0.37671	  0	0.60000	  0	 14	 42	 43	  1	
19-Apr-2013	sub2318	2318	  2	  1	 71	  3	  1	  1	  3	  6	  1	  1	  1	0.42029	  1	0.60000	  0	 11	 30	 31	  1	
19-Apr-2013	sub2318	2318	  2	  1	 72	  3	  1	  1	  3	  6	  1	  1	  1	0.45485	  1	0.60000	  0	 11	 30	 31	  1	
19-Apr-2013	sub2318	2318	  2	  1	 73	  3	  1	  4	  1	  4	  1	  1	  0	0.41566	  0	0.60000	  0	 14	 42	 43	  1	
19-Apr-2013	sub2318	2318	  2	  1	 74	  3	  1	  4	  1	  4	  1	  2	  1	0.38932	  1	0.60000	  0	 14	 32	 33	  1	
19-Apr-2013	sub2318	2318	  2	  1	 75	  3	  1	  1	  3	  6	  1	  1	  1	0.37473	  1	0.60000	  0	 11	 30	 31	  1	
19-Apr-2013	sub2318	2318	  2	  1	 76	  3	  2	  4	  1	  4	  1	  1	  0	0.36040	  0	0.50000	  0	 24	 82	 83	  1	
19-Apr-2013	sub2318	2318	  2	  1	 77	  3	  2	  3	  2	  5	  1	  1	  1	0.41938	  1	0.50000	  0	 23	 62	 63	  1	
19-Apr-2013	sub2318	2318	  2	  1	 78	  3	  2	  3	  2	  5	  1	  1	  1	0.44192	  1	0.50000	  0	 23	 62	 63	  1	
19-Apr-2013	sub2318	2318	  2	  1	 79	  3	  2	  3	  2	  5	  1	  1	  1	0.37135	  1	0.50000	  0	 23	 62	 63	  1	
19-Apr-2013	sub2318	2318	  2	  1	 80	  3	  2	  2	  5	  4	  1	  2	  1	0.54720	  1	0.50000	  1	 22	 60	 51	  0	
19-Apr-2013	sub2318	2318	  2	  1	 81	  3	  2	  6	  6	  4	  1	  1	  0	0.38766	  0	0.60000	  0	 26	 85	 86	  1	
19-Apr-2013	sub2318	2318	  2	  1	 82	  3	  2	  5	  4	  6	  0	  1	  0	0.36004	  1	0.60000	  0	 25	 67	 88	  1	
19-Apr-2013	sub2318	2318	  2	  1	 83	  3	  2	  3	  2	  5	  1	  1	  1	0.42616	  1	0.60000	  0	 23	 62	 63	  1	
19-Apr-2013	sub2318	2318	  2	  1	 84	  3	  2	  5	  4	  6	  0	  1	  0	0.34445	  1	0.60000	  0	 25	 67	 88	  1	
19-Apr-2013	sub2318	2318	  2	  1	 85	  3	  2	  6	  6	  4	  1	  1	  0	0.36262	  0	0.60000	  0	 26	 85	 86	  1	
19-Apr-2013	sub2318	2318	  2	  1	 86	  3	  2	  1	  3	  6	  1	  1	  1	0.45265	  1	0.60000	  0	 21	 60	 61	  1	
19-Apr-2013	sub2318	2318	  2	  1	 87	  3	  2	  1	  3	  6	  1	  1	  1	0.37388	  1	0.60000	  0	 21	 60	 61	  1	
19-Apr-2013	sub2318	2318	  2	  1	 88	  3	  2	  1	  3	  6	  1	  1	  1	0.32682	  1	0.60000	  0	 21	 60	 61	  1	
19-Apr-2013	sub2318	2318	  2	  1	 89	  3	  2	  5	  4	  6	  0	  1	  0	0.46949	  1	0.60000	  0	 25	 67	 88	  1	
19-Apr-2013	sub2318	2318	  2	  1	 90	  3	  2	  5	  4	  6	  0	  2	  1	0.43937	  0	0.60000	  0	 25	 87	 68	  1	
19-Apr-2013	sub2318	2318	  2	  1	 91	  3	  2	  6	  6	  4	  0	  1	  1	0.51945	  0	0.60000	  0	 26	 87	 68	  0	
19-Apr-2013	sub2318	2318	  2	  1	 92	  3	  2	  2	  5	  4	  1	  1	  0	0.41120	  0	0.60000	  0	 22	 80	 81	  1	
19-Apr-2013	sub2318	2318	  2	  1	 93	  3	  2	  5	  4	  6	  0	  1	  0	0.54300	  1	0.60000	  0	 25	 67	 88	  0	
19-Apr-2013	sub2318	2318	  2	  1	 94	  3	  2	  1	  3	  6	  1	  1	  1	0.49681	  1	0.60000	  0	 21	 60	 61	  1	
19-Apr-2013	sub2318	2318	  2	  1	 95	  3	  2	  1	  3	  6	  1	  1	  1	0.44258	  1	0.60000	  0	 21	 60	 61	  1	
19-Apr-2013	sub2318	2318	  2	  1	 96	  3	  2	  3	  2	  5	  0	  1	  0	0.49646	  1	0.60000	  0	 23	 64	 89	  1	
19-Apr-2013	sub2318	2318	  2	  1	 97	  3	  2	  3	  2	  5	  1	  1	  1	0.35037	  1	0.60000	  0	 23	 62	 63	  1	
19-Apr-2013	sub2318	2318	  2	  1	 98	  3	  2	  2	  5	  4	  1	  2	  1	0.49823	  1	0.60000	  0	 22	 60	 61	  1	
19-Apr-2013	sub2318	2318	  2	  1	 99	  3	  2	  1	  3	  6	  1	  2	  0	0.31980	  0	0.60000	  0	 21	 80	 81	  1	
19-Apr-2013	sub2318	2318	  2	  1	100	  3	  2	  3	  2	  5	  1	  1	  1	0.41280	  1	0.60000	  0	 23	 62	 63	  1	
19-Apr-2013	sub2318	2318	  2	  1	101	  3	  2	  1	  3	  6	  1	  1	  1	0.34104	  1	0.50000	  0	 21	 60	 61	  1	
19-Apr-2013	sub2318	2318	  2	  1	102	  3	  2	  6	  6	  4	  1	  1	  0	0.42719	  0	0.50000	  0	 26	 85	 86	  1	
19-Apr-2013	sub2318	2318	  2	  1	103	  3	  2	  1	  3	  6	  1	  1	  1	0.43172	  1	0.50000	  0	 21	 60	 61	  1	
19-Apr-2013	sub2318	2318	  2	  1	104	  3	  2	  5	  4	  6	  0	  2	  1	0.38933	  0	0.50000	  0	 25	 87	 68	  1	
19-Apr-2013	sub2318	2318	  2	  1	105	  3	  2	  1	  3	  6	  1	  1	  1	0.55872	  1	0.50000	  1	 21	 60	 51	  0	
19-Apr-2013	sub2318	2318	  2	  1	106	  3	  2	  3	  2	  5	  0	  1	  0	0.42381	  1	0.60000	  0	 23	 64	 89	  1	
19-Apr-2013	sub2318	2318	  2	  1	107	  3	  2	  3	  2	  5	  1	  1	  1	0.40908	  1	0.60000	  0	 23	 62	 63	  1	
19-Apr-2013	sub2318	2318	  2	  1	108	  3	  2	  2	  5	  4	  1	  1	  0	0.39158	  0	0.60000	  0	 22	 80	 81	  1	
19-Apr-2013	sub2318	2318	  2	  1	109	  3	  2	  5	  4	  6	  0	  1	  0	0.33477	  1	0.60000	  0	 25	 67	 88	  1	
19-Apr-2013	sub2318	2318	  2	  1	110	  3	  2	  6	  6	  4	  0	  1	  1	0.34012	  0	0.60000	  0	 26	 87	 68	  1	
19-Apr-2013	sub2318	2318	  2	  1	111	  3	  2	  4	  1	  4	  1	  1	  0	0.37355	  0	0.60000	  0	 24	 82	 83	  1	
19-Apr-2013	sub2318	2318	  2	  1	112	  3	  2	  4	  1	  4	  1	  2	  1	0.48138	  1	0.60000	  0	 24	 62	 63	  1	
19-Apr-2013	sub2318	2318	  2	  1	113	  3	  2	  1	  3	  6	  1	  1	  1	0.40981	  1	0.60000	  0	 21	 60	 61	  1	
19-Apr-2013	sub2318	2318	  2	  1	114	  3	  2	  5	  4	  6	  0	  2	  1	0.53873	  0	0.60000	  0	 25	 87	 68	  0	
19-Apr-2013	sub2318	2318	  2	  1	115	  3	  2	  5	  4	  6	  0	  2	  1	0.43768	  0	0.60000	  0	 25	 87	 68	  1	
19-Apr-2013	sub2318	2318	  2	  1	116	  3	  2	  4	  1	  4	  1	  1	  0	0.50604	  0	0.60000	  0	 24	 82	 83	  0	
19-Apr-2013	sub2318	2318	  2	  1	117	  3	  2	  2	  5	  4	  1	  2	  1	0.46244	  1	0.60000	  0	 22	 60	 61	  1	
19-Apr-2013	sub2318	2318	  2	  1	118	  3	  2	  4	  1	  4	  0	  2	  0	0.54865	  1	0.60000	  0	 24	 64	 89	  0	
19-Apr-2013	sub2318	2318	  2	  1	119	  3	  2	  6	  6	  4	  0	  1	  1	0.60607	  0	0.60000	  1	 26	 87	 51	  0	
19-Apr-2013	sub2318	2318	  2	  1	120	  3	  2	  2	  5	  4	  1	  2	  1	0.44888	  1	0.70000	  0	 22	 60	 61	  1	
19-Apr-2013	sub2318	2318	  2	  1	121	  3	  2	  3	  2	  5	  1	  1	  1	0.50857	  1	0.60000	  0	 23	 62	 63	  0	
19-Apr-2013	sub2318	2318	  2	  1	122	  3	  2	  4	  1	  4	  1	  2	  1	0.36034	  1	0.60000	  0	 24	 62	 63	  1	
19-Apr-2013	sub2318	2318	  2	  1	123	  3	  2	  2	  5	  4	  1	  2	  1	0.30148	  1	0.60000	  0	 22	 60	 61	  1	
19-Apr-2013	sub2318	2318	  2	  1	124	  3	  2	  6	  6	  4	  0	  2	  0	0.36905	  1	0.60000	  0	 26	 67	 88	  1	
19-Apr-2013	sub2318	2318	  2	  1	125	  3	  2	  5	  4	  6	  0	  2	  1	0.31366	  0	0.60000	  0	 25	 87	 68	  1	
19-Apr-2013	sub2318	2318	  2	  1	126	  3	  2	  1	  3	  6	  1	  1	  1	0.42407	  1	0.60000	  0	 21	 60	 61	  1	
19-Apr-2013	sub2318	2318	  2	  1	127	  3	  2	  6	  6	  4	  1	  1	  0	0.41760	  0	0.60000	  0	 26	 85	 86	  1	
19-Apr-2013	sub2318	2318	  2	  1	128	  3	  2	  3	  2	  5	  1	  2	  0	0.49494	  0	0.60000	  0	 23	 82	 83	  1	
19-Apr-2013	sub2318	2318	  2	  1	129	  3	  2	  4	  1	  4	  0	  2	  0	0.54615	  1	0.60000	  0	 24	 64	 89	  0	
19-Apr-2013	sub2318	2318	  2	  1	130	  3	  2	  5	  4	  6	  0	  1	  0	0.32917	  1	0.60000	  0	 25	 67	 88	  1	
19-Apr-2013	sub2318	2318	  2	  1	131	  3	  2	  6	  6	  4	  1	  1	  0	0.49027	  0	0.60000	  0	 26	 85	 86	  1	
19-Apr-2013	sub2318	2318	  2	  1	132	  3	  2	  5	  4	  6	  0	  1	  0	0.37349	  1	0.60000	  0	 25	 67	 88	  1	
19-Apr-2013	sub2318	2318	  2	  1	133	  3	  2	  2	  5	  4	  1	  2	  1	0.49538	  1	0.60000	  0	 22	 60	 61	  1	
19-Apr-2013	sub2318	2318	  2	  1	134	  3	  2	  2	  5	  4	  1	  2	  1	0.37307	  1	0.60000	  0	 22	 60	 61	  1	
19-Apr-2013	sub2318	2318	  2	  1	135	  3	  2	  4	  1	  4	  1	  2	  1	0.49272	  1	0.60000	  0	 24	 62	 63	  1	
19-Apr-2013	sub2318	2318	  2	  1	136	  3	  2	  5	  4	  6	  0	  2	  1	0.37452	  0	0.60000	  0	 25	 87	 68	  1	
19-Apr-2013	sub2318	2318	  2	  1	137	  3	  2	  3	  2	  5	  1	  2	  0	0.35292	  0	0.60000	  0	 23	 82	 83	  1	
19-Apr-2013	sub2318	2318	  2	  1	138	  3	  2	  4	  1	  4	  1	  2	  1	0.35317	  1	0.60000	  0	 24	 62	 63	  1	
19-Apr-2013	sub2318	2318	  2	  1	139	  3	  2	  4	  1	  4	  1	  1	  0	0.43087	  0	0.60000	  0	 24	 82	 83	  1	
19-Apr-2013	sub2318	2318	  2	  1	140	  3	  2	  2	  5	  4	  1	  2	  1	0.46511	  1	0.60000	  0	 22	 60	 61	  1	
19-Apr-2013	sub2318	2318	  2	  1	141	  3	  2	  6	  6	  4	  0	  2	  0	0.41100	  1	0.60000	  0	 26	 67	 88	  1	
19-Apr-2013	sub2318	2318	  2	  1	142	  3	  2	  4	  1	  4	  0	  2	  0	0.44198	  1	0.60000	  0	 24	 64	 89	  1	
19-Apr-2013	sub2318	2318	  2	  1	143	  3	  2	  2	  5	  4	  1	  2	  1	0.39581	  1	0.60000	  0	 22	 60	 61	  1	
19-Apr-2013	sub2318	2318	  2	  1	144	  3	  2	  4	  1	  4	  1	  2	  1	0.40759	  1	0.60000	  0	 24	 62	 63	  1	
19-Apr-2013	sub2318	2318	  2	  1	145	  3	  2	  1	  3	  6	  1	  2	  0	0.31963	  0	0.60000	  0	 21	 80	 81	  1	
19-Apr-2013	sub2318	2318	  2	  1	146	  3	  2	  6	  6	  4	  1	  1	  0	0.36602	  0	0.60000	  0	 26	 85	 86	  1	
19-Apr-2013	sub2318	2318	  2	  1	147	  3	  2	  6	  6	  4	  0	  1	  1	0.43687	  0	0.60000	  0	 26	 87	 68	  1	
19-Apr-2013	sub2318	2318	  2	  1	148	  3	  2	  1	  3	  6	  1	  1	  1	0.45844	  1	0.60000	  0	 21	 60	 61	  1	
19-Apr-2013	sub2318	2318	  2	  1	149	  3	  2	  4	  1	  4	  1	  1	  0	0.37290	  0	0.60000	  0	 24	 82	 83	  1	
19-Apr-2013	sub2318	2318	  2	  1	150	  3	  2	  2	  5	  4	  1	  2	  1	0.46343	  1	0.60000	  0	 22	 60	 61	  1	
19-Apr-2013	sub2318	2318	  2	  1	  1	  4	  1	  2	  2	  4	  1	  1	  0	0.55765	  0	0.60000	  0	 12	 40	 41	  0	
19-Apr-2013	sub2318	2318	  2	  1	  2	  4	  1	  4	  4	  5	  1	  1	  0	0.44973	  0	0.30000	  1	 14	 42	 51	  1	
19-Apr-2013	sub2318	2318	  2	  1	  3	  4	  1	  5	  3	  5	  0	  1	  0	0.06614	  1	0.90000	  0	 15	 37	 48	  1	
19-Apr-2013	sub2318	2318	  2	  1	  4	  4	  1	  2	  2	  4	  1	  1	  0	0.55588	  0	0.90000	  0	 12	 40	 41	  0	
19-Apr-2013	sub2318	2318	  2	  1	  5	  4	  1	  4	  4	  5	  1	  1	  0	0.20530	  0	0.90000	  0	 14	 42	 43	  1	
19-Apr-2013	sub2318	2318	  2	  1	  6	  4	  1	  1	  6	  5	  1	  1	  1	0.39977	  1	0.90000	  0	 11	 30	 31	  1	
19-Apr-2013	sub2318	2318	  2	  1	  7	  4	  1	  6	  5	  5	  0	  1	  1	0.33470	  0	0.90000	  0	 16	 47	 38	  1	
19-Apr-2013	sub2318	2318	  2	  1	  8	  4	  1	  1	  6	  5	  1	  1	  1	0.36835	  1	0.90000	  0	 11	 30	 31	  1	
19-Apr-2013	sub2318	2318	  2	  1	  9	  4	  1	  5	  3	  5	  0	  1	  0	0.37282	  1	0.90000	  0	 15	 37	 48	  1	
19-Apr-2013	sub2318	2318	  2	  1	 10	  4	  1	  6	  5	  5	  1	  1	  0	0.31038	  0	0.90000	  0	 16	 45	 46	  1	
19-Apr-2013	sub2318	2318	  2	  1	 11	  4	  1	  5	  3	  5	  0	  1	  0	0.36796	  1	0.90000	  0	 15	 37	 48	  1	
19-Apr-2013	sub2318	2318	  2	  1	 12	  4	  1	  3	  1	  2	  1	  2	  0	0.50263	  0	0.90000	  0	 13	 42	 43	  0	
19-Apr-2013	sub2318	2318	  2	  1	 13	  4	  1	  5	  3	  5	  1	  1	  1	0.52998	  1	0.90000	  0	 15	 35	 36	  0	
19-Apr-2013	sub2318	2318	  2	  1	 14	  4	  1	  5	  3	  5	  0	  2	  1	0.36823	  0	0.90000	  0	 15	 47	 38	  1	
19-Apr-2013	sub2318	2318	  2	  1	 15	  4	  1	  5	  3	  5	  1	  2	  0	0.36191	  0	0.90000	  0	 15	 45	 46	  1	
19-Apr-2013	sub2318	2318	  2	  1	 16	  4	  1	  3	  1	  2	  1	  2	  0	0.46544	  0	0.80000	  0	 13	 42	 43	  1	
19-Apr-2013	sub2318	2318	  2	  1	 17	  4	  1	  2	  2	  4	  1	  1	  0	0.36171	  0	0.80000	  0	 12	 40	 41	  1	
19-Apr-2013	sub2318	2318	  2	  1	 18	  4	  1	  3	  1	  2	  0	  2	  1	0.44170	  0	0.70000	  0	 13	 44	 39	  1	
19-Apr-2013	sub2318	2318	  2	  1	 19	  4	  1	  4	  4	  5	  0	  1	  1	0.37652	  0	0.70000	  0	 14	 44	 39	  1	
19-Apr-2013	sub2318	2318	  2	  1	 20	  4	  1	  3	  1	  2	  1	  1	  1	0.47808	  1	0.70000	  0	 13	 32	 33	  1	
19-Apr-2013	sub2318	2318	  2	  1	 21	  4	  1	  4	  4	  5	  1	  1	  0	0.41129	  0	0.60000	  0	 14	 42	 43	  1	
19-Apr-2013	sub2318	2318	  2	  1	 22	  4	  1	  3	  1	  2	  0	  1	  0	0.40938	  1	0.60000	  0	 13	 34	 49	  1	
19-Apr-2013	sub2318	2318	  2	  1	 23	  4	  1	  1	  6	  5	  1	  1	  1	0.37141	  1	0.60000	  0	 11	 30	 31	  1	
19-Apr-2013	sub2318	2318	  2	  1	 24	  4	  1	  4	  4	  5	  1	  1	  0	0.40548	  0	0.60000	  0	 14	 42	 43	  1	
19-Apr-2013	sub2318	2318	  2	  1	 25	  4	  1	  1	  6	  5	  1	  1	  1	0.49989	  1	0.60000	  0	 11	 30	 31	  1	
19-Apr-2013	sub2318	2318	  2	  1	 26	  4	  1	  2	  2	  4	  1	  1	  0	0.36779	  0	0.50000	  0	 12	 40	 41	  1	
19-Apr-2013	sub2318	2318	  2	  1	 27	  4	  1	  5	  3	  5	  0	  1	  0	0.39959	  1	0.50000	  0	 15	 37	 48	  1	
19-Apr-2013	sub2318	2318	  2	  1	 28	  4	  1	  3	  1	  2	  1	  1	  1	0.34489	  1	0.50000	  0	 13	 32	 33	  1	
19-Apr-2013	sub2318	2318	  2	  1	 29	  4	  1	  2	  2	  4	  1	  1	  0	0.43249	  0	0.50000	  0	 12	 40	 41	  1	
19-Apr-2013	sub2318	2318	  2	  1	 30	  4	  1	  2	  2	  4	  1	  1	  0	0.47712	  0	0.50000	  0	 12	 40	 41	  1	
19-Apr-2013	sub2318	2318	  2	  1	 31	  4	  1	  6	  5	  5	  0	  1	  1	0.43601	  0	0.50000	  0	 16	 47	 38	  1	
19-Apr-2013	sub2318	2318	  2	  1	 32	  4	  1	  6	  5	  5	  1	  1	  0	0.39418	  0	0.50000	  0	 16	 45	 46	  1	
19-Apr-2013	sub2318	2318	  2	  1	 33	  4	  1	  1	  6	  5	  1	  1	  1	0.34878	  1	0.50000	  0	 11	 30	 31	  1	
19-Apr-2013	sub2318	2318	  2	  1	 34	  4	  1	  3	  1	  2	  1	  1	  1	0.17983	  1	0.50000	  0	 13	 32	 33	  1	
19-Apr-2013	sub2318	2318	  2	  1	 35	  4	  1	  2	  2	  4	  1	  1	  0	0.33476	  0	0.40000	  0	 12	 40	 41	  1	
19-Apr-2013	sub2318	2318	  2	  1	 36	  4	  1	  4	  4	  5	  1	  2	  1	0.42891	  1	0.40000	  1	 14	 32	 51	  1	
19-Apr-2013	sub2318	2318	  2	  1	 37	  4	  1	  4	  4	  5	  1	  1	  0	0.37898	  0	0.70000	  0	 14	 42	 43	  1	
19-Apr-2013	sub2318	2318	  2	  1	 38	  4	  1	  6	  5	  5	  1	  1	  0	0.40594	  0	0.70000	  0	 16	 45	 46	  1	
19-Apr-2013	sub2318	2318	  2	  1	 39	  4	  1	  6	  5	  5	  1	  1	  0	0.27031	  0	0.70000	  0	 16	 45	 46	  1	
19-Apr-2013	sub2318	2318	  2	  1	 40	  4	  1	  6	  5	  5	  0	  1	  1	0.33876	  0	0.70000	  0	 16	 47	 38	  1	
19-Apr-2013	sub2318	2318	  2	  1	 41	  4	  1	  5	  3	  5	  1	  1	  1	0.52474	  1	0.60000	  0	 15	 35	 36	  0	
19-Apr-2013	sub2318	2318	  2	  1	 42	  4	  1	  6	  5	  5	  0	  1	  1	0.49638	  0	0.60000	  0	 16	 47	 38	  1	
19-Apr-2013	sub2318	2318	  2	  1	 43	  4	  1	  1	  6	  5	  1	  1	  1	0.41283	  1	0.60000	  0	 11	 30	 31	  1	
19-Apr-2013	sub2318	2318	  2	  1	 44	  4	  1	  4	  4	  5	  1	  1	  0	0.46556	  0	0.60000	  0	 14	 42	 43	  1	
19-Apr-2013	sub2318	2318	  2	  1	 45	  4	  1	  6	  5	  5	  0	  2	  0	0.43073	  1	0.60000	  0	 16	 37	 48	  1	
19-Apr-2013	sub2318	2318	  2	  1	 46	  4	  1	  4	  4	  5	  0	  1	  1	0.32540	  0	0.60000	  0	 14	 44	 39	  1	
19-Apr-2013	sub2318	2318	  2	  1	 47	  4	  1	  6	  5	  5	  1	  1	  0	0.35065	  0	0.60000	  0	 16	 45	 46	  1	
19-Apr-2013	sub2318	2318	  2	  1	 48	  4	  1	  1	  6	  5	  1	  1	  1	0.49532	  1	0.60000	  0	 11	 30	 31	  1	
19-Apr-2013	sub2318	2318	  2	  1	 49	  4	  1	  3	  1	  2	  0	  1	  0	0.50743	  1	0.60000	  0	 13	 34	 49	  0	
19-Apr-2013	sub2318	2318	  2	  1	 50	  4	  1	  2	  2	  4	  1	  1	  0	0.40307	  0	0.60000	  0	 12	 40	 41	  1	
19-Apr-2013	sub2318	2318	  2	  1	 51	  4	  1	  3	  1	  2	  1	  1	  1	0.61455	  1	0.50000	  1	 13	 32	 51	  0	
19-Apr-2013	sub2318	2318	  2	  1	 52	  4	  1	  1	  6	  5	  1	  1	  1	0.35773	  1	0.70000	  0	 11	 30	 31	  1	
19-Apr-2013	sub2318	2318	  2	  1	 53	  4	  1	  2	  2	  4	  1	  2	  1	0.42419	  1	0.70000	  0	 12	 30	 31	  1	
19-Apr-2013	sub2318	2318	  2	  1	 54	  4	  1	  6	  5	  5	  1	  1	  0	0.37924	  0	0.70000	  0	 16	 45	 46	  1	
19-Apr-2013	sub2318	2318	  2	  1	 55	  4	  1	  3	  1	  2	  1	  1	  1	0.40680	  1	0.70000	  0	 13	 32	 33	  1	
19-Apr-2013	sub2318	2318	  2	  1	 56	  4	  1	  2	  2	  4	  1	  1	  0	0.37862	  0	0.70000	  0	 12	 40	 41	  1	
19-Apr-2013	sub2318	2318	  2	  1	 57	  4	  1	  3	  1	  2	  1	  1	  1	0.44119	  1	0.70000	  0	 13	 32	 33	  1	
19-Apr-2013	sub2318	2318	  2	  1	 58	  4	  1	  2	  2	  4	  1	  2	  1	0.52198	  1	0.70000	  0	 12	 30	 31	  0	
19-Apr-2013	sub2318	2318	  2	  1	 59	  4	  1	  1	  6	  5	  1	  1	  1	0.43288	  1	0.70000	  0	 11	 30	 31	  1	
19-Apr-2013	sub2318	2318	  2	  1	 60	  4	  1	  5	  3	  5	  0	  2	  1	0.46162	  0	0.70000	  0	 15	 47	 38	  1	
19-Apr-2013	sub2318	2318	  2	  1	 61	  4	  1	  6	  5	  5	  1	  1	  0	0.35531	  0	0.60000	  0	 16	 45	 46	  1	
19-Apr-2013	sub2318	2318	  2	  1	 62	  4	  1	  2	  2	  4	  1	  1	  0	0.38244	  0	0.60000	  0	 12	 40	 41	  1	
19-Apr-2013	sub2318	2318	  2	  1	 63	  4	  1	  3	  1	  2	  1	  1	  1	0.39226	  1	0.60000	  0	 13	 32	 33	  1	
19-Apr-2013	sub2318	2318	  2	  1	 64	  4	  1	  2	  2	  4	  1	  2	  1	0.41340	  1	0.60000	  0	 12	 30	 31	  1	
19-Apr-2013	sub2318	2318	  2	  1	 65	  4	  1	  5	  3	  5	  1	  2	  0	0.41862	  0	0.60000	  0	 15	 45	 46	  1	
19-Apr-2013	sub2318	2318	  2	  1	 66	  4	  1	  1	  6	  5	  1	  1	  1	0.55486	  1	0.60000	  0	 11	 30	 31	  0	
19-Apr-2013	sub2318	2318	  2	  1	 67	  4	  1	  4	  4	  5	  1	  2	  1	0.42139	  1	0.60000	  0	 14	 32	 33	  1	
19-Apr-2013	sub2318	2318	  2	  1	 68	  4	  1	  5	  3	  5	  1	  1	  1	0.24871	  1	0.60000	  0	 15	 35	 36	  1	
19-Apr-2013	sub2318	2318	  2	  1	 69	  4	  1	  3	  1	  2	  1	  2	  0	0.42027	  0	0.60000	  0	 13	 42	 43	  1	
19-Apr-2013	sub2318	2318	  2	  1	 70	  4	  1	  4	  4	  5	  1	  1	  0	0.49061	  0	0.60000	  0	 14	 42	 43	  1	
19-Apr-2013	sub2318	2318	  2	  1	 71	  4	  1	  6	  5	  5	  0	  2	  0	0.59142	  1	0.60000	  0	 16	 37	 48	  0	
19-Apr-2013	sub2318	2318	  2	  1	 72	  4	  1	  1	  6	  5	  1	  1	  1	0.25117	  1	0.60000	  0	 11	 30	 31	  1	
19-Apr-2013	sub2318	2318	  2	  1	 73	  4	  1	  1	  6	  5	  1	  1	  1	0.44956	  1	0.60000	  0	 11	 30	 31	  1	
19-Apr-2013	sub2318	2318	  2	  1	 74	  4	  1	  5	  3	  5	  1	  2	  0	0.39717	  0	0.60000	  0	 15	 45	 46	  1	
19-Apr-2013	sub2318	2318	  2	  1	 75	  4	  1	  4	  4	  5	  1	  1	  0	0.43158	  0	0.60000	  0	 14	 42	 43	  1	
19-Apr-2013	sub2318	2318	  2	  1	 76	  4	  2	  1	  6	  5	  1	  1	  1	0.47483	  1	0.50000	  0	 21	 60	 61	  1	
19-Apr-2013	sub2318	2318	  2	  1	 77	  4	  2	  4	  4	  5	  1	  1	  0	0.50435	  0	0.50000	  1	 24	 82	 51	  0	
19-Apr-2013	sub2318	2318	  2	  1	 78	  4	  2	  5	  3	  5	  0	  1	  0	0.42270	  1	0.70000	  0	 25	 67	 88	  1	
19-Apr-2013	sub2318	2318	  2	  1	 79	  4	  2	  2	  2	  4	  1	  2	  1	0.40751	  1	0.70000	  0	 22	 60	 61	  1	
19-Apr-2013	sub2318	2318	  2	  1	 80	  4	  2	  4	  4	  5	  0	  1	  1	0.49156	  0	0.70000	  0	 24	 84	 69	  1	
19-Apr-2013	sub2318	2318	  2	  1	 81	  4	  2	  1	  6	  5	  1	  1	  1	0.48886	  1	0.60000	  0	 21	 60	 61	  1	
19-Apr-2013	sub2318	2318	  2	  1	 82	  4	  2	  6	  5	  5	  1	  1	  0	0.46743	  0	0.60000	  0	 26	 85	 86	  1	
19-Apr-2013	sub2318	2318	  2	  1	 83	  4	  2	  1	  6	  5	  1	  1	  1	0.44531	  1	0.60000	  0	 21	 60	 61	  1	
19-Apr-2013	sub2318	2318	  2	  1	 84	  4	  2	  4	  4	  5	  0	  2	  0	0.61873	  1	0.60000	  1	 24	 64	 51	  0	
19-Apr-2013	sub2318	2318	  2	  1	 85	  4	  2	  3	  1	  2	  1	  1	  1	0.45440	  1	0.70000	  0	 23	 62	 63	  1	
19-Apr-2013	sub2318	2318	  2	  1	 86	  4	  2	  4	  4	  5	  1	  1	  0	0.37085	  0	0.70000	  0	 24	 82	 83	  1	
19-Apr-2013	sub2318	2318	  2	  1	 87	  4	  2	  1	  6	  5	  1	  2	  0	0.43220	  0	0.70000	  0	 21	 80	 81	  1	
19-Apr-2013	sub2318	2318	  2	  1	 88	  4	  2	  1	  6	  5	  1	  1	  1	0.36822	  1	0.70000	  0	 21	 60	 61	  1	
19-Apr-2013	sub2318	2318	  2	  1	 89	  4	  2	  4	  4	  5	  1	  1	  0	0.42029	  0	0.70000	  0	 24	 82	 83	  1	
19-Apr-2013	sub2318	2318	  2	  1	 90	  4	  2	  5	  3	  5	  0	  2	  1	0.44052	  0	0.70000	  0	 25	 87	 68	  1	
19-Apr-2013	sub2318	2318	  2	  1	 91	  4	  2	  3	  1	  2	  1	  1	  1	0.59958	  1	0.70000	  0	 23	 62	 63	  0	
19-Apr-2013	sub2318	2318	  2	  1	 92	  4	  2	  6	  5	  5	  0	  2	  0	0.56298	  1	0.70000	  0	 26	 67	 88	  0	
19-Apr-2013	sub2318	2318	  2	  1	 93	  4	  2	  5	  3	  5	  0	  1	  0	0.34793	  1	0.70000	  0	 25	 67	 88	  1	
19-Apr-2013	sub2318	2318	  2	  1	 94	  4	  2	  3	  1	  2	  1	  1	  1	0.42687	  1	0.70000	  0	 23	 62	 63	  1	
19-Apr-2013	sub2318	2318	  2	  1	 95	  4	  2	  6	  5	  5	  0	  1	  1	0.48424	  0	0.70000	  0	 26	 87	 68	  1	
19-Apr-2013	sub2318	2318	  2	  1	 96	  4	  2	  4	  4	  5	  1	  1	  0	0.50542	  0	0.70000	  0	 24	 82	 83	  0	
19-Apr-2013	sub2318	2318	  2	  1	 97	  4	  2	  2	  2	  4	  1	  2	  1	0.55080	  1	0.70000	  0	 22	 60	 61	  0	
19-Apr-2013	sub2318	2318	  2	  1	 98	  4	  2	  6	  5	  5	  0	  2	  0	0.60016	  1	0.70000	  0	 26	 67	 88	  0	
19-Apr-2013	sub2318	2318	  2	  1	 99	  4	  2	  4	  4	  5	  1	  2	  1	0.48224	  1	0.70000	  0	 24	 62	 63	  1	
19-Apr-2013	sub2318	2318	  2	  1	100	  4	  2	  1	  6	  5	  1	  1	  1	0.38171	  1	0.70000	  0	 21	 60	 61	  1	
19-Apr-2013	sub2318	2318	  2	  1	101	  4	  2	  4	  4	  5	  1	  1	  0	0.50477	  0	0.60000	  0	 24	 82	 83	  0	
19-Apr-2013	sub2318	2318	  2	  1	102	  4	  2	  4	  4	  5	  1	  2	  1	0.45717	  1	0.60000	  0	 24	 62	 63	  1	
19-Apr-2013	sub2318	2318	  2	  1	103	  4	  2	  2	  2	  4	  1	  1	  0	0.34150	  0	0.60000	  0	 22	 80	 81	  1	
19-Apr-2013	sub2318	2318	  2	  1	104	  4	  2	  5	  3	  5	  0	  2	  1	0.40643	  0	0.60000	  0	 25	 87	 68	  1	
19-Apr-2013	sub2318	2318	  2	  1	105	  4	  2	  2	  2	  4	  1	  2	  1	0.42812	  1	0.60000	  0	 22	 60	 61	  1	
19-Apr-2013	sub2318	2318	  2	  1	106	  4	  2	  6	  5	  5	  0	  2	  0	0.43513	  1	0.60000	  0	 26	 67	 88	  1	
19-Apr-2013	sub2318	2318	  2	  1	107	  4	  2	  6	  5	  5	  1	  1	  0	0.36047	  0	0.60000	  0	 26	 85	 86	  1	
19-Apr-2013	sub2318	2318	  2	  1	108	  4	  2	  1	  6	  5	  1	  1	  1	0.44168	  1	0.60000	  0	 21	 60	 61	  1	
19-Apr-2013	sub2318	2318	  2	  1	109	  4	  2	  4	  4	  5	  1	  1	  0	0.39991	  0	0.60000	  0	 24	 82	 83	  1	
19-Apr-2013	sub2318	2318	  2	  1	110	  4	  2	  5	  3	  5	  0	  1	  0	0.39569	  1	0.60000	  0	 25	 67	 88	  1	
19-Apr-2013	sub2318	2318	  2	  1	111	  4	  2	  2	  2	  4	  1	  2	  1	0.40953	  1	0.60000	  0	 22	 60	 61	  1	
19-Apr-2013	sub2318	2318	  2	  1	112	  4	  2	  6	  5	  5	  1	  1	  0	0.57599	  0	0.60000	  0	 26	 85	 86	  0	
19-Apr-2013	sub2318	2318	  2	  1	113	  4	  2	  2	  2	  4	  1	  2	  1	0.39938	  1	0.60000	  0	 22	 60	 61	  1	
19-Apr-2013	sub2318	2318	  2	  1	114	  4	  2	  3	  1	  2	  1	  1	  1	0.52328	  1	0.60000	  0	 23	 62	 63	  0	
19-Apr-2013	sub2318	2318	  2	  1	115	  4	  2	  3	  1	  2	  0	  1	  0	0.35558	  1	0.60000	  0	 23	 64	 89	  1	
19-Apr-2013	sub2318	2318	  2	  1	116	  4	  2	  6	  5	  5	  0	  1	  1	0.56576	  0	0.60000	  0	 26	 87	 68	  0	
19-Apr-2013	sub2318	2318	  2	  1	117	  4	  2	  4	  4	  5	  0	  1	  1	0.40441	  0	0.60000	  0	 24	 84	 69	  1	
19-Apr-2013	sub2318	2318	  2	  1	118	  4	  2	  5	  3	  5	  0	  1	  0	0.34846	  1	0.60000	  0	 25	 67	 88	  1	
19-Apr-2013	sub2318	2318	  2	  1	119	  4	  2	  5	  3	  5	  0	  2	  1	0.38959	  0	0.60000	  0	 25	 87	 68	  1	
19-Apr-2013	sub2318	2318	  2	  1	120	  4	  2	  1	  6	  5	  1	  2	  0	0.44193	  0	0.60000	  0	 21	 80	 81	  1	
19-Apr-2013	sub2318	2318	  2	  1	121	  4	  2	  3	  1	  2	  0	  1	  0	0.52815	  1	0.60000	  0	 23	 64	 89	  0	
19-Apr-2013	sub2318	2318	  2	  1	122	  4	  2	  3	  1	  2	  1	  1	  1	0.43554	  1	0.60000	  0	 23	 62	 63	  1	
19-Apr-2013	sub2318	2318	  2	  1	123	  4	  2	  1	  6	  5	  1	  1	  1	0.44190	  1	0.60000	  0	 21	 60	 61	  1	
19-Apr-2013	sub2318	2318	  2	  1	124	  4	  2	  3	  1	  2	  1	  1	  1	0.38762	  1	0.60000	  0	 23	 62	 63	  1	
19-Apr-2013	sub2318	2318	  2	  1	125	  4	  2	  3	  1	  2	  1	  1	  1	0.44352	  1	0.60000	  0	 23	 62	 63	  1	
19-Apr-2013	sub2318	2318	  2	  1	126	  4	  2	  5	  3	  5	  0	  2	  1	0.51106	  0	0.50000	  1	 25	 87	 51	  0	
19-Apr-2013	sub2318	2318	  2	  1	127	  4	  2	  2	  2	  4	  1	  2	  1	0.37914	  1	0.60000	  0	 22	 60	 61	  1	
19-Apr-2013	sub2318	2318	  2	  1	128	  4	  2	  2	  2	  4	  1	  2	  1	0.38041	  1	0.60000	  0	 22	 60	 61	  1	
19-Apr-2013	sub2318	2318	  2	  1	129	  4	  2	  1	  6	  5	  1	  1	  1	0.48816	  1	0.60000	  0	 21	 60	 61	  1	
19-Apr-2013	sub2318	2318	  2	  1	130	  4	  2	  6	  5	  5	  1	  1	  0	0.40787	  0	0.60000	  0	 26	 85	 86	  1	
19-Apr-2013	sub2318	2318	  2	  1	131	  4	  2	  2	  2	  4	  1	  2	  1	0.38919	  1	0.60000	  0	 22	 60	 61	  1	
19-Apr-2013	sub2318	2318	  2	  1	132	  4	  2	  1	  6	  5	  1	  1	  1	0.55697	  1	0.60000	  0	 21	 60	 61	  0	
19-Apr-2013	sub2318	2318	  2	  1	133	  4	  2	  6	  5	  5	  1	  1	  0	0.42613	  0	0.60000	  0	 26	 85	 86	  1	
19-Apr-2013	sub2318	2318	  2	  1	134	  4	  2	  5	  3	  5	  0	  2	  1	0.35838	  0	0.60000	  0	 25	 87	 68	  1	
19-Apr-2013	sub2318	2318	  2	  1	135	  4	  2	  2	  2	  4	  1	  2	  1	0.44462	  1	0.60000	  0	 22	 60	 61	  1	
19-Apr-2013	sub2318	2318	  2	  1	136	  4	  2	  5	  3	  5	  0	  2	  1	0.39326	  0	0.60000	  0	 25	 87	 68	  1	
19-Apr-2013	sub2318	2318	  2	  1	137	  4	  2	  5	  3	  5	  0	  2	  1	0.41328	  0	0.60000	  0	 25	 87	 68	  1	
19-Apr-2013	sub2318	2318	  2	  1	138	  4	  2	  3	  1	  2	  1	  2	  0	0.39569	  0	0.60000	  0	 23	 82	 83	  1	
19-Apr-2013	sub2318	2318	  2	  1	139	  4	  2	  6	  5	  5	  1	  2	  1	0.54261	  1	0.60000	  0	 26	 65	 66	  0	
19-Apr-2013	sub2318	2318	  2	  1	140	  4	  2	  6	  5	  5	  0	  1	  1	0.35158	  0	0.60000	  0	 26	 87	 68	  1	
19-Apr-2013	sub2318	2318	  2	  1	141	  4	  2	  5	  3	  5	  0	  2	  1	0.44215	  0	0.60000	  0	 25	 87	 68	  1	
19-Apr-2013	sub2318	2318	  2	  1	142	  4	  2	  2	  2	  4	  1	  2	  1	0.42602	  1	0.60000	  0	 22	 60	 61	  1	
19-Apr-2013	sub2318	2318	  2	  1	143	  4	  2	  3	  1	  2	  1	  2	  0	0.38415	  0	0.60000	  0	 23	 82	 83	  1	
19-Apr-2013	sub2318	2318	  2	  1	144	  4	  2	  4	  4	  5	  1	  2	  1	0.52933	  1	0.60000	  0	 24	 62	 63	  0	
19-Apr-2013	sub2318	2318	  2	  1	145	  4	  2	  3	  1	  2	  1	  1	  1	0.43899	  1	0.60000	  0	 23	 62	 63	  1	
19-Apr-2013	sub2318	2318	  2	  1	146	  4	  2	  1	  6	  5	  1	  1	  1	0.40375	  1	0.60000	  0	 21	 60	 61	  1	
19-Apr-2013	sub2318	2318	  2	  1	147	  4	  2	  1	  6	  5	  1	  1	  1	0.40321	  1	0.60000	  0	 21	 60	 61	  1	
19-Apr-2013	sub2318	2318	  2	  1	148	  4	  2	  2	  2	  4	  1	  2	  1	0.44220	  1	0.60000	  0	 22	 60	 61	  1	
19-Apr-2013	sub2318	2318	  2	  1	149	  4	  2	  5	  3	  5	  0	  2	  1	0.33608	  0	0.60000	  0	 25	 87	 68	  1	
19-Apr-2013	sub2318	2318	  2	  1	150	  4	  2	  4	  4	  5	  1	  2	  1	0.38331	  1	0.60000	  0	 24	 62	 63	  1	
19-Apr-2013	sub2318	2318	  2	  1	  1	  5	  1	  6	  6	  1	  0	  1	  1	0.77529	  0	0.60000	  1	 16	 47	 51	  0	
19-Apr-2013	sub2318	2318	  2	  1	  2	  5	  1	  2	  4	  3	  1	  1	  0	0.39251	  0	0.90000	  0	 12	 40	 41	  1	
19-Apr-2013	sub2318	2318	  2	  1	  3	  5	  1	  4	  3	  3	  1	  1	  0	0.34149	  0	0.90000	  0	 14	 42	 43	  1	
19-Apr-2013	sub2318	2318	  2	  1	  4	  5	  1	  4	  3	  3	  1	  1	  0	0.37025	  0	0.90000	  0	 14	 42	 43	  1	
19-Apr-2013	sub2318	2318	  2	  1	  5	  5	  1	  6	  6	  1	  1	  2	  1	0.40809	  1	0.90000	  0	 16	 35	 36	  1	
19-Apr-2013	sub2318	2318	  2	  1	  6	  5	  1	  5	  5	  1	  0	  2	  1	0.48366	  0	0.90000	  0	 15	 47	 38	  1	
19-Apr-2013	sub2318	2318	  2	  1	  7	  5	  1	  6	  6	  1	  1	  2	  1	0.35768	  1	0.90000	  0	 16	 35	 36	  1	
19-Apr-2013	sub2318	2318	  2	  1	  8	  5	  1	  3	  2	  1	  1	  2	  0	0.47480	  0	0.90000	  0	 13	 42	 43	  1	
19-Apr-2013	sub2318	2318	  2	  1	  9	  5	  1	  1	  1	  3	  1	  2	  0	0.48922	  0	0.90000	  0	 11	 40	 41	  1	
19-Apr-2013	sub2318	2318	  2	  1	 10	  5	  1	  3	  2	  1	  0	  2	  1	0.38952	  0	0.90000	  0	 13	 44	 39	  1	
19-Apr-2013	sub2318	2318	  2	  1	 11	  5	  1	  2	  4	  3	  1	  2	  1	0.40276	  1	0.90000	  0	 12	 30	 31	  1	
19-Apr-2013	sub2318	2318	  2	  1	 12	  5	  1	  6	  6	  1	  0	  2	  0	0.41945	  1	0.90000	  0	 16	 37	 48	  1	
19-Apr-2013	sub2318	2318	  2	  1	 13	  5	  1	  2	  4	  3	  1	  2	  1	0.35664	  1	0.90000	  0	 12	 30	 31	  1	
19-Apr-2013	sub2318	2318	  2	  1	 14	  5	  1	  3	  2	  1	  1	  2	  0	0.40182	  0	0.90000	  0	 13	 42	 43	  1	
19-Apr-2013	sub2318	2318	  2	  1	 15	  5	  1	  1	  1	  3	  1	  2	  0	0.36892	  0	0.90000	  0	 11	 40	 41	  1	
19-Apr-2013	sub2318	2318	  2	  1	 16	  5	  1	  1	  1	  3	  1	  2	  0	0.32544	  0	0.80000	  0	 11	 40	 41	  1	
19-Apr-2013	sub2318	2318	  2	  1	 17	  5	  1	  4	  3	  3	  0	  2	  0	0.52998	  1	0.80000	  0	 14	 34	 49	  0	
19-Apr-2013	sub2318	2318	  2	  1	 18	  5	  1	  3	  2	  1	  1	  2	  0	0.34428	  0	0.70000	  0	 13	 42	 43	  1	
19-Apr-2013	sub2318	2318	  2	  1	 19	  5	  1	  2	  4	  3	  1	  2	  1	0.75145	  1	0.70000	  1	 12	 30	 51	  0	
19-Apr-2013	sub2318	2318	  2	  1	 20	  5	  1	  4	  3	  3	  1	  2	  1	0.30178	  1	0.90000	  0	 14	 32	 33	  1	
19-Apr-2013	sub2318	2318	  2	  1	 21	  5	  1	  6	  6	  1	  1	  2	  1	0.33135	  1	0.90000	  0	 16	 35	 36	  1	
19-Apr-2013	sub2318	2318	  2	  1	 22	  5	  1	  1	  1	  3	  1	  2	  0	0.44153	  0	0.90000	  0	 11	 40	 41	  1	
19-Apr-2013	sub2318	2318	  2	  1	 23	  5	  1	  2	  4	  3	  1	  2	  1	0.39963	  1	0.90000	  0	 12	 30	 31	  1	
19-Apr-2013	sub2318	2318	  2	  1	 24	  5	  1	  3	  2	  1	  1	  2	  0	0.47634	  0	0.90000	  0	 13	 42	 43	  1	
19-Apr-2013	sub2318	2318	  2	  1	 25	  5	  1	  1	  1	  3	  1	  2	  0	0.45022	  0	0.90000	  0	 11	 40	 41	  1	
19-Apr-2013	sub2318	2318	  2	  1	 26	  5	  1	  5	  5	  1	  1	  2	  0	0.50653	  0	0.90000	  0	 15	 45	 46	  0	
19-Apr-2013	sub2318	2318	  2	  1	 27	  5	  1	  2	  4	  3	  1	  1	  0	0.47195	  0	0.90000	  0	 12	 40	 41	  1	
19-Apr-2013	sub2318	2318	  2	  1	 28	  5	  1	  3	  2	  1	  1	  2	  0	0.46838	  0	0.90000	  0	 13	 42	 43	  1	
19-Apr-2013	sub2318	2318	  2	  1	 29	  5	  1	  5	  5	  1	  1	  1	  1	0.53759	  1	0.90000	  0	 15	 35	 36	  0	
19-Apr-2013	sub2318	2318	  2	  1	 30	  5	  1	  6	  6	  1	  0	  2	  0	0.36291	  1	0.80000	  0	 16	 37	 48	  1	
19-Apr-2013	sub2318	2318	  2	  1	 31	  5	  1	  2	  4	  3	  1	  2	  1	0.51193	  1	0.80000	  0	 12	 30	 31	  0	
19-Apr-2013	sub2318	2318	  2	  1	 32	  5	  1	  3	  2	  1	  0	  2	  1	0.34673	  0	0.80000	  0	 13	 44	 39	  1	
19-Apr-2013	sub2318	2318	  2	  1	 33	  5	  1	  6	  6	  1	  1	  2	  1	0.39531	  1	0.80000	  0	 16	 35	 36	  1	
19-Apr-2013	sub2318	2318	  2	  1	 34	  5	  1	  1	  1	  3	  1	  2	  0	0.49462	  0	0.80000	  0	 11	 40	 41	  1	
19-Apr-2013	sub2318	2318	  2	  1	 35	  5	  1	  5	  5	  1	  1	  1	  1	0.54224	  1	0.70000	  0	 15	 35	 36	  0	
19-Apr-2013	sub2318	2318	  2	  1	 36	  5	  1	  1	  1	  3	  1	  1	  1	0.38454	  1	0.70000	  0	 11	 30	 31	  1	
19-Apr-2013	sub2318	2318	  2	  1	 37	  5	  1	  5	  5	  1	  1	  1	  1	0.38462	  1	0.70000	  0	 15	 35	 36	  1	
19-Apr-2013	sub2318	2318	  2	  1	 38	  5	  1	  2	  4	  3	  1	  1	  0	0.43387	  0	0.70000	  0	 12	 40	 41	  1	
19-Apr-2013	sub2318	2318	  2	  1	 39	  5	  1	  4	  3	  3	  0	  1	  1	0.45985	  0	0.70000	  0	 14	 44	 39	  1	
19-Apr-2013	sub2318	2318	  2	  1	 40	  5	  1	  5	  5	  1	  1	  1	  1	0.56351	  1	0.70000	  0	 15	 35	 36	  0	
19-Apr-2013	sub2318	2318	  2	  1	 41	  5	  1	  6	  6	  1	  0	  2	  0	0.49803	  1	0.60000	  0	 16	 37	 48	  1	
19-Apr-2013	sub2318	2318	  2	  1	 42	  5	  1	  4	  3	  3	  1	  1	  0	0.54058	  0	0.60000	  0	 14	 42	 43	  0	
19-Apr-2013	sub2318	2318	  2	  1	 43	  5	  1	  4	  3	  3	  1	  2	  1	0.25672	  1	0.60000	  0	 14	 32	 33	  1	
19-Apr-2013	sub2318	2318	  2	  1	 44	  5	  1	  1	  1	  3	  1	  2	  0	0.44937	  0	0.60000	  0	 11	 40	 41	  1	
19-Apr-2013	sub2318	2318	  2	  1	 45	  5	  1	  6	  6	  1	  0	  2	  0	0.46765	  1	0.60000	  0	 16	 37	 48	  1	
19-Apr-2013	sub2318	2318	  2	  1	 46	  5	  1	  6	  6	  1	  0	  2	  0	0.38831	  1	0.60000	  0	 16	 37	 48	  1	
19-Apr-2013	sub2318	2318	  2	  1	 47	  5	  1	  6	  6	  1	  0	  2	  0	0.41378	  1	0.60000	  0	 16	 37	 48	  1	
19-Apr-2013	sub2318	2318	  2	  1	 48	  5	  1	  4	  3	  3	  1	  1	  0	0.46010	  0	0.60000	  0	 14	 42	 43	  1	
19-Apr-2013	sub2318	2318	  2	  1	 49	  5	  1	  1	  1	  3	  1	  2	  0	0.48545	  0	0.60000	  0	 11	 40	 41	  1	
19-Apr-2013	sub2318	2318	  2	  1	 50	  5	  1	  5	  5	  1	  0	  1	  0	0.40862	  1	0.60000	  0	 15	 37	 48	  1	
19-Apr-2013	sub2318	2318	  2	  1	 51	  5	  1	  5	  5	  1	  1	  1	  1	0.28587	  1	0.50000	  0	 15	 35	 36	  1	
19-Apr-2013	sub2318	2318	  2	  1	 52	  5	  1	  1	  1	  3	  1	  1	  1	0.29001	  1	0.50000	  0	 11	 30	 31	  1	
19-Apr-2013	sub2318	2318	  2	  1	 53	  5	  1	  4	  3	  3	  1	  2	  1	0.41980	  1	0.50000	  0	 14	 32	 33	  1	
19-Apr-2013	sub2318	2318	  2	  1	 54	  5	  1	  4	  3	  3	  1	  2	  1	0.34340	  1	0.50000	  0	 14	 32	 33	  1	
19-Apr-2013	sub2318	2318	  2	  1	 55	  5	  1	  5	  5	  1	  0	  2	  1	0.27458	  0	0.50000	  0	 15	 47	 38	  1	
19-Apr-2013	sub2318	2318	  2	  1	 56	  5	  1	  2	  4	  3	  1	  1	  0	0.22526	  0	0.50000	  0	 12	 40	 41	  1	
19-Apr-2013	sub2318	2318	  2	  1	 57	  5	  1	  2	  4	  3	  1	  2	  1	0.40960	  1	0.50000	  0	 12	 30	 31	  1	
19-Apr-2013	sub2318	2318	  2	  1	 58	  5	  1	  5	  5	  1	  0	  1	  0	0.53695	  1	0.50000	  1	 15	 37	 51	  0	
19-Apr-2013	sub2318	2318	  2	  1	 59	  5	  1	  3	  2	  1	  1	  2	  0	0.47533	  0	0.70000	  0	 13	 42	 43	  1	
19-Apr-2013	sub2318	2318	  2	  1	 60	  5	  1	  5	  5	  1	  0	  1	  0	0.45854	  1	0.70000	  0	 15	 37	 48	  1	
19-Apr-2013	sub2318	2318	  2	  1	 61	  5	  1	  6	  6	  1	  1	  2	  1	0.49432	  1	0.60000	  0	 16	 35	 36	  1	
19-Apr-2013	sub2318	2318	  2	  1	 62	  5	  1	  2	  4	  3	  1	  2	  1	0.54353	  1	0.60000	  0	 12	 30	 31	  0	
19-Apr-2013	sub2318	2318	  2	  1	 63	  5	  1	  2	  4	  3	  1	  2	  1	0.38094	  1	0.60000	  0	 12	 30	 31	  1	
19-Apr-2013	sub2318	2318	  2	  1	 64	  5	  1	  2	  4	  3	  1	  2	  1	0.36285	  1	0.60000	  0	 12	 30	 31	  1	
19-Apr-2013	sub2318	2318	  2	  1	 65	  5	  1	  3	  2	  1	  1	  2	  0	0.50264	  0	0.60000	  0	 13	 42	 43	  0	
19-Apr-2013	sub2318	2318	  2	  1	 66	  5	  1	  6	  6	  1	  1	  2	  1	0.49369	  1	0.60000	  0	 16	 35	 36	  1	
19-Apr-2013	sub2318	2318	  2	  1	 67	  5	  1	  3	  2	  1	  1	  2	  0	0.38076	  0	0.60000	  0	 13	 42	 43	  1	
19-Apr-2013	sub2318	2318	  2	  1	 68	  5	  1	  1	  1	  3	  1	  1	  1	0.61990	  1	0.60000	  1	 11	 30	 51	  0	
19-Apr-2013	sub2318	2318	  2	  1	 69	  5	  1	  4	  3	  3	  1	  1	  0	0.49920	  0	0.70000	  0	 14	 42	 43	  1	
19-Apr-2013	sub2318	2318	  2	  1	 70	  5	  1	  3	  2	  1	  1	  2	  0	0.51152	  0	0.70000	  0	 13	 42	 43	  0	
19-Apr-2013	sub2318	2318	  2	  1	 71	  5	  1	  4	  3	  3	  1	  2	  1	0.36386	  1	0.70000	  0	 14	 32	 33	  1	
19-Apr-2013	sub2318	2318	  2	  1	 72	  5	  1	  3	  2	  1	  0	  2	  1	0.32093	  0	0.70000	  0	 13	 44	 39	  1	
19-Apr-2013	sub2318	2318	  2	  1	 73	  5	  1	  1	  1	  3	  1	  2	  0	0.44299	  0	0.70000	  0	 11	 40	 41	  1	
19-Apr-2013	sub2318	2318	  2	  1	 74	  5	  1	  3	  2	  1	  1	  2	  0	0.45993	  0	0.70000	  0	 13	 42	 43	  1	
19-Apr-2013	sub2318	2318	  2	  1	 75	  5	  1	  5	  5	  1	  1	  1	  1	0.55310	  1	0.70000	  0	 15	 35	 36	  0	
19-Apr-2013	sub2318	2318	  2	  1	 76	  5	  2	  3	  2	  1	  1	  2	  0	0.48632	  0	0.70000	  0	 23	 82	 83	  1	
19-Apr-2013	sub2318	2318	  2	  1	 77	  5	  2	  2	  4	  3	  1	  2	  1	0.49375	  1	0.70000	  0	 22	 60	 61	  1	
19-Apr-2013	sub2318	2318	  2	  1	 78	  5	  2	  6	  6	  1	  0	  2	  0	0.31611	  1	0.70000	  0	 26	 67	 88	  1	
19-Apr-2013	sub2318	2318	  2	  1	 79	  5	  2	  3	  2	  1	  1	  2	  0	0.45174	  0	0.70000	  0	 23	 82	 83	  1	
19-Apr-2013	sub2318	2318	  2	  1	 80	  5	  2	  6	  6	  1	  1	  2	  1	0.33038	  1	0.70000	  0	 26	 65	 66	  1	
19-Apr-2013	sub2318	2318	  2	  1	 81	  5	  2	  4	  3	  3	  1	  2	  1	0.43533	  1	0.60000	  0	 24	 62	 63	  1	
19-Apr-2013	sub2318	2318	  2	  1	 82	  5	  2	  2	  4	  3	  1	  2	  1	0.24579	  1	0.60000	  0	 22	 60	 61	  1	
19-Apr-2013	sub2318	2318	  2	  1	 83	  5	  2	  1	  1	  3	  1	  1	  1	0.48692	  1	0.60000	  0	 21	 60	 61	  1	
19-Apr-2013	sub2318	2318	  2	  1	 84	  5	  2	  5	  5	  1	  0	  2	  1	0.47261	  0	0.60000	  0	 25	 87	 68	  1	
19-Apr-2013	sub2318	2318	  2	  1	 85	  5	  2	  1	  1	  3	  1	  1	  1	0.41121	  1	0.60000	  0	 21	 60	 61	  1	
19-Apr-2013	sub2318	2318	  2	  1	 86	  5	  2	  5	  5	  1	  0	  1	  0	0.42861	  1	0.60000	  0	 25	 67	 88	  1	
19-Apr-2013	sub2318	2318	  2	  1	 87	  5	  2	  1	  1	  3	  1	  1	  1	0.39733	  1	0.60000	  0	 21	 60	 61	  1	
19-Apr-2013	sub2318	2318	  2	  1	 88	  5	  2	  5	  5	  1	  0	  1	  0	0.27255	  1	0.60000	  0	 25	 67	 88	  1	
19-Apr-2013	sub2318	2318	  2	  1	 89	  5	  2	  6	  6	  1	  0	  1	  1	0.41056	  0	0.60000	  0	 26	 87	 68	  1	
19-Apr-2013	sub2318	2318	  2	  1	 90	  5	  2	  2	  4	  3	  1	  2	  1	0.37388	  1	0.60000	  0	 22	 60	 61	  1	
19-Apr-2013	sub2318	2318	  2	  1	 91	  5	  2	  5	  5	  1	  0	  2	  1	0.33755	  0	0.60000	  0	 25	 87	 68	  1	
19-Apr-2013	sub2318	2318	  2	  1	 92	  5	  2	  3	  2	  1	  0	  2	  1	0.43018	  0	0.60000	  0	 23	 84	 69	  1	
19-Apr-2013	sub2318	2318	  2	  1	 93	  5	  2	  5	  5	  1	  0	  1	  0	0.54899	  1	0.60000	  0	 25	 67	 88	  0	
19-Apr-2013	sub2318	2318	  2	  1	 94	  5	  2	  5	  5	  1	  0	  1	  0	0.33227	  1	0.60000	  0	 25	 67	 88	  1	
19-Apr-2013	sub2318	2318	  2	  1	 95	  5	  2	  6	  6	  1	  1	  2	  1	0.41074	  1	0.60000	  0	 26	 65	 66	  1	
19-Apr-2013	sub2318	2318	  2	  1	 96	  5	  2	  3	  2	  1	  1	  2	  0	3.90533	  0	0.60000	  1	 23	 82	 51	  0	
19-Apr-2013	sub2318	2318	  2	  1	 97	  5	  2	  2	  4	  3	  1	  2	  1	0.49369	  1	0.70000	  0	 22	 60	 61	  1	
19-Apr-2013	sub2318	2318	  2	  1	 98	  5	  2	  3	  2	  1	  0	  2	  1	0.42171	  0	0.70000	  0	 23	 84	 69	  1	
19-Apr-2013	sub2318	2318	  2	  1	 99	  5	  2	  3	  2	  1	  1	  2	  0	0.37650	  0	0.70000	  0	 23	 82	 83	  1	
19-Apr-2013	sub2318	2318	  2	  1	100	  5	  2	  4	  3	  3	  1	  1	  0	0.46702	  0	0.70000	  0	 24	 82	 83	  1	
19-Apr-2013	sub2318	2318	  2	  1	101	  5	  2	  5	  5	  1	  0	  1	  0	0.49311	  1	0.60000	  0	 25	 67	 88	  1	
19-Apr-2013	sub2318	2318	  2	  1	102	  5	  2	  1	  1	  3	  1	  2	  0	0.43282	  0	0.60000	  0	 21	 80	 81	  1	
19-Apr-2013	sub2318	2318	  2	  1	103	  5	  2	  6	  6	  1	  1	  1	  0	0.32887	  0	0.60000	  0	 26	 85	 86	  1	
19-Apr-2013	sub2318	2318	  2	  1	104	  5	  2	  6	  6	  1	  1	  2	  1	0.34443	  1	0.60000	  0	 26	 65	 66	  1	
19-Apr-2013	sub2318	2318	  2	  1	105	  5	  2	  1	  1	  3	  1	  1	  1	0.52787	  1	0.60000	  0	 21	 60	 61	  0	
19-Apr-2013	sub2318	2318	  2	  1	106	  5	  2	  4	  3	  3	  0	  1	  1	0.51234	  0	0.60000	  0	 24	 84	 69	  0	
19-Apr-2013	sub2318	2318	  2	  1	107	  5	  2	  3	  2	  1	  1	  2	  0	0.39981	  0	0.60000	  0	 23	 82	 83	  1	
19-Apr-2013	sub2318	2318	  2	  1	108	  5	  2	  2	  4	  3	  1	  2	  1	0.44883	  1	0.60000	  0	 22	 60	 61	  1	
19-Apr-2013	sub2318	2318	  2	  1	109	  5	  2	  1	  1	  3	  1	  1	  1	0.56014	  1	0.60000	  0	 21	 60	 61	  0	
19-Apr-2013	sub2318	2318	  2	  1	110	  5	  2	  3	  2	  1	  1	  2	  0	0.42598	  0	0.60000	  0	 23	 82	 83	  1	
19-Apr-2013	sub2318	2318	  2	  1	111	  5	  2	  4	  3	  3	  0	  1	  1	0.49964	  0	0.60000	  0	 24	 84	 69	  1	
19-Apr-2013	sub2318	2318	  2	  1	112	  5	  2	  5	  5	  1	  0	  1	  0	0.50485	  1	0.60000	  0	 25	 67	 88	  0	
19-Apr-2013	sub2318	2318	  2	  1	113	  5	  2	  3	  2	  1	  1	  2	  0	0.50066	  0	0.60000	  0	 23	 82	 83	  1	
19-Apr-2013	sub2318	2318	  2	  1	114	  5	  2	  4	  3	  3	  1	  2	  1	0.41180	  1	0.60000	  0	 24	 62	 63	  1	
19-Apr-2013	sub2318	2318	  2	  1	115	  5	  2	  6	  6	  1	  1	  1	  0	0.35412	  0	0.60000	  0	 26	 85	 86	  1	
19-Apr-2013	sub2318	2318	  2	  1	116	  5	  2	  2	  4	  3	  1	  2	  1	0.49306	  1	0.60000	  0	 22	 60	 61	  1	
19-Apr-2013	sub2318	2318	  2	  1	117	  5	  2	  6	  6	  1	  0	  2	  0	0.38381	  1	0.60000	  0	 26	 67	 88	  1	
19-Apr-2013	sub2318	2318	  2	  1	118	  5	  2	  1	  1	  3	  1	  1	  1	0.64246	  1	0.60000	  1	 21	 60	 51	  0	
19-Apr-2013	sub2318	2318	  2	  1	119	  5	  2	  5	  5	  1	  0	  1	  0	0.41607	  1	0.70000	  0	 25	 67	 88	  1	
19-Apr-2013	sub2318	2318	  2	  1	120	  5	  2	  2	  4	  3	  1	  2	  1	0.51815	  1	0.70000	  0	 22	 60	 61	  0	
19-Apr-2013	sub2318	2318	  2	  1	121	  5	  2	  2	  4	  3	  1	  1	  0	0.35582	  0	0.60000	  0	 22	 80	 81	  1	
19-Apr-2013	sub2318	2318	  2	  1	122	  5	  2	  1	  1	  3	  1	  1	  1	0.49838	  1	0.60000	  0	 21	 60	 61	  1	
19-Apr-2013	sub2318	2318	  2	  1	123	  5	  2	  4	  3	  3	  1	  1	  0	0.54999	  0	0.60000	  0	 24	 82	 83	  0	
19-Apr-2013	sub2318	2318	  2	  1	124	  5	  2	  3	  2	  1	  1	  2	  0	0.42101	  0	0.60000	  0	 23	 82	 83	  1	
19-Apr-2013	sub2318	2318	  2	  1	125	  5	  2	  1	  1	  3	  1	  1	  1	0.47994	  1	0.60000	  0	 21	 60	 61	  1	
19-Apr-2013	sub2318	2318	  2	  1	126	  5	  2	  4	  3	  3	  1	  2	  1	0.40803	  1	0.60000	  0	 24	 62	 63	  1	
19-Apr-2013	sub2318	2318	  2	  1	127	  5	  2	  6	  6	  1	  1	  2	  1	0.40979	  1	0.60000	  0	 26	 65	 66	  1	
19-Apr-2013	sub2318	2318	  2	  1	128	  5	  2	  5	  5	  1	  0	  2	  1	0.36510	  0	0.60000	  0	 25	 87	 68	  1	
19-Apr-2013	sub2318	2318	  2	  1	129	  5	  2	  6	  6	  1	  0	  2	  0	0.37219	  1	0.60000	  0	 26	 67	 88	  1	
19-Apr-2013	sub2318	2318	  2	  1	130	  5	  2	  4	  3	  3	  1	  1	  0	0.41662	  0	0.60000	  0	 24	 82	 83	  1	
19-Apr-2013	sub2318	2318	  2	  1	131	  5	  2	  5	  5	  1	  0	  2	  1	0.41700	  0	0.60000	  0	 25	 87	 68	  1	
19-Apr-2013	sub2318	2318	  2	  1	132	  5	  2	  4	  3	  3	  0	  2	  0	0.44800	  1	0.60000	  0	 24	 64	 89	  1	
19-Apr-2013	sub2318	2318	  2	  1	133	  5	  2	  3	  2	  1	  1	  2	  0	0.47399	  0	0.60000	  0	 23	 82	 83	  1	
19-Apr-2013	sub2318	2318	  2	  1	134	  5	  2	  3	  2	  1	  1	  2	  0	0.39285	  0	0.60000	  0	 23	 82	 83	  1	
19-Apr-2013	sub2318	2318	  2	  1	135	  5	  2	  5	  5	  1	  0	  2	  1	0.46374	  0	0.60000	  0	 25	 87	 68	  1	
19-Apr-2013	sub2318	2318	  2	  1	136	  5	  2	  4	  3	  3	  1	  2	  1	0.56732	  1	0.60000	  0	 24	 62	 63	  0	
19-Apr-2013	sub2318	2318	  2	  1	137	  5	  2	  1	  1	  3	  1	  1	  1	0.48752	  1	0.60000	  0	 21	 60	 61	  1	
19-Apr-2013	sub2318	2318	  2	  1	138	  5	  2	  1	  1	  3	  1	  1	  1	0.45244	  1	0.60000	  0	 21	 60	 61	  1	
19-Apr-2013	sub2318	2318	  2	  1	139	  5	  2	  6	  6	  1	  0	  1	  1	0.45271	  0	0.60000	  0	 26	 87	 68	  1	
19-Apr-2013	sub2318	2318	  2	  1	140	  5	  2	  4	  3	  3	  1	  1	  0	0.49795	  0	0.60000	  0	 24	 82	 83	  1	
19-Apr-2013	sub2318	2318	  2	  1	141	  5	  2	  6	  6	  1	  0	  2	  0	0.46938	  1	0.60000	  0	 26	 67	 88	  1	
19-Apr-2013	sub2318	2318	  2	  1	142	  5	  2	  2	  4	  3	  1	  2	  1	0.53525	  1	0.60000	  0	 22	 60	 61	  0	
19-Apr-2013	sub2318	2318	  2	  1	143	  5	  2	  5	  5	  1	  0	  2	  1	0.43705	  0	0.60000	  0	 25	 87	 68	  1	
19-Apr-2013	sub2318	2318	  2	  1	144	  5	  2	  2	  4	  3	  1	  1	  0	0.37788	  0	0.60000	  0	 22	 80	 81	  1	
19-Apr-2013	sub2318	2318	  2	  1	145	  5	  2	  2	  4	  3	  1	  2	  1	0.29930	  1	0.60000	  0	 22	 60	 61	  1	
19-Apr-2013	sub2318	2318	  2	  1	146	  5	  2	  4	  3	  3	  1	  2	  1	0.27401	  1	0.60000	  0	 24	 62	 63	  1	
19-Apr-2013	sub2318	2318	  2	  1	147	  5	  2	  2	  4	  3	  1	  2	  1	0.42333	  1	0.60000	  0	 22	 60	 61	  1	
19-Apr-2013	sub2318	2318	  2	  1	148	  5	  2	  1	  1	  3	  1	  1	  1	0.48904	  1	0.60000	  0	 21	 60	 61	  1	
19-Apr-2013	sub2318	2318	  2	  1	149	  5	  2	  4	  3	  3	  1	  2	  1	0.40141	  1	0.60000	  0	 24	 62	 63	  1	
19-Apr-2013	sub2318	2318	  2	  1	150	  5	  2	  1	  1	  3	  1	  2	  0	0.42483	  0	0.60000	  0	 21	 80	 81	  1	
19-Apr-2013	sub2318	2318	  2	  1	  1	  6	  1	  3	  1	  5	  1	  1	  1	0.52862	  1	0.60000	  0	 13	 32	 33	  0	
19-Apr-2013	sub2318	2318	  2	  1	  2	  6	  1	  6	  2	  6	  0	  1	  1	0.23330	  0	0.30000	  0	 16	 47	 38	  1	
19-Apr-2013	sub2318	2318	  2	  1	  3	  6	  1	  5	  6	  2	  1	  1	  1	0.43728	  1	0.30000	  1	 15	 35	 51	  1	
19-Apr-2013	sub2318	2318	  2	  1	  4	  6	  1	  2	  5	  2	  1	  1	  0	0.27487	  0	0.90000	  0	 12	 40	 41	  1	
19-Apr-2013	sub2318	2318	  2	  1	  5	  6	  1	  4	  3	  2	  1	  1	  0	0.41389	  0	0.90000	  0	 14	 42	 43	  1	
19-Apr-2013	sub2318	2318	  2	  1	  6	  6	  1	  6	  2	  6	  0	  1	  1	0.51169	  0	0.90000	  0	 16	 47	 38	  0	
19-Apr-2013	sub2318	2318	  2	  1	  7	  6	  1	  3	  1	  5	  0	  1	  0	0.36982	  1	0.90000	  0	 13	 34	 49	  1	
19-Apr-2013	sub2318	2318	  2	  1	  8	  6	  1	  3	  1	  5	  1	  1	  1	0.40995	  1	0.90000	  0	 13	 32	 33	  1	
19-Apr-2013	sub2318	2318	  2	  1	  9	  6	  1	  1	  4	  2	  1	  1	  1	0.93526	  1	0.90000	  1	 11	 30	 51	  0	
19-Apr-2013	sub2318	2318	  2	  1	 10	  6	  1	  6	  2	  6	  0	  1	  1	0.26069	  0	0.90000	  0	 16	 47	 38	  1	
19-Apr-2013	sub2318	2318	  2	  1	 11	  6	  1	  3	  1	  5	  1	  1	  1	0.24243	  1	0.90000	  0	 13	 32	 33	  1	
19-Apr-2013	sub2318	2318	  2	  1	 12	  6	  1	  2	  5	  2	  1	  2	  1	0.30383	  1	0.90000	  0	 12	 30	 31	  1	
19-Apr-2013	sub2318	2318	  2	  1	 13	  6	  1	  2	  5	  2	  1	  2	  1	0.33521	  1	0.90000	  0	 12	 30	 31	  1	
19-Apr-2013	sub2318	2318	  2	  1	 14	  6	  1	  6	  2	  6	  0	  1	  1	0.29138	  0	0.90000	  0	 16	 47	 38	  1	
19-Apr-2013	sub2318	2318	  2	  1	 15	  6	  1	  4	  3	  2	  1	  2	  1	0.38575	  1	0.90000	  0	 14	 32	 33	  1	
19-Apr-2013	sub2318	2318	  2	  1	 16	  6	  1	  6	  2	  6	  1	  1	  0	0.30499	  0	0.90000	  0	 16	 45	 46	  1	
19-Apr-2013	sub2318	2318	  2	  1	 17	  6	  1	  2	  5	  2	  1	  2	  1	0.30256	  1	0.90000	  0	 12	 30	 31	  1	
19-Apr-2013	sub2318	2318	  2	  1	 18	  6	  1	  3	  1	  5	  1	  1	  1	0.34893	  1	0.90000	  0	 13	 32	 33	  1	
19-Apr-2013	sub2318	2318	  2	  1	 19	  6	  1	  4	  3	  2	  1	  2	  1	0.43231	  1	0.90000	  0	 14	 32	 33	  1	
19-Apr-2013	sub2318	2318	  2	  1	 20	  6	  1	  3	  1	  5	  1	  1	  1	0.34204	  1	0.90000	  0	 13	 32	 33	  1	
19-Apr-2013	sub2318	2318	  2	  1	 21	  6	  1	  1	  4	  2	  1	  2	  0	0.42328	  0	0.90000	  0	 11	 40	 41	  1	
19-Apr-2013	sub2318	2318	  2	  1	 22	  6	  1	  4	  3	  2	  0	  1	  1	0.28892	  0	0.90000	  0	 14	 44	 39	  1	
19-Apr-2013	sub2318	2318	  2	  1	 23	  6	  1	  6	  2	  6	  0	  1	  1	0.46095	  0	0.90000	  0	 16	 47	 38	  1	
19-Apr-2013	sub2318	2318	  2	  1	 24	  6	  1	  1	  4	  2	  1	  1	  1	0.45247	  1	0.90000	  0	 11	 30	 31	  1	
19-Apr-2013	sub2318	2318	  2	  1	 25	  6	  1	  4	  3	  2	  1	  1	  0	0.38000	  0	0.90000	  0	 14	 42	 43	  1	
19-Apr-2013	sub2318	2318	  2	  1	 26	  6	  1	  4	  3	  2	  1	  2	  1	0.50008	  1	0.90000	  0	 14	 32	 33	  1	
19-Apr-2013	sub2318	2318	  2	  1	 27	  6	  1	  1	  4	  2	  1	  1	  1	0.45081	  1	0.90000	  0	 11	 30	 31	  1	
19-Apr-2013	sub2318	2318	  2	  1	 28	  6	  1	  2	  5	  2	  1	  2	  1	0.41475	  1	0.90000	  0	 12	 30	 31	  1	
19-Apr-2013	sub2318	2318	  2	  1	 29	  6	  1	  1	  4	  2	  1	  1	  1	0.43553	  1	0.90000	  0	 11	 30	 31	  1	
19-Apr-2013	sub2318	2318	  2	  1	 30	  6	  1	  2	  5	  2	  1	  2	  1	0.38107	  1	0.80000	  0	 12	 30	 31	  1	
19-Apr-2013	sub2318	2318	  2	  1	 31	  6	  1	  2	  5	  2	  1	  2	  1	0.33748	  1	0.80000	  0	 12	 30	 31	  1	
19-Apr-2013	sub2318	2318	  2	  1	 32	  6	  1	  5	  6	  2	  0	  1	  0	0.43207	  1	0.80000	  0	 15	 37	 48	  1	
19-Apr-2013	sub2318	2318	  2	  1	 33	  6	  1	  2	  5	  2	  1	  2	  1	0.33762	  1	0.80000	  0	 12	 30	 31	  1	
19-Apr-2013	sub2318	2318	  2	  1	 34	  6	  1	  3	  1	  5	  0	  1	  0	0.44051	  1	0.80000	  0	 13	 34	 49	  1	
19-Apr-2013	sub2318	2318	  2	  1	 35	  6	  1	  5	  6	  2	  0	  2	  1	0.38735	  0	0.70000	  0	 15	 47	 38	  1	
19-Apr-2013	sub2318	2318	  2	  1	 36	  6	  1	  2	  5	  2	  1	  1	  0	0.36753	  0	0.70000	  0	 12	 40	 41	  1	
19-Apr-2013	sub2318	2318	  2	  1	 37	  6	  1	  5	  6	  2	  0	  2	  1	0.47131	  0	0.70000	  0	 15	 47	 38	  1	
19-Apr-2013	sub2318	2318	  2	  1	 38	  6	  1	  6	  2	  6	  0	  1	  1	0.48687	  0	0.70000	  0	 16	 47	 38	  1	
19-Apr-2013	sub2318	2318	  2	  1	 39	  6	  1	  1	  4	  2	  1	  1	  1	0.55893	  1	0.70000	  0	 11	 30	 31	  0	
19-Apr-2013	sub2318	2318	  2	  1	 40	  6	  1	  5	  6	  2	  1	  2	  0	0.48542	  0	0.70000	  0	 15	 45	 46	  1	
19-Apr-2013	sub2318	2318	  2	  1	 41	  6	  1	  1	  4	  2	  1	  1	  1	0.33074	  1	0.60000	  0	 11	 30	 31	  1	
19-Apr-2013	sub2318	2318	  2	  1	 42	  6	  1	  5	  6	  2	  0	  2	  1	0.40549	  0	0.60000	  0	 15	 47	 38	  1	
19-Apr-2013	sub2318	2318	  2	  1	 43	  6	  1	  4	  3	  2	  1	  1	  0	0.38515	  0	0.60000	  0	 14	 42	 43	  1	
19-Apr-2013	sub2318	2318	  2	  1	 44	  6	  1	  6	  2	  6	  1	  1	  0	0.43939	  0	0.60000	  0	 16	 45	 46	  1	
19-Apr-2013	sub2318	2318	  2	  1	 45	  6	  1	  5	  6	  2	  0	  2	  1	0.45211	  0	0.60000	  0	 15	 47	 38	  1	
19-Apr-2013	sub2318	2318	  2	  1	 46	  6	  1	  1	  4	  2	  1	  1	  1	0.49523	  1	0.60000	  0	 11	 30	 31	  1	
19-Apr-2013	sub2318	2318	  2	  1	 47	  6	  1	  5	  6	  2	  0	  2	  1	0.37437	  0	0.60000	  0	 15	 47	 38	  1	
19-Apr-2013	sub2318	2318	  2	  1	 48	  6	  1	  1	  4	  2	  1	  1	  1	0.27829	  1	0.60000	  0	 11	 30	 31	  1	
19-Apr-2013	sub2318	2318	  2	  1	 49	  6	  1	  5	  6	  2	  1	  2	  0	0.37529	  0	0.60000	  0	 15	 45	 46	  1	
19-Apr-2013	sub2318	2318	  2	  1	 50	  6	  1	  6	  2	  6	  1	  1	  0	0.35610	  0	0.60000	  0	 16	 45	 46	  1	
19-Apr-2013	sub2318	2318	  2	  1	 51	  6	  1	  1	  4	  2	  1	  2	  0	0.43761	  0	0.50000	  0	 11	 40	 41	  1	
19-Apr-2013	sub2318	2318	  2	  1	 52	  6	  1	  4	  3	  2	  1	  2	  1	0.46866	  1	0.50000	  0	 14	 32	 33	  1	
19-Apr-2013	sub2318	2318	  2	  1	 53	  6	  1	  2	  5	  2	  1	  1	  0	0.32678	  0	0.50000	  0	 12	 40	 41	  1	
19-Apr-2013	sub2318	2318	  2	  1	 54	  6	  1	  3	  1	  5	  1	  1	  1	0.47877	  1	0.50000	  0	 13	 32	 33	  1	
19-Apr-2013	sub2318	2318	  2	  1	 55	  6	  1	  1	  4	  2	  1	  2	  0	0.43249	  0	0.50000	  0	 11	 40	 41	  1	
19-Apr-2013	sub2318	2318	  2	  1	 56	  6	  1	  6	  2	  6	  1	  1	  0	0.41018	  0	0.50000	  0	 16	 45	 46	  1	
19-Apr-2013	sub2318	2318	  2	  1	 57	  6	  1	  2	  5	  2	  1	  1	  0	0.35615	  0	0.50000	  0	 12	 40	 41	  1	
19-Apr-2013	sub2318	2318	  2	  1	 58	  6	  1	  3	  1	  5	  1	  1	  1	0.37914	  1	0.50000	  0	 13	 32	 33	  1	
19-Apr-2013	sub2318	2318	  2	  1	 59	  6	  1	  4	  3	  2	  1	  2	  1	0.46269	  1	0.50000	  0	 14	 32	 33	  1	
19-Apr-2013	sub2318	2318	  2	  1	 60	  6	  1	  5	  6	  2	  1	  2	  0	0.53181	  0	0.50000	  1	 15	 45	 51	  0	
19-Apr-2013	sub2318	2318	  2	  1	 61	  6	  1	  4	  3	  2	  1	  2	  1	0.41975	  1	0.60000	  0	 14	 32	 33	  1	
19-Apr-2013	sub2318	2318	  2	  1	 62	  6	  1	  6	  2	  6	  0	  1	  1	0.43169	  0	0.60000	  0	 16	 47	 38	  1	
19-Apr-2013	sub2318	2318	  2	  1	 63	  6	  1	  5	  6	  2	  1	  2	  0	0.46472	  0	0.60000	  0	 15	 45	 46	  1	
19-Apr-2013	sub2318	2318	  2	  1	 64	  6	  1	  6	  2	  6	  1	  1	  0	0.49245	  0	0.60000	  0	 16	 45	 46	  1	
19-Apr-2013	sub2318	2318	  2	  1	 65	  6	  1	  2	  5	  2	  1	  2	  1	0.37847	  1	0.60000	  0	 12	 30	 31	  1	
19-Apr-2013	sub2318	2318	  2	  1	 66	  6	  1	  3	  1	  5	  1	  1	  1	0.35006	  1	0.60000	  0	 13	 32	 33	  1	
19-Apr-2013	sub2318	2318	  2	  1	 67	  6	  1	  4	  3	  2	  0	  2	  0	0.46214	  1	0.60000	  0	 14	 34	 49	  1	
19-Apr-2013	sub2318	2318	  2	  1	 68	  6	  1	  3	  1	  5	  1	  1	  1	0.44485	  1	0.60000	  0	 13	 32	 33	  1	
19-Apr-2013	sub2318	2318	  2	  1	 69	  6	  1	  6	  2	  6	  1	  1	  0	0.48148	  0	0.60000	  0	 16	 45	 46	  1	
19-Apr-2013	sub2318	2318	  2	  1	 70	  6	  1	  4	  3	  2	  1	  2	  1	0.49192	  1	0.60000	  0	 14	 32	 33	  1	
19-Apr-2013	sub2318	2318	  2	  1	 71	  6	  1	  3	  1	  5	  0	  1	  0	0.36753	  1	0.60000	  0	 13	 34	 49	  1	
19-Apr-2013	sub2318	2318	  2	  1	 72	  6	  1	  1	  4	  2	  1	  1	  1	0.36580	  1	0.60000	  0	 11	 30	 31	  1	
19-Apr-2013	sub2318	2318	  2	  1	 73	  6	  1	  5	  6	  2	  1	  2	  0	0.37221	  0	0.60000	  0	 15	 45	 46	  1	
19-Apr-2013	sub2318	2318	  2	  1	 74	  6	  1	  3	  1	  5	  1	  2	  0	0.41964	  0	0.60000	  0	 13	 42	 43	  1	
19-Apr-2013	sub2318	2318	  2	  1	 75	  6	  1	  2	  5	  2	  1	  1	  0	0.35538	  0	0.60000	  0	 12	 40	 41	  1	
19-Apr-2013	sub2318	2318	  2	  1	 76	  6	  2	  3	  1	  5	  0	  1	  0	0.44591	  1	0.50000	  0	 23	 64	 89	  1	
19-Apr-2013	sub2318	2318	  2	  1	 77	  6	  2	  3	  1	  5	  1	  1	  1	0.41693	  1	0.50000	  0	 23	 62	 63	  1	
19-Apr-2013	sub2318	2318	  2	  1	 78	  6	  2	  4	  3	  2	  1	  2	  1	0.38034	  1	0.50000	  0	 24	 62	 63	  1	
19-Apr-2013	sub2318	2318	  2	  1	 79	  6	  2	  2	  5	  2	  1	  1	  0	0.44795	  0	0.50000	  0	 22	 80	 81	  1	
19-Apr-2013	sub2318	2318	  2	  1	 80	  6	  2	  5	  6	  2	  0	  1	  0	0.38924	  1	0.50000	  0	 25	 67	 88	  1	
19-Apr-2013	sub2318	2318	  2	  1	 81	  6	  2	  1	  4	  2	  1	  1	  1	0.42234	  1	0.50000	  0	 21	 60	 61	  1	
19-Apr-2013	sub2318	2318	  2	  1	 82	  6	  2	  5	  6	  2	  0	  2	  1	0.55615	  0	0.50000	  1	 25	 87	 51	  0	
19-Apr-2013	sub2318	2318	  2	  1	 83	  6	  2	  2	  5	  2	  1	  2	  1	0.44522	  1	0.60000	  0	 22	 60	 61	  1	
19-Apr-2013	sub2318	2318	  2	  1	 84	  6	  2	  2	  5	  2	  1	  2	  1	0.37982	  1	0.60000	  0	 22	 60	 61	  1	
19-Apr-2013	sub2318	2318	  2	  1	 85	  6	  2	  2	  5	  2	  1	  2	  1	0.28432	  1	0.60000	  0	 22	 60	 61	  1	
19-Apr-2013	sub2318	2318	  2	  1	 86	  6	  2	  4	  3	  2	  0	  2	  0	0.40233	  1	0.60000	  0	 24	 64	 89	  1	
19-Apr-2013	sub2318	2318	  2	  1	 87	  6	  2	  5	  6	  2	  0	  2	  1	0.32225	  0	0.60000	  0	 25	 87	 68	  1	
19-Apr-2013	sub2318	2318	  2	  1	 88	  6	  2	  5	  6	  2	  0	  2	  1	0.36370	  0	0.60000	  0	 25	 87	 68	  1	
19-Apr-2013	sub2318	2318	  2	  1	 89	  6	  2	  1	  4	  2	  1	  1	  1	0.53250	  1	0.60000	  0	 21	 60	 61	  0	
19-Apr-2013	sub2318	2318	  2	  1	 90	  6	  2	  3	  1	  5	  1	  2	  0	0.33021	  0	0.60000	  0	 23	 82	 83	  1	
19-Apr-2013	sub2318	2318	  2	  1	 91	  6	  2	  4	  3	  2	  1	  1	  0	0.38627	  0	0.60000	  0	 24	 82	 83	  1	
19-Apr-2013	sub2318	2318	  2	  1	 92	  6	  2	  6	  2	  6	  1	  2	  1	0.34650	  1	0.60000	  0	 26	 65	 66	  1	
19-Apr-2013	sub2318	2318	  2	  1	 93	  6	  2	  6	  2	  6	  0	  1	  1	0.40570	  0	0.60000	  0	 26	 87	 68	  1	
19-Apr-2013	sub2318	2318	  2	  1	 94	  6	  2	  6	  2	  6	  1	  1	  0	0.28241	  0	0.60000	  0	 26	 85	 86	  1	
19-Apr-2013	sub2318	2318	  2	  1	 95	  6	  2	  2	  5	  2	  1	  2	  1	0.40703	  1	0.60000	  0	 22	 60	 61	  1	
19-Apr-2013	sub2318	2318	  2	  1	 96	  6	  2	  5	  6	  2	  0	  2	  1	0.47910	  0	0.60000	  0	 25	 87	 68	  1	
19-Apr-2013	sub2318	2318	  2	  1	 97	  6	  2	  3	  1	  5	  1	  1	  1	0.44345	  1	0.60000	  0	 23	 62	 63	  1	
19-Apr-2013	sub2318	2318	  2	  1	 98	  6	  2	  4	  3	  2	  1	  2	  1	0.41934	  1	0.60000	  0	 24	 62	 63	  1	
19-Apr-2013	sub2318	2318	  2	  1	 99	  6	  2	  2	  5	  2	  1	  1	  0	0.38896	  0	0.60000	  0	 22	 80	 81	  1	
19-Apr-2013	sub2318	2318	  2	  1	100	  6	  2	  1	  4	  2	  1	  1	  1	0.59988	  1	0.60000	  0	 21	 60	 61	  0	
19-Apr-2013	sub2318	2318	  2	  1	101	  6	  2	  5	  6	  2	  0	  2	  1	0.43083	  0	0.50000	  0	 25	 87	 68	  1	
19-Apr-2013	sub2318	2318	  2	  1	102	  6	  2	  6	  2	  6	  0	  1	  1	0.47758	  0	0.50000	  0	 26	 87	 68	  1	
19-Apr-2013	sub2318	2318	  2	  1	103	  6	  2	  3	  1	  5	  1	  1	  1	0.48274	  1	0.50000	  0	 23	 62	 63	  1	
19-Apr-2013	sub2318	2318	  2	  1	104	  6	  2	  1	  4	  2	  1	  1	  1	0.45305	  1	0.50000	  0	 21	 60	 61	  1	
19-Apr-2013	sub2318	2318	  2	  1	105	  6	  2	  4	  3	  2	  0	  2	  0	0.40988	  1	0.50000	  0	 24	 64	 89	  1	
19-Apr-2013	sub2318	2318	  2	  1	106	  6	  2	  6	  2	  6	  0	  1	  1	0.50412	  0	0.50000	  1	 26	 87	 51	  0	
19-Apr-2013	sub2318	2318	  2	  1	107	  6	  2	  3	  1	  5	  0	  1	  0	0.46989	  1	0.60000	  0	 23	 64	 89	  1	
19-Apr-2013	sub2318	2318	  2	  1	108	  6	  2	  1	  4	  2	  1	  1	  1	0.35075	  1	0.60000	  0	 21	 60	 61	  1	
19-Apr-2013	sub2318	2318	  2	  1	109	  6	  2	  2	  5	  2	  1	  2	  1	0.51343	  1	0.60000	  0	 22	 60	 61	  0	
19-Apr-2013	sub2318	2318	  2	  1	110	  6	  2	  5	  6	  2	  0	  2	  1	0.38504	  0	0.60000	  0	 25	 87	 68	  1	
19-Apr-2013	sub2318	2318	  2	  1	111	  6	  2	  3	  1	  5	  1	  1	  1	0.41542	  1	0.60000	  0	 23	 62	 63	  1	
19-Apr-2013	sub2318	2318	  2	  1	112	  6	  2	  6	  2	  6	  1	  1	  0	0.39741	  0	0.60000	  0	 26	 85	 86	  1	
19-Apr-2013	sub2318	2318	  2	  1	113	  6	  2	  4	  3	  2	  1	  2	  1	0.47773	  1	0.60000	  0	 24	 62	 63	  1	
19-Apr-2013	sub2318	2318	  2	  1	114	  6	  2	  1	  4	  2	  1	  1	  1	0.45257	  1	0.60000	  0	 21	 60	 61	  1	
19-Apr-2013	sub2318	2318	  2	  1	115	  6	  2	  3	  1	  5	  1	  2	  0	0.43816	  0	0.60000	  0	 23	 82	 83	  1	
19-Apr-2013	sub2318	2318	  2	  1	116	  6	  2	  4	  3	  2	  1	  2	  1	0.50201	  1	0.60000	  0	 24	 62	 63	  0	
19-Apr-2013	sub2318	2318	  2	  1	117	  6	  2	  2	  5	  2	  1	  1	  0	0.40620	  0	0.60000	  0	 22	 80	 81	  1	
19-Apr-2013	sub2318	2318	  2	  1	118	  6	  2	  1	  4	  2	  1	  1	  1	0.42183	  1	0.60000	  0	 21	 60	 61	  1	
19-Apr-2013	sub2318	2318	  2	  1	119	  6	  2	  2	  5	  2	  1	  2	  1	0.38627	  1	0.60000	  0	 22	 60	 61	  1	
19-Apr-2013	sub2318	2318	  2	  1	120	  6	  2	  1	  4	  2	  1	  1	  1	0.37718	  1	0.60000	  0	 21	 60	 61	  1	
19-Apr-2013	sub2318	2318	  2	  1	121	  6	  2	  5	  6	  2	  0	  2	  1	0.49522	  0	0.60000	  0	 25	 87	 68	  1	
19-Apr-2013	sub2318	2318	  2	  1	122	  6	  2	  1	  4	  2	  1	  1	  1	0.49356	  1	0.60000	  0	 21	 60	 61	  1	
19-Apr-2013	sub2318	2318	  2	  1	123	  6	  2	  4	  3	  2	  1	  2	  1	0.37098	  1	0.60000	  0	 24	 62	 63	  1	
19-Apr-2013	sub2318	2318	  2	  1	124	  6	  2	  2	  5	  2	  1	  2	  1	0.57565	  1	0.60000	  0	 22	 60	 61	  0	
19-Apr-2013	sub2318	2318	  2	  1	125	  6	  2	  6	  2	  6	  1	  1	  0	0.46989	  0	0.60000	  0	 26	 85	 86	  1	
19-Apr-2013	sub2318	2318	  2	  1	126	  6	  2	  3	  1	  5	  1	  1	  1	0.47208	  1	0.50000	  0	 23	 62	 63	  1	
19-Apr-2013	sub2318	2318	  2	  1	127	  6	  2	  3	  1	  5	  1	  1	  1	0.38254	  1	0.50000	  0	 23	 62	 63	  1	
19-Apr-2013	sub2318	2318	  2	  1	128	  6	  2	  6	  2	  6	  0	  1	  1	0.48192	  0	0.50000	  0	 26	 87	 68	  1	
19-Apr-2013	sub2318	2318	  2	  1	129	  6	  2	  4	  3	  2	  1	  2	  1	0.48365	  1	0.50000	  0	 24	 62	 63	  1	
19-Apr-2013	sub2318	2318	  2	  1	130	  6	  2	  6	  2	  6	  1	  1	  0	0.47197	  0	0.50000	  0	 26	 85	 86	  1	
19-Apr-2013	sub2318	2318	  2	  1	131	  6	  2	  1	  4	  2	  1	  2	  0	0.40173	  0	0.50000	  0	 21	 80	 81	  1	
19-Apr-2013	sub2318	2318	  2	  1	132	  6	  2	  1	  4	  2	  1	  1	  1	0.28487	  1	0.50000	  0	 21	 60	 61	  1	
19-Apr-2013	sub2318	2318	  2	  1	133	  6	  2	  6	  2	  6	  1	  1	  0	0.25817	  0	0.50000	  0	 26	 85	 86	  1	
19-Apr-2013	sub2318	2318	  2	  1	134	  6	  2	  1	  4	  2	  1	  1	  1	0.43642	  1	0.50000	  0	 21	 60	 61	  1	
19-Apr-2013	sub2318	2318	  2	  1	135	  6	  2	  5	  6	  2	  0	  1	  0	0.43499	  1	0.50000	  0	 25	 67	 88	  1	
19-Apr-2013	sub2318	2318	  2	  1	136	  6	  2	  6	  2	  6	  0	  2	  0	0.36075	  1	0.50000	  0	 26	 67	 88	  1	
19-Apr-2013	sub2318	2318	  2	  1	137	  6	  2	  3	  1	  5	  1	  1	  1	0.34846	  1	0.50000	  0	 23	 62	 63	  1	
19-Apr-2013	sub2318	2318	  2	  1	138	  6	  2	  3	  1	  5	  1	  1	  1	0.34571	  1	0.50000	  0	 23	 62	 63	  1	
19-Apr-2013	sub2318	2318	  2	  1	139	  6	  2	  4	  3	  2	  0	  2	  0	0.40605	  1	0.50000	  0	 24	 64	 89	  1	
19-Apr-2013	sub2318	2318	  2	  1	140	  6	  2	  1	  4	  2	  1	  1	  1	0.35476	  1	0.50000	  0	 21	 60	 61	  1	
19-Apr-2013	sub2318	2318	  2	  1	141	  6	  2	  2	  5	  2	  1	  2	  1	0.44977	  1	0.50000	  0	 22	 60	 61	  1	
19-Apr-2013	sub2318	2318	  2	  1	142	  6	  2	  5	  6	  2	  0	  1	  0	0.37827	  1	0.50000	  0	 25	 67	 88	  1	
19-Apr-2013	sub2318	2318	  2	  1	143	  6	  2	  6	  2	  6	  0	  1	  1	0.37512	  0	0.50000	  0	 26	 87	 68	  1	
19-Apr-2013	sub2318	2318	  2	  1	144	  6	  2	  4	  3	  2	  1	  2	  1	0.41050	  1	0.50000	  0	 24	 62	 63	  1	
19-Apr-2013	sub2318	2318	  2	  1	145	  6	  2	  4	  3	  2	  1	  2	  1	0.40870	  1	0.50000	  0	 24	 62	 63	  1	
19-Apr-2013	sub2318	2318	  2	  1	146	  6	  2	  5	  6	  2	  0	  2	  1	0.47720	  0	0.50000	  0	 25	 87	 68	  1	
19-Apr-2013	sub2318	2318	  2	  1	147	  6	  2	  2	  5	  2	  1	  2	  1	0.41601	  1	0.50000	  0	 22	 60	 61	  1	
19-Apr-2013	sub2318	2318	  2	  1	148	  6	  2	  5	  6	  2	  0	  2	  1	0.40400	  0	0.50000	  0	 25	 87	 68	  1	
19-Apr-2013	sub2318	2318	  2	  1	149	  6	  2	  5	  6	  2	  0	  2	  1	0.27056	  0	0.50000	  0	 25	 87	 68	  1	
19-Apr-2013	sub2318	2318	  2	  1	150	  6	  2	  4	  3	  2	  1	  2	  1	0.33817	  1	0.50000	  0	 24	 62	 63	  1	
