Date 	 Name 	 ID 	 Gender 	 Appearance 	 Trial 	 Block 	 Bin 	 Condition 	 Category 	 Number 	 Valid 	 Keypress 	 Correct 	 RT 	 Realcorrect 	 Deadline 	 Timeout 	 Stimtrigger 	 Resptrigger 	 Fedtrigger 	 WithinTime 	 
19-Apr-2013	sub2319	2319	  2	  0	  1	  1	  1	  5	  6	  4	  1	  1	  1	1.18557	  1	0.60000	  1	 15	 35	 51	  0	
19-Apr-2013	sub2319	2319	  2	  0	  2	  1	  1	  3	  2	  3	  0	  2	  1	0.49797	  0	0.90000	  0	 13	 44	 39	  1	
19-Apr-2013	sub2319	2319	  2	  0	  3	  1	  1	  1	  1	  5	  1	  1	  1	0.56555	  1	0.90000	  0	 11	 30	 31	  0	
19-Apr-2013	sub2319	2319	  2	  0	  4	  1	  1	  4	  3	  6	  1	  1	  0	0.64492	  0	0.90000	  0	 14	 42	 43	  0	
19-Apr-2013	sub2319	2319	  2	  0	  5	  1	  1	  3	  2	  3	  0	  2	  1	0.55749	  0	0.90000	  0	 13	 44	 39	  0	
19-Apr-2013	sub2319	2319	  2	  0	  6	  1	  1	  2	  4	  6	  1	  1	  0	0.63883	  0	0.90000	  0	 12	 40	 41	  0	
19-Apr-2013	sub2319	2319	  2	  0	  7	  1	  1	  5	  6	  4	  0	  2	  1	0.76646	  0	0.90000	  0	 15	 47	 38	  0	
19-Apr-2013	sub2319	2319	  2	  0	  8	  1	  1	  2	  4	  6	  1	  2	  1	1.04670	  1	0.90000	  1	 12	 30	 51	  0	
19-Apr-2013	sub2319	2319	  2	  0	  9	  1	  1	  2	  4	  6	  1	  2	  1	0.58549	  1	0.90000	  0	 12	 30	 31	  0	
19-Apr-2013	sub2319	2319	  2	  0	 10	  1	  1	  1	  1	  5	  1	  2	  0	0.59903	  0	0.90000	  0	 11	 40	 41	  0	
19-Apr-2013	sub2319	2319	  2	  0	 11	  1	  1	  6	  5	  4	  0	  1	  1	0.76017	  0	0.90000	  0	 16	 47	 38	  0	
19-Apr-2013	sub2319	2319	  2	  0	 12	  1	  1	  5	  6	  4	  1	  2	  0	0.80963	  0	0.90000	  0	 15	 45	 46	  0	
19-Apr-2013	sub2319	2319	  2	  0	 13	  1	  1	  6	  5	  4	  1	  1	  0	0.79960	  0	0.90000	  0	 16	 45	 46	  0	
19-Apr-2013	sub2319	2319	  2	  0	 14	  1	  1	  2	  4	  6	  1	  2	  1	0.73735	  1	0.90000	  0	 12	 30	 31	  0	
19-Apr-2013	sub2319	2319	  2	  0	 15	  1	  1	  3	  2	  3	  1	  2	  0	0.74860	  0	0.90000	  0	 13	 42	 43	  0	
19-Apr-2013	sub2319	2319	  2	  0	 16	  1	  1	  4	  3	  6	  1	  2	  1	0.92317	  1	0.90000	  1	 14	 32	 51	  0	
19-Apr-2013	sub2319	2319	  2	  0	 17	  1	  1	  5	  6	  4	  0	  2	  1	0.52066	  0	0.90000	  0	 15	 47	 38	  0	
19-Apr-2013	sub2319	2319	  2	  0	 18	  1	  1	  1	  1	  5	  1	  1	  1	0.72338	  1	0.90000	  0	 11	 30	 31	  0	
19-Apr-2013	sub2319	2319	  2	  0	 19	  1	  1	  2	  4	  6	  1	  2	  1	0.67894	  1	0.90000	  0	 12	 30	 31	  0	
19-Apr-2013	sub2319	2319	  2	  0	 20	  1	  1	  2	  4	  6	  1	  1	  0	0.70637	  0	0.90000	  0	 12	 40	 41	  0	
19-Apr-2013	sub2319	2319	  2	  0	 21	  1	  1	  1	  1	  5	  1	  1	  1	0.88381	  1	0.90000	  0	 11	 30	 31	  0	
19-Apr-2013	sub2319	2319	  2	  0	 22	  1	  1	  1	  1	  5	  1	  1	  1	0.59287	  1	0.90000	  0	 11	 30	 31	  0	
19-Apr-2013	sub2319	2319	  2	  0	 23	  1	  1	  2	  4	  6	  1	  1	  0	0.95745	  0	0.90000	  1	 12	 40	 51	  0	
19-Apr-2013	sub2319	2319	  2	  0	 24	  1	  1	  6	  5	  4	  0	  2	  0	0.79707	  1	0.90000	  0	 16	 37	 48	  0	
19-Apr-2013	sub2319	2319	  2	  0	 25	  1	  1	  4	  3	  6	  1	  2	  1	0.81376	  1	0.90000	  0	 14	 32	 33	  0	
19-Apr-2013	sub2319	2319	  2	  0	 26	  1	  1	  1	  1	  5	  1	  1	  1	0.73503	  1	0.90000	  0	 11	 30	 31	  0	
19-Apr-2013	sub2319	2319	  2	  0	 27	  1	  1	  3	  2	  3	  1	  2	  0	0.75473	  0	0.90000	  0	 13	 42	 43	  0	
19-Apr-2013	sub2319	2319	  2	  0	 28	  1	  1	  3	  2	  3	  0	  2	  1	0.79028	  0	0.90000	  0	 13	 44	 39	  0	
19-Apr-2013	sub2319	2319	  2	  0	 29	  1	  1	  6	  5	  4	  1	  1	  0	0.76358	  0	0.90000	  0	 16	 45	 46	  0	
19-Apr-2013	sub2319	2319	  2	  0	 30	  1	  1	  6	  5	  4	  1	  1	  0	0.61905	  0	0.90000	  0	 16	 45	 46	  0	
19-Apr-2013	sub2319	2319	  2	  0	 31	  1	  1	  5	  6	  4	  0	  1	  0	0.88944	  1	0.90000	  0	 15	 37	 48	  0	
19-Apr-2013	sub2319	2319	  2	  0	 32	  1	  1	  5	  6	  4	  1	  2	  0	0.85191	  0	0.90000	  0	 15	 45	 46	  0	
19-Apr-2013	sub2319	2319	  2	  0	 33	  1	  1	  6	  5	  4	  1	  2	  1	0.94916	  1	0.90000	  1	 16	 35	 51	  0	
19-Apr-2013	sub2319	2319	  2	  0	 34	  1	  1	  5	  6	  4	  1	  2	  0	0.72823	  0	0.90000	  0	 15	 45	 46	  0	
19-Apr-2013	sub2319	2319	  2	  0	 35	  1	  1	  4	  3	  6	  1	  1	  0	0.77070	  0	0.90000	  0	 14	 42	 43	  0	
19-Apr-2013	sub2319	2319	  2	  0	 36	  1	  1	  3	  2	  3	  1	  2	  0	0.74132	  0	0.90000	  0	 13	 42	 43	  0	
19-Apr-2013	sub2319	2319	  2	  0	 37	  1	  1	  2	  4	  6	  1	  1	  0	0.81966	  0	0.90000	  0	 12	 40	 41	  0	
19-Apr-2013	sub2319	2319	  2	  0	 38	  1	  1	  4	  3	  6	  1	  2	  1	0.89885	  1	0.90000	  0	 14	 32	 33	  0	
19-Apr-2013	sub2319	2319	  2	  0	 39	  1	  1	  2	  4	  6	  1	  2	  1	0.78241	  1	0.90000	  0	 12	 30	 31	  0	
19-Apr-2013	sub2319	2319	  2	  0	 40	  1	  1	  4	  3	  6	  1	  2	  1	0.79797	  1	0.90000	  0	 14	 32	 33	  0	
19-Apr-2013	sub2319	2319	  2	  0	 41	  1	  1	  5	  6	  4	  1	  2	  0	0.73693	  0	0.90000	  0	 15	 45	 46	  0	
19-Apr-2013	sub2319	2319	  2	  0	 42	  1	  1	  6	  5	  4	  1	  2	  1	0.75326	  1	0.90000	  0	 16	 35	 36	  0	
19-Apr-2013	sub2319	2319	  2	  0	 43	  1	  1	  6	  5	  4	  1	  2	  1	0.93958	  1	0.90000	  1	 16	 35	 51	  0	
19-Apr-2013	sub2319	2319	  2	  0	 44	  1	  1	  6	  5	  4	  0	  2	  0	0.45613	  1	0.90000	  0	 16	 37	 48	  1	
19-Apr-2013	sub2319	2319	  2	  0	 45	  1	  1	  1	  1	  5	  1	  1	  1	0.49474	  1	0.90000	  0	 11	 30	 31	  1	
19-Apr-2013	sub2319	2319	  2	  0	 46	  1	  1	  1	  1	  5	  1	  1	  1	0.46377	  1	0.90000	  0	 11	 30	 31	  1	
19-Apr-2013	sub2319	2319	  2	  0	 47	  1	  1	  6	  5	  4	  0	  1	  1	0.42499	  0	0.90000	  0	 16	 47	 38	  1	
19-Apr-2013	sub2319	2319	  2	  0	 48	  1	  1	  2	  4	  6	  1	  2	  1	0.60114	  1	0.90000	  0	 12	 30	 31	  0	
19-Apr-2013	sub2319	2319	  2	  0	 49	  1	  1	  3	  2	  3	  1	  1	  1	0.40114	  1	0.90000	  0	 13	 32	 33	  1	
19-Apr-2013	sub2319	2319	  2	  0	 50	  1	  1	  5	  6	  4	  0	  1	  0	0.60431	  1	0.90000	  0	 15	 37	 48	  0	
19-Apr-2013	sub2319	2319	  2	  0	 51	  1	  1	  5	  6	  4	  0	  2	  1	0.74464	  0	0.90000	  0	 15	 47	 38	  0	
19-Apr-2013	sub2319	2319	  2	  0	 52	  1	  1	  1	  1	  5	  1	  1	  1	0.47262	  1	0.90000	  0	 11	 30	 31	  1	
19-Apr-2013	sub2319	2319	  2	  0	 53	  1	  1	  5	  6	  4	  0	  2	  1	0.66602	  0	0.90000	  0	 15	 47	 38	  0	
19-Apr-2013	sub2319	2319	  2	  0	 54	  1	  1	  3	  2	  3	  1	  1	  1	0.76402	  1	0.90000	  0	 13	 32	 33	  0	
19-Apr-2013	sub2319	2319	  2	  0	 55	  1	  1	  2	  4	  6	  1	  2	  1	0.44363	  1	0.90000	  0	 12	 30	 31	  1	
19-Apr-2013	sub2319	2319	  2	  0	 56	  1	  1	  4	  3	  6	  0	  2	  0	0.57279	  1	0.90000	  0	 14	 34	 49	  0	
19-Apr-2013	sub2319	2319	  2	  0	 57	  1	  1	  6	  5	  4	  0	  1	  1	0.42343	  0	0.90000	  0	 16	 47	 38	  1	
19-Apr-2013	sub2319	2319	  2	  0	 58	  1	  1	  3	  2	  3	  1	  2	  0	0.42919	  0	0.90000	  0	 13	 42	 43	  1	
19-Apr-2013	sub2319	2319	  2	  0	 59	  1	  1	  5	  6	  4	  1	  2	  0	0.58187	  0	0.90000	  0	 15	 45	 46	  0	
19-Apr-2013	sub2319	2319	  2	  0	 60	  1	  1	  6	  5	  4	  1	  1	  0	0.54721	  0	0.90000	  0	 16	 45	 46	  0	
19-Apr-2013	sub2319	2319	  2	  0	 61	  1	  1	  1	  1	  5	  1	  1	  1	0.41121	  1	0.90000	  0	 11	 30	 31	  1	
19-Apr-2013	sub2319	2319	  2	  0	 62	  1	  1	  3	  2	  3	  1	  1	  1	0.43425	  1	0.90000	  0	 13	 32	 33	  1	
19-Apr-2013	sub2319	2319	  2	  0	 63	  1	  1	  4	  3	  6	  0	  2	  0	0.69474	  1	0.90000	  0	 14	 34	 49	  0	
19-Apr-2013	sub2319	2319	  2	  0	 64	  1	  1	  4	  3	  6	  1	  2	  1	0.60596	  1	0.90000	  0	 14	 32	 33	  0	
19-Apr-2013	sub2319	2319	  2	  0	 65	  1	  1	  6	  5	  4	  0	  1	  1	0.56858	  0	0.90000	  0	 16	 47	 38	  0	
19-Apr-2013	sub2319	2319	  2	  0	 66	  1	  1	  2	  4	  6	  1	  2	  1	0.68529	  1	0.90000	  0	 12	 30	 31	  0	
19-Apr-2013	sub2319	2319	  2	  0	 67	  1	  1	  4	  3	  6	  1	  2	  1	0.55107	  1	0.90000	  0	 14	 32	 33	  0	
19-Apr-2013	sub2319	2319	  2	  0	 68	  1	  1	  3	  2	  3	  1	  1	  1	0.56743	  1	0.90000	  0	 13	 32	 33	  0	
19-Apr-2013	sub2319	2319	  2	  0	 69	  1	  1	  4	  3	  6	  1	  2	  1	0.65246	  1	0.90000	  0	 14	 32	 33	  0	
19-Apr-2013	sub2319	2319	  2	  0	 70	  1	  1	  3	  2	  3	  1	  1	  1	0.57322	  1	0.90000	  0	 13	 32	 33	  0	
19-Apr-2013	sub2319	2319	  2	  0	 71	  1	  1	  4	  3	  6	  1	  2	  1	0.63596	  1	0.90000	  0	 14	 32	 33	  0	
19-Apr-2013	sub2319	2319	  2	  0	 72	  1	  1	  1	  1	  5	  1	  1	  1	0.64909	  1	0.90000	  0	 11	 30	 31	  0	
19-Apr-2013	sub2319	2319	  2	  0	 73	  1	  1	  1	  1	  5	  1	  1	  1	0.57582	  1	0.90000	  0	 11	 30	 31	  0	
19-Apr-2013	sub2319	2319	  2	  0	 74	  1	  1	  3	  2	  3	  1	  1	  1	0.57848	  1	0.90000	  0	 13	 32	 33	  0	
19-Apr-2013	sub2319	2319	  2	  0	 75	  1	  1	  2	  4	  6	  1	  1	  0	0.82919	  0	0.90000	  0	 12	 40	 41	  0	
19-Apr-2013	sub2319	2319	  2	  0	  1	  2	  1	  6	  1	  4	  0	  2	  0	0.41823	  1	0.60000	  0	 16	 37	 48	  1	
19-Apr-2013	sub2319	2319	  2	  0	  2	  2	  1	  1	  6	  1	  1	  2	  0	0.64183	  0	0.30000	  1	 11	 40	 51	  0	
19-Apr-2013	sub2319	2319	  2	  0	  3	  2	  1	  3	  3	  4	  1	  2	  0	0.30075	  0	0.90000	  0	 13	 42	 43	  1	
19-Apr-2013	sub2319	2319	  2	  0	  4	  2	  1	  4	  2	  4	  1	  2	  1	0.34263	  1	0.90000	  0	 14	 32	 33	  1	
19-Apr-2013	sub2319	2319	  2	  0	  5	  2	  1	  5	  5	  3	  1	  2	  0	0.39635	  0	0.90000	  0	 15	 45	 46	  1	
19-Apr-2013	sub2319	2319	  2	  0	  6	  2	  1	  3	  3	  4	  1	  2	  0	0.55002	  0	0.90000	  0	 13	 42	 43	  0	
19-Apr-2013	sub2319	2319	  2	  0	  7	  2	  1	  2	  4	  4	  1	  1	  0	0.51474	  0	0.90000	  0	 12	 40	 41	  0	
19-Apr-2013	sub2319	2319	  2	  0	  8	  2	  1	  2	  4	  4	  1	  1	  0	0.44298	  0	0.90000	  0	 12	 40	 41	  1	
19-Apr-2013	sub2319	2319	  2	  0	  9	  2	  1	  6	  1	  4	  0	  1	  1	0.65959	  0	0.90000	  0	 16	 47	 38	  0	
19-Apr-2013	sub2319	2319	  2	  0	 10	  2	  1	  2	  4	  4	  1	  2	  1	0.55668	  1	0.90000	  0	 12	 30	 31	  0	
19-Apr-2013	sub2319	2319	  2	  0	 11	  2	  1	  5	  5	  3	  1	  1	  1	0.47900	  1	0.90000	  0	 15	 35	 36	  1	
19-Apr-2013	sub2319	2319	  2	  0	 12	  2	  1	  4	  2	  4	  1	  2	  1	0.36180	  1	0.90000	  0	 14	 32	 33	  1	
19-Apr-2013	sub2319	2319	  2	  0	 13	  2	  1	  4	  2	  4	  1	  2	  1	0.58548	  1	0.90000	  0	 14	 32	 33	  0	
19-Apr-2013	sub2319	2319	  2	  0	 14	  2	  1	  6	  1	  4	  1	  1	  0	0.38943	  0	0.90000	  0	 16	 45	 46	  1	
19-Apr-2013	sub2319	2319	  2	  0	 15	  2	  1	  2	  4	  4	  1	  1	  0	0.50131	  0	0.90000	  0	 12	 40	 41	  0	
19-Apr-2013	sub2319	2319	  2	  0	 16	  2	  1	  4	  2	  4	  1	  2	  1	0.44499	  1	0.80000	  0	 14	 32	 33	  1	
19-Apr-2013	sub2319	2319	  2	  0	 17	  2	  1	  4	  2	  4	  1	  2	  1	0.44004	  1	0.80000	  0	 14	 32	 33	  1	
19-Apr-2013	sub2319	2319	  2	  0	 18	  2	  1	  1	  6	  1	  1	  1	  1	0.47286	  1	0.70000	  0	 11	 30	 31	  1	
19-Apr-2013	sub2319	2319	  2	  0	 19	  2	  1	  4	  2	  4	  0	  2	  0	0.48732	  1	0.70000	  0	 14	 34	 49	  1	
19-Apr-2013	sub2319	2319	  2	  0	 20	  2	  1	  1	  6	  1	  1	  1	  1	0.59025	  1	0.70000	  0	 11	 30	 31	  0	
19-Apr-2013	sub2319	2319	  2	  0	 21	  2	  1	  2	  4	  4	  1	  2	  1	0.37922	  1	0.60000	  0	 12	 30	 31	  1	
19-Apr-2013	sub2319	2319	  2	  0	 22	  2	  1	  1	  6	  1	  1	  1	  1	0.50632	  1	0.60000	  0	 11	 30	 31	  0	
19-Apr-2013	sub2319	2319	  2	  0	 23	  2	  1	  4	  2	  4	  1	  2	  1	0.51646	  1	0.60000	  0	 14	 32	 33	  0	
19-Apr-2013	sub2319	2319	  2	  0	 24	  2	  1	  1	  6	  1	  1	  1	  1	0.55286	  1	0.60000	  0	 11	 30	 31	  0	
19-Apr-2013	sub2319	2319	  2	  0	 25	  2	  1	  2	  4	  4	  1	  2	  1	0.61978	  1	0.60000	  1	 12	 30	 51	  0	
19-Apr-2013	sub2319	2319	  2	  0	 26	  2	  1	  1	  6	  1	  1	  1	  1	0.61668	  1	0.90000	  0	 11	 30	 31	  0	
19-Apr-2013	sub2319	2319	  2	  0	 27	  2	  1	  3	  3	  4	  1	  2	  0	0.48392	  0	0.90000	  0	 13	 42	 43	  1	
19-Apr-2013	sub2319	2319	  2	  0	 28	  2	  1	  2	  4	  4	  1	  2	  1	0.55107	  1	0.90000	  0	 12	 30	 31	  0	
19-Apr-2013	sub2319	2319	  2	  0	 29	  2	  1	  6	  1	  4	  0	  1	  1	0.57312	  0	0.90000	  0	 16	 47	 38	  0	
19-Apr-2013	sub2319	2319	  2	  0	 30	  2	  1	  4	  2	  4	  1	  2	  1	0.41705	  1	0.80000	  0	 14	 32	 33	  1	
19-Apr-2013	sub2319	2319	  2	  0	 31	  2	  1	  1	  6	  1	  1	  1	  1	0.48116	  1	0.80000	  0	 11	 30	 31	  1	
19-Apr-2013	sub2319	2319	  2	  0	 32	  2	  1	  3	  3	  4	  1	  1	  1	0.58556	  1	0.80000	  0	 13	 32	 33	  0	
19-Apr-2013	sub2319	2319	  2	  0	 33	  2	  1	  1	  6	  1	  1	  1	  1	0.44131	  1	0.80000	  0	 11	 30	 31	  1	
19-Apr-2013	sub2319	2319	  2	  0	 34	  2	  1	  4	  2	  4	  1	  2	  1	0.39404	  1	0.80000	  0	 14	 32	 33	  1	
19-Apr-2013	sub2319	2319	  2	  0	 35	  2	  1	  2	  4	  4	  1	  2	  1	0.51548	  1	0.70000	  0	 12	 30	 31	  0	
19-Apr-2013	sub2319	2319	  2	  0	 36	  2	  1	  1	  6	  1	  1	  1	  1	0.42278	  1	0.70000	  0	 11	 30	 31	  1	
19-Apr-2013	sub2319	2319	  2	  0	 37	  2	  1	  3	  3	  4	  1	  1	  1	0.49907	  1	0.70000	  0	 13	 32	 33	  1	
19-Apr-2013	sub2319	2319	  2	  0	 38	  2	  1	  6	  1	  4	  0	  1	  1	0.54545	  0	0.70000	  0	 16	 47	 38	  0	
19-Apr-2013	sub2319	2319	  2	  0	 39	  2	  1	  6	  1	  4	  1	  1	  0	0.50832	  0	0.70000	  0	 16	 45	 46	  0	
19-Apr-2013	sub2319	2319	  2	  0	 40	  2	  1	  3	  3	  4	  1	  1	  1	0.55739	  1	0.70000	  0	 13	 32	 33	  0	
19-Apr-2013	sub2319	2319	  2	  0	 41	  2	  1	  3	  3	  4	  1	  1	  1	0.45917	  1	0.60000	  0	 13	 32	 33	  1	
19-Apr-2013	sub2319	2319	  2	  0	 42	  2	  1	  1	  6	  1	  1	  1	  1	0.51024	  1	0.60000	  0	 11	 30	 31	  0	
19-Apr-2013	sub2319	2319	  2	  0	 43	  2	  1	  2	  4	  4	  1	  2	  1	0.53302	  1	0.60000	  0	 12	 30	 31	  0	
19-Apr-2013	sub2319	2319	  2	  0	 44	  2	  1	  6	  1	  4	  1	  1	  0	0.53524	  0	0.60000	  0	 16	 45	 46	  0	
19-Apr-2013	sub2319	2319	  2	  0	 45	  2	  1	  6	  1	  4	  0	  1	  1	0.47197	  0	0.60000	  0	 16	 47	 38	  1	
19-Apr-2013	sub2319	2319	  2	  0	 46	  2	  1	  2	  4	  4	  1	  2	  1	0.50615	  1	0.60000	  0	 12	 30	 31	  0	
19-Apr-2013	sub2319	2319	  2	  0	 47	  2	  1	  6	  1	  4	  1	  1	  0	0.39846	  0	0.60000	  0	 16	 45	 46	  1	
19-Apr-2013	sub2319	2319	  2	  0	 48	  2	  1	  5	  5	  3	  1	  1	  1	0.58959	  1	0.60000	  0	 15	 35	 36	  0	
19-Apr-2013	sub2319	2319	  2	  0	 49	  2	  1	  1	  6	  1	  1	  1	  1	0.45807	  1	0.60000	  0	 11	 30	 31	  1	
19-Apr-2013	sub2319	2319	  2	  0	 50	  2	  1	  6	  1	  4	  0	  1	  1	0.41250	  0	0.60000	  0	 16	 47	 38	  1	
19-Apr-2013	sub2319	2319	  2	  0	 51	  2	  1	  5	  5	  3	  0	  1	  0	0.58301	  1	0.50000	  1	 15	 37	 51	  0	
19-Apr-2013	sub2319	2319	  2	  0	 52	  2	  1	  3	  3	  4	  0	  1	  0	0.50920	  1	0.70000	  0	 13	 34	 49	  0	
19-Apr-2013	sub2319	2319	  2	  0	 53	  2	  1	  4	  2	  4	  1	  2	  1	0.52958	  1	0.70000	  0	 14	 32	 33	  0	
19-Apr-2013	sub2319	2319	  2	  0	 54	  2	  1	  3	  3	  4	  0	  1	  0	0.66707	  1	0.70000	  0	 13	 34	 49	  0	
19-Apr-2013	sub2319	2319	  2	  0	 55	  2	  1	  3	  3	  4	  1	  1	  1	0.67626	  1	0.70000	  0	 13	 32	 33	  0	
19-Apr-2013	sub2319	2319	  2	  0	 56	  2	  1	  3	  3	  4	  1	  1	  1	0.62207	  1	0.70000	  0	 13	 32	 33	  0	
19-Apr-2013	sub2319	2319	  2	  0	 57	  2	  1	  5	  5	  3	  0	  2	  1	0.63962	  0	0.70000	  0	 15	 47	 38	  0	
19-Apr-2013	sub2319	2319	  2	  0	 58	  2	  1	  6	  1	  4	  0	  1	  1	0.59154	  0	0.70000	  0	 16	 47	 38	  0	
19-Apr-2013	sub2319	2319	  2	  0	 59	  2	  1	  5	  5	  3	  0	  1	  0	0.60040	  1	0.70000	  0	 15	 37	 48	  0	
19-Apr-2013	sub2319	2319	  2	  0	 60	  2	  1	  2	  4	  4	  1	  2	  1	0.57215	  1	0.70000	  0	 12	 30	 31	  0	
19-Apr-2013	sub2319	2319	  2	  0	 61	  2	  1	  3	  3	  4	  0	  1	  0	0.64319	  1	0.60000	  1	 13	 34	 51	  0	
19-Apr-2013	sub2319	2319	  2	  0	 62	  2	  1	  5	  5	  3	  1	  1	  1	0.54779	  1	0.80000	  0	 15	 35	 36	  0	
19-Apr-2013	sub2319	2319	  2	  0	 63	  2	  1	  5	  5	  3	  1	  1	  1	0.45541	  1	0.80000	  0	 15	 35	 36	  1	
19-Apr-2013	sub2319	2319	  2	  0	 64	  2	  1	  5	  5	  3	  1	  1	  1	0.43954	  1	0.80000	  0	 15	 35	 36	  1	
19-Apr-2013	sub2319	2319	  2	  0	 65	  2	  1	  6	  1	  4	  0	  1	  1	0.58248	  0	0.80000	  0	 16	 47	 38	  0	
19-Apr-2013	sub2319	2319	  2	  0	 66	  2	  1	  5	  5	  3	  1	  1	  1	0.62410	  1	0.80000	  0	 15	 35	 36	  0	
19-Apr-2013	sub2319	2319	  2	  0	 67	  2	  1	  4	  2	  4	  0	  2	  0	0.53079	  1	0.80000	  0	 14	 34	 49	  0	
19-Apr-2013	sub2319	2319	  2	  0	 68	  2	  1	  2	  4	  4	  1	  2	  1	0.40764	  1	0.70000	  0	 12	 30	 31	  1	
19-Apr-2013	sub2319	2319	  2	  0	 69	  2	  1	  3	  3	  4	  1	  1	  1	0.45580	  1	0.70000	  0	 13	 32	 33	  1	
19-Apr-2013	sub2319	2319	  2	  0	 70	  2	  1	  5	  5	  3	  0	  1	  0	0.51859	  1	0.70000	  0	 15	 37	 48	  0	
19-Apr-2013	sub2319	2319	  2	  0	 71	  2	  1	  1	  6	  1	  1	  1	  1	0.45355	  1	0.70000	  0	 11	 30	 31	  1	
19-Apr-2013	sub2319	2319	  2	  0	 72	  2	  1	  6	  1	  4	  1	  1	  0	0.37687	  0	0.70000	  0	 16	 45	 46	  1	
19-Apr-2013	sub2319	2319	  2	  0	 73	  2	  1	  4	  2	  4	  1	  2	  1	0.61143	  1	0.70000	  0	 14	 32	 33	  0	
19-Apr-2013	sub2319	2319	  2	  0	 74	  2	  1	  2	  4	  4	  1	  2	  1	0.36198	  1	0.70000	  0	 12	 30	 31	  1	
19-Apr-2013	sub2319	2319	  2	  0	 75	  2	  1	  5	  5	  3	  0	  1	  0	0.38386	  1	0.70000	  0	 15	 37	 48	  1	
19-Apr-2013	sub2319	2319	  2	  0	 76	  2	  2	  3	  3	  4	  1	  1	  1	0.61305	  1	0.70000	  0	 23	 62	 63	  0	
19-Apr-2013	sub2319	2319	  2	  0	 77	  2	  2	  6	  1	  4	  0	  1	  1	0.60449	  0	0.70000	  0	 26	 87	 68	  0	
19-Apr-2013	sub2319	2319	  2	  0	 78	  2	  2	  3	  3	  4	  1	  1	  1	0.34585	  1	0.70000	  0	 23	 62	 63	  1	
19-Apr-2013	sub2319	2319	  2	  0	 79	  2	  2	  1	  6	  1	  1	  1	  1	0.49199	  1	0.70000	  0	 21	 60	 61	  1	
19-Apr-2013	sub2319	2319	  2	  0	 80	  2	  2	  4	  2	  4	  0	  2	  0	0.37945	  1	0.70000	  0	 24	 64	 89	  1	
19-Apr-2013	sub2319	2319	  2	  0	 81	  2	  2	  2	  4	  4	  1	  2	  1	0.32772	  1	0.60000	  0	 22	 60	 61	  1	
19-Apr-2013	sub2319	2319	  2	  0	 82	  2	  2	  6	  1	  4	  0	  1	  1	0.39143	  0	0.60000	  0	 26	 87	 68	  1	
19-Apr-2013	sub2319	2319	  2	  0	 83	  2	  2	  4	  2	  4	  1	  2	  1	0.43247	  1	0.60000	  0	 24	 62	 63	  1	
19-Apr-2013	sub2319	2319	  2	  0	 84	  2	  2	  6	  1	  4	  1	  1	  0	0.44205	  0	0.60000	  0	 26	 85	 86	  1	
19-Apr-2013	sub2319	2319	  2	  0	 85	  2	  2	  5	  5	  3	  0	  2	  1	0.40524	  0	0.60000	  0	 25	 87	 68	  1	
19-Apr-2013	sub2319	2319	  2	  0	 86	  2	  2	  6	  1	  4	  0	  1	  1	0.50701	  0	0.60000	  0	 26	 87	 68	  0	
19-Apr-2013	sub2319	2319	  2	  0	 87	  2	  2	  1	  6	  1	  1	  1	  1	0.47720	  1	0.60000	  0	 21	 60	 61	  1	
19-Apr-2013	sub2319	2319	  2	  0	 88	  2	  2	  6	  1	  4	  0	  1	  1	0.49111	  0	0.60000	  0	 26	 87	 68	  1	
19-Apr-2013	sub2319	2319	  2	  0	 89	  2	  2	  1	  6	  1	  1	  1	  1	0.49973	  1	0.60000	  0	 21	 60	 61	  1	
19-Apr-2013	sub2319	2319	  2	  0	 90	  2	  2	  4	  2	  4	  1	  2	  1	0.45159	  1	0.60000	  0	 24	 62	 63	  1	
19-Apr-2013	sub2319	2319	  2	  0	 91	  2	  2	  2	  4	  4	  1	  1	  0	0.42980	  0	0.60000	  0	 22	 80	 81	  1	
19-Apr-2013	sub2319	2319	  2	  0	 92	  2	  2	  3	  3	  4	  1	  1	  1	0.44129	  1	0.60000	  0	 23	 62	 63	  1	
19-Apr-2013	sub2319	2319	  2	  0	 93	  2	  2	  5	  5	  3	  0	  1	  0	0.47485	  1	0.60000	  0	 25	 67	 88	  1	
19-Apr-2013	sub2319	2319	  2	  0	 94	  2	  2	  2	  4	  4	  1	  2	  1	0.48067	  1	0.60000	  0	 22	 60	 61	  1	
19-Apr-2013	sub2319	2319	  2	  0	 95	  2	  2	  2	  4	  4	  1	  2	  1	0.47012	  1	0.60000	  0	 22	 60	 61	  1	
19-Apr-2013	sub2319	2319	  2	  0	 96	  2	  2	  6	  1	  4	  1	  1	  0	0.50587	  0	0.60000	  0	 26	 85	 86	  0	
19-Apr-2013	sub2319	2319	  2	  0	 97	  2	  2	  6	  1	  4	  0	  1	  1	0.42530	  0	0.60000	  0	 26	 87	 68	  1	
19-Apr-2013	sub2319	2319	  2	  0	 98	  2	  2	  6	  1	  4	  1	  1	  0	0.45540	  0	0.60000	  0	 26	 85	 86	  1	
19-Apr-2013	sub2319	2319	  2	  0	 99	  2	  2	  5	  5	  3	  0	  2	  1	0.43642	  0	0.60000	  0	 25	 87	 68	  1	
19-Apr-2013	sub2319	2319	  2	  0	100	  2	  2	  4	  2	  4	  0	  2	  0	0.55444	  1	0.60000	  0	 24	 64	 89	  0	
19-Apr-2013	sub2319	2319	  2	  0	101	  2	  2	  2	  4	  4	  1	  2	  1	0.40943	  1	0.50000	  0	 22	 60	 61	  1	
19-Apr-2013	sub2319	2319	  2	  0	102	  2	  2	  3	  3	  4	  1	  1	  1	0.60442	  1	0.50000	  1	 23	 62	 51	  0	
19-Apr-2013	sub2319	2319	  2	  0	103	  2	  2	  3	  3	  4	  1	  1	  1	0.42470	  1	0.60000	  0	 23	 62	 63	  1	
19-Apr-2013	sub2319	2319	  2	  0	104	  2	  2	  6	  1	  4	  1	  2	  1	0.59245	  1	0.60000	  0	 26	 65	 66	  0	
19-Apr-2013	sub2319	2319	  2	  0	105	  2	  2	  1	  6	  1	  1	  1	  1	0.51780	  1	0.60000	  0	 21	 60	 61	  0	
19-Apr-2013	sub2319	2319	  2	  0	106	  2	  2	  1	  6	  1	  1	  1	  1	0.59702	  1	0.60000	  0	 21	 60	 61	  0	
19-Apr-2013	sub2319	2319	  2	  0	107	  2	  2	  1	  6	  1	  1	  1	  1	0.40195	  1	0.60000	  0	 21	 60	 61	  1	
19-Apr-2013	sub2319	2319	  2	  0	108	  2	  2	  5	  5	  3	  0	  2	  1	0.38924	  0	0.60000	  0	 25	 87	 68	  1	
19-Apr-2013	sub2319	2319	  2	  0	109	  2	  2	  3	  3	  4	  1	  1	  1	0.57539	  1	0.60000	  0	 23	 62	 63	  0	
19-Apr-2013	sub2319	2319	  2	  0	110	  2	  2	  6	  1	  4	  0	  1	  1	0.65875	  0	0.60000	  1	 26	 87	 51	  0	
19-Apr-2013	sub2319	2319	  2	  0	111	  2	  2	  1	  6	  1	  1	  1	  1	0.46962	  1	0.70000	  0	 21	 60	 61	  1	
19-Apr-2013	sub2319	2319	  2	  0	112	  2	  2	  2	  4	  4	  1	  2	  1	0.51313	  1	0.70000	  0	 22	 60	 61	  0	
19-Apr-2013	sub2319	2319	  2	  0	113	  2	  2	  4	  2	  4	  1	  2	  1	0.39718	  1	0.70000	  0	 24	 62	 63	  1	
19-Apr-2013	sub2319	2319	  2	  0	114	  2	  2	  3	  3	  4	  1	  1	  1	0.48841	  1	0.70000	  0	 23	 62	 63	  1	
19-Apr-2013	sub2319	2319	  2	  0	115	  2	  2	  4	  2	  4	  0	  2	  0	0.46094	  1	0.70000	  0	 24	 64	 89	  1	
19-Apr-2013	sub2319	2319	  2	  0	116	  2	  2	  2	  4	  4	  1	  2	  1	0.51733	  1	0.70000	  0	 22	 60	 61	  0	
19-Apr-2013	sub2319	2319	  2	  0	117	  2	  2	  4	  2	  4	  1	  2	  1	0.48256	  1	0.70000	  0	 24	 62	 63	  1	
19-Apr-2013	sub2319	2319	  2	  0	118	  2	  2	  5	  5	  3	  0	  2	  1	0.56946	  0	0.70000	  0	 25	 87	 68	  0	
19-Apr-2013	sub2319	2319	  2	  0	119	  2	  2	  1	  6	  1	  1	  1	  1	0.64623	  1	0.70000	  0	 21	 60	 61	  0	
19-Apr-2013	sub2319	2319	  2	  0	120	  2	  2	  3	  3	  4	  1	  1	  1	0.51650	  1	0.70000	  0	 23	 62	 63	  0	
19-Apr-2013	sub2319	2319	  2	  0	121	  2	  2	  4	  2	  4	  1	  1	  0	0.43474	  0	0.60000	  0	 24	 82	 83	  1	
19-Apr-2013	sub2319	2319	  2	  0	122	  2	  2	  4	  2	  4	  1	  2	  1	0.51730	  1	0.60000	  0	 24	 62	 63	  0	
19-Apr-2013	sub2319	2319	  2	  0	123	  2	  2	  5	  5	  3	  0	  2	  1	0.33385	  0	0.60000	  0	 25	 87	 68	  1	
19-Apr-2013	sub2319	2319	  2	  0	124	  2	  2	  5	  5	  3	  0	  2	  1	0.41853	  0	0.60000	  0	 25	 87	 68	  1	
19-Apr-2013	sub2319	2319	  2	  0	125	  2	  2	  1	  6	  1	  1	  1	  1	0.41266	  1	0.60000	  0	 21	 60	 61	  1	
19-Apr-2013	sub2319	2319	  2	  0	126	  2	  2	  2	  4	  4	  1	  2	  1	0.49025	  1	0.60000	  0	 22	 60	 61	  1	
19-Apr-2013	sub2319	2319	  2	  0	127	  2	  2	  5	  5	  3	  0	  2	  1	0.39382	  0	0.60000	  0	 25	 87	 68	  1	
19-Apr-2013	sub2319	2319	  2	  0	128	  2	  2	  3	  3	  4	  0	  1	  0	0.46957	  1	0.60000	  0	 23	 64	 89	  1	
19-Apr-2013	sub2319	2319	  2	  0	129	  2	  2	  5	  5	  3	  0	  2	  1	0.35479	  0	0.60000	  0	 25	 87	 68	  1	
19-Apr-2013	sub2319	2319	  2	  0	130	  2	  2	  1	  6	  1	  1	  1	  1	0.49813	  1	0.60000	  0	 21	 60	 61	  1	
19-Apr-2013	sub2319	2319	  2	  0	131	  2	  2	  3	  3	  4	  0	  2	  1	0.36170	  0	0.60000	  0	 23	 84	 69	  1	
19-Apr-2013	sub2319	2319	  2	  0	132	  2	  2	  4	  2	  4	  1	  2	  1	0.38743	  1	0.60000	  0	 24	 62	 63	  1	
19-Apr-2013	sub2319	2319	  2	  0	133	  2	  2	  6	  1	  4	  1	  1	  0	0.52548	  0	0.60000	  0	 26	 85	 86	  0	
19-Apr-2013	sub2319	2319	  2	  0	134	  2	  2	  3	  3	  4	  1	  2	  0	0.55123	  0	0.60000	  0	 23	 82	 83	  0	
19-Apr-2013	sub2319	2319	  2	  0	135	  2	  2	  3	  3	  4	  1	  1	  1	0.42532	  1	0.60000	  0	 23	 62	 63	  1	
19-Apr-2013	sub2319	2319	  2	  0	136	  2	  2	  4	  2	  4	  1	  2	  1	0.41179	  1	0.60000	  0	 24	 62	 63	  1	
19-Apr-2013	sub2319	2319	  2	  0	137	  2	  2	  4	  2	  4	  1	  2	  1	0.51044	  1	0.60000	  0	 24	 62	 63	  0	
19-Apr-2013	sub2319	2319	  2	  0	138	  2	  2	  2	  4	  4	  1	  2	  1	0.36678	  1	0.60000	  0	 22	 60	 61	  1	
19-Apr-2013	sub2319	2319	  2	  0	139	  2	  2	  2	  4	  4	  1	  2	  1	0.45539	  1	0.60000	  0	 22	 60	 61	  1	
19-Apr-2013	sub2319	2319	  2	  0	140	  2	  2	  5	  5	  3	  0	  2	  1	0.52880	  0	0.60000	  0	 25	 87	 68	  0	
19-Apr-2013	sub2319	2319	  2	  0	141	  2	  2	  1	  6	  1	  1	  1	  1	0.54853	  1	0.60000	  0	 21	 60	 61	  0	
19-Apr-2013	sub2319	2319	  2	  0	142	  2	  2	  5	  5	  3	  0	  2	  1	33.66223	  0	0.60000	  1	 25	 87	 51	  0	
19-Apr-2013	sub2319	2319	  2	  0	143	  2	  2	  4	  2	  4	  1	  2	  1	2.77329	  1	0.60000	  1	 24	 62	 51	  0	
19-Apr-2013	sub2319	2319	  2	  0	144	  2	  2	  5	  5	  3	  0	  2	  1	0.57170	  0	0.70000	  0	 25	 87	 68	  0	
19-Apr-2013	sub2319	2319	  2	  0	145	  2	  2	  1	  6	  1	  1	  1	  1	0.52077	  1	0.70000	  0	 21	 60	 61	  0	
19-Apr-2013	sub2319	2319	  2	  0	146	  2	  2	  1	  6	  1	  1	  1	  1	0.35710	  1	0.70000	  0	 21	 60	 61	  1	
19-Apr-2013	sub2319	2319	  2	  0	147	  2	  2	  6	  1	  4	  1	  1	  0	0.56685	  0	0.70000	  0	 26	 85	 86	  0	
19-Apr-2013	sub2319	2319	  2	  0	148	  2	  2	  2	  4	  4	  1	  2	  1	0.37000	  1	0.70000	  0	 22	 60	 61	  1	
19-Apr-2013	sub2319	2319	  2	  0	149	  2	  2	  2	  4	  4	  1	  2	  1	0.42231	  1	0.70000	  0	 22	 60	 61	  1	
19-Apr-2013	sub2319	2319	  2	  0	150	  2	  2	  5	  5	  3	  0	  2	  1	0.53104	  0	0.70000	  0	 25	 87	 68	  0	
19-Apr-2013	sub2319	2319	  2	  0	  1	  3	  1	  1	  4	  3	  1	  2	  0	0.36841	  0	0.60000	  0	 11	 40	 41	  1	
19-Apr-2013	sub2319	2319	  2	  0	  2	  3	  1	  2	  2	  2	  1	  2	  1	0.31868	  1	0.30000	  1	 12	 30	 51	  1	
19-Apr-2013	sub2319	2319	  2	  0	  3	  3	  1	  5	  6	  2	  1	  2	  0	0.25639	  0	0.90000	  0	 15	 45	 46	  1	
19-Apr-2013	sub2319	2319	  2	  0	  4	  3	  1	  6	  5	  2	  0	  2	  0	0.26607	  1	0.90000	  0	 16	 37	 48	  1	
19-Apr-2013	sub2319	2319	  2	  0	  5	  3	  1	  3	  3	  3	  1	  2	  0	0.31633	  0	0.90000	  0	 13	 42	 43	  1	
19-Apr-2013	sub2319	2319	  2	  0	  6	  3	  1	  5	  6	  2	  1	  2	  0	0.39287	  0	0.90000	  0	 15	 45	 46	  1	
19-Apr-2013	sub2319	2319	  2	  0	  7	  3	  1	  2	  2	  2	  1	  1	  0	0.33955	  0	0.90000	  0	 12	 40	 41	  1	
19-Apr-2013	sub2319	2319	  2	  0	  8	  3	  1	  2	  2	  2	  1	  2	  1	0.51878	  1	0.90000	  0	 12	 30	 31	  0	
19-Apr-2013	sub2319	2319	  2	  0	  9	  3	  1	  5	  6	  2	  0	  1	  0	0.28124	  1	0.90000	  0	 15	 37	 48	  1	
19-Apr-2013	sub2319	2319	  2	  0	 10	  3	  1	  3	  3	  3	  0	  2	  1	0.41973	  0	0.90000	  0	 13	 44	 39	  1	
19-Apr-2013	sub2319	2319	  2	  0	 11	  3	  1	  3	  3	  3	  0	  2	  1	0.37812	  0	0.90000	  0	 13	 44	 39	  1	
19-Apr-2013	sub2319	2319	  2	  0	 12	  3	  1	  1	  4	  3	  1	  1	  1	0.52096	  1	0.90000	  0	 11	 30	 31	  0	
19-Apr-2013	sub2319	2319	  2	  0	 13	  3	  1	  6	  5	  2	  1	  1	  0	0.36183	  0	0.90000	  0	 16	 45	 46	  1	
19-Apr-2013	sub2319	2319	  2	  0	 14	  3	  1	  6	  5	  2	  1	  1	  0	0.40195	  0	0.90000	  0	 16	 45	 46	  1	
19-Apr-2013	sub2319	2319	  2	  0	 15	  3	  1	  4	  1	  6	  1	  1	  0	0.54879	  0	0.90000	  0	 14	 42	 43	  0	
19-Apr-2013	sub2319	2319	  2	  0	 16	  3	  1	  4	  1	  6	  0	  1	  1	0.46804	  0	0.80000	  0	 14	 44	 39	  1	
19-Apr-2013	sub2319	2319	  2	  0	 17	  3	  1	  6	  5	  2	  1	  2	  1	0.46767	  1	0.80000	  0	 16	 35	 36	  1	
19-Apr-2013	sub2319	2319	  2	  0	 18	  3	  1	  3	  3	  3	  1	  2	  0	0.55820	  0	0.70000	  0	 13	 42	 43	  0	
19-Apr-2013	sub2319	2319	  2	  0	 19	  3	  1	  1	  4	  3	  1	  1	  1	0.50546	  1	0.70000	  0	 11	 30	 31	  0	
19-Apr-2013	sub2319	2319	  2	  0	 20	  3	  1	  1	  4	  3	  1	  1	  1	0.41552	  1	0.70000	  0	 11	 30	 31	  1	
19-Apr-2013	sub2319	2319	  2	  0	 21	  3	  1	  5	  6	  2	  0	  1	  0	0.47555	  1	0.60000	  0	 15	 37	 48	  1	
19-Apr-2013	sub2319	2319	  2	  0	 22	  3	  1	  5	  6	  2	  0	  1	  0	0.37344	  1	0.60000	  0	 15	 37	 48	  1	
19-Apr-2013	sub2319	2319	  2	  0	 23	  3	  1	  5	  6	  2	  1	  2	  0	0.47673	  0	0.60000	  0	 15	 45	 46	  1	
19-Apr-2013	sub2319	2319	  2	  0	 24	  3	  1	  3	  3	  3	  1	  2	  0	0.44918	  0	0.60000	  0	 13	 42	 43	  1	
19-Apr-2013	sub2319	2319	  2	  0	 25	  3	  1	  3	  3	  3	  1	  2	  0	0.44711	  0	0.60000	  0	 13	 42	 43	  1	
19-Apr-2013	sub2319	2319	  2	  0	 26	  3	  1	  6	  5	  2	  0	  1	  1	0.58772	  0	0.50000	  1	 16	 47	 51	  0	
19-Apr-2013	sub2319	2319	  2	  0	 27	  3	  1	  2	  2	  2	  1	  2	  1	0.53260	  1	0.90000	  0	 12	 30	 31	  0	
19-Apr-2013	sub2319	2319	  2	  0	 28	  3	  1	  1	  4	  3	  1	  1	  1	0.53842	  1	0.90000	  0	 11	 30	 31	  0	
19-Apr-2013	sub2319	2319	  2	  0	 29	  3	  1	  2	  2	  2	  1	  2	  1	0.53214	  1	0.90000	  0	 12	 30	 31	  0	
19-Apr-2013	sub2319	2319	  2	  0	 30	  3	  1	  4	  1	  6	  0	  1	  1	0.45267	  0	0.80000	  0	 14	 44	 39	  1	
19-Apr-2013	sub2319	2319	  2	  0	 31	  3	  1	  3	  3	  3	  1	  2	  0	0.36337	  0	0.80000	  0	 13	 42	 43	  1	
19-Apr-2013	sub2319	2319	  2	  0	 32	  3	  1	  3	  3	  3	  1	  2	  0	0.40243	  0	0.80000	  0	 13	 42	 43	  1	
19-Apr-2013	sub2319	2319	  2	  0	 33	  3	  1	  5	  6	  2	  0	  2	  1	0.37362	  0	0.80000	  0	 15	 47	 38	  1	
19-Apr-2013	sub2319	2319	  2	  0	 34	  3	  1	  5	  6	  2	  1	  2	  0	0.56555	  0	0.80000	  0	 15	 45	 46	  0	
19-Apr-2013	sub2319	2319	  2	  0	 35	  3	  1	  4	  1	  6	  1	  2	  1	0.46021	  1	0.70000	  0	 14	 32	 33	  1	
19-Apr-2013	sub2319	2319	  2	  0	 36	  3	  1	  6	  5	  2	  1	  1	  0	0.59356	  0	0.70000	  0	 16	 45	 46	  0	
19-Apr-2013	sub2319	2319	  2	  0	 37	  3	  1	  2	  2	  2	  1	  2	  1	0.47406	  1	0.70000	  0	 12	 30	 31	  1	
19-Apr-2013	sub2319	2319	  2	  0	 38	  3	  1	  1	  4	  3	  1	  1	  1	0.55816	  1	0.70000	  0	 11	 30	 31	  0	
19-Apr-2013	sub2319	2319	  2	  0	 39	  3	  1	  5	  6	  2	  1	  2	  0	0.46365	  0	0.70000	  0	 15	 45	 46	  1	
19-Apr-2013	sub2319	2319	  2	  0	 40	  3	  1	  1	  4	  3	  1	  1	  1	0.57672	  1	0.70000	  0	 11	 30	 31	  0	
19-Apr-2013	sub2319	2319	  2	  0	 41	  3	  1	  4	  1	  6	  1	  2	  1	0.60110	  1	0.60000	  1	 14	 32	 51	  0	
19-Apr-2013	sub2319	2319	  2	  0	 42	  3	  1	  1	  4	  3	  1	  2	  0	0.36947	  0	0.90000	  0	 11	 40	 41	  1	
19-Apr-2013	sub2319	2319	  2	  0	 43	  3	  1	  2	  2	  2	  1	  2	  1	0.36183	  1	0.90000	  0	 12	 30	 31	  1	
19-Apr-2013	sub2319	2319	  2	  0	 44	  3	  1	  1	  4	  3	  1	  1	  1	0.47053	  1	0.80000	  0	 11	 30	 31	  1	
19-Apr-2013	sub2319	2319	  2	  0	 45	  3	  1	  1	  4	  3	  1	  1	  1	0.44228	  1	0.80000	  0	 11	 30	 31	  1	
19-Apr-2013	sub2319	2319	  2	  0	 46	  3	  1	  4	  1	  6	  1	  1	  0	0.53513	  0	0.80000	  0	 14	 42	 43	  0	
19-Apr-2013	sub2319	2319	  2	  0	 47	  3	  1	  5	  6	  2	  1	  2	  0	0.41403	  0	0.80000	  0	 15	 45	 46	  1	
19-Apr-2013	sub2319	2319	  2	  0	 48	  3	  1	  5	  6	  2	  0	  2	  1	0.47554	  0	0.80000	  0	 15	 47	 38	  1	
19-Apr-2013	sub2319	2319	  2	  0	 49	  3	  1	  4	  1	  6	  1	  1	  0	0.50376	  0	0.80000	  0	 14	 42	 43	  0	
19-Apr-2013	sub2319	2319	  2	  0	 50	  3	  1	  2	  2	  2	  1	  2	  1	0.35381	  1	0.80000	  0	 12	 30	 31	  1	
19-Apr-2013	sub2319	2319	  2	  0	 51	  3	  1	  3	  3	  3	  1	  2	  0	0.43966	  0	0.70000	  0	 13	 42	 43	  1	
19-Apr-2013	sub2319	2319	  2	  0	 52	  3	  1	  5	  6	  2	  0	  2	  1	0.47826	  0	0.70000	  0	 15	 47	 38	  1	
19-Apr-2013	sub2319	2319	  2	  0	 53	  3	  1	  3	  3	  3	  1	  2	  0	0.50354	  0	0.70000	  0	 13	 42	 43	  0	
19-Apr-2013	sub2319	2319	  2	  0	 54	  3	  1	  3	  3	  3	  1	  1	  1	0.40491	  1	0.70000	  0	 13	 32	 33	  1	
19-Apr-2013	sub2319	2319	  2	  0	 55	  3	  1	  4	  1	  6	  1	  1	  0	0.47634	  0	0.70000	  0	 14	 42	 43	  1	
19-Apr-2013	sub2319	2319	  2	  0	 56	  3	  1	  2	  2	  2	  1	  2	  1	0.44106	  1	0.70000	  0	 12	 30	 31	  1	
19-Apr-2013	sub2319	2319	  2	  0	 57	  3	  1	  4	  1	  6	  1	  2	  1	0.55680	  1	0.70000	  0	 14	 32	 33	  0	
19-Apr-2013	sub2319	2319	  2	  0	 58	  3	  1	  6	  5	  2	  0	  1	  1	0.51414	  0	0.70000	  0	 16	 47	 38	  0	
19-Apr-2013	sub2319	2319	  2	  0	 59	  3	  1	  6	  5	  2	  1	  1	  0	0.57613	  0	0.70000	  0	 16	 45	 46	  0	
19-Apr-2013	sub2319	2319	  2	  0	 60	  3	  1	  6	  5	  2	  1	  2	  1	0.81523	  1	0.70000	  1	 16	 35	 51	  0	
19-Apr-2013	sub2319	2319	  2	  0	 61	  3	  1	  1	  4	  3	  1	  2	  0	0.46129	  0	0.80000	  0	 11	 40	 41	  1	
19-Apr-2013	sub2319	2319	  2	  0	 62	  3	  1	  4	  1	  6	  1	  2	  1	0.57497	  1	0.80000	  0	 14	 32	 33	  0	
19-Apr-2013	sub2319	2319	  2	  0	 63	  3	  1	  4	  1	  6	  1	  2	  1	0.38539	  1	0.80000	  0	 14	 32	 33	  1	
19-Apr-2013	sub2319	2319	  2	  0	 64	  3	  1	  6	  5	  2	  0	  2	  0	0.50255	  1	0.80000	  0	 16	 37	 48	  0	
19-Apr-2013	sub2319	2319	  2	  0	 65	  3	  1	  6	  5	  2	  0	  2	  0	0.39101	  1	0.80000	  0	 16	 37	 48	  1	
19-Apr-2013	sub2319	2319	  2	  0	 66	  3	  1	  2	  2	  2	  1	  2	  1	0.49259	  1	0.80000	  0	 12	 30	 31	  1	
19-Apr-2013	sub2319	2319	  2	  0	 67	  3	  1	  1	  4	  3	  1	  1	  1	0.46465	  1	0.80000	  0	 11	 30	 31	  1	
19-Apr-2013	sub2319	2319	  2	  0	 68	  3	  1	  4	  1	  6	  1	  2	  1	0.55856	  1	0.70000	  0	 14	 32	 33	  0	
19-Apr-2013	sub2319	2319	  2	  0	 69	  3	  1	  2	  2	  2	  1	  2	  1	0.39870	  1	0.70000	  0	 12	 30	 31	  1	
19-Apr-2013	sub2319	2319	  2	  0	 70	  3	  1	  3	  3	  3	  0	  1	  0	0.48088	  1	0.70000	  0	 13	 34	 49	  1	
19-Apr-2013	sub2319	2319	  2	  0	 71	  3	  1	  2	  2	  2	  1	  2	  1	0.38462	  1	0.70000	  0	 12	 30	 31	  1	
19-Apr-2013	sub2319	2319	  2	  0	 72	  3	  1	  2	  2	  2	  1	  2	  1	0.43031	  1	0.70000	  0	 12	 30	 31	  1	
19-Apr-2013	sub2319	2319	  2	  0	 73	  3	  1	  6	  5	  2	  1	  2	  1	0.42187	  1	0.70000	  0	 16	 35	 36	  1	
19-Apr-2013	sub2319	2319	  2	  0	 74	  3	  1	  6	  5	  2	  0	  2	  0	0.46228	  1	0.70000	  0	 16	 37	 48	  1	
19-Apr-2013	sub2319	2319	  2	  0	 75	  3	  1	  3	  3	  3	  1	  1	  1	0.51185	  1	0.70000	  0	 13	 32	 33	  0	
19-Apr-2013	sub2319	2319	  2	  0	 76	  3	  2	  1	  4	  3	  1	  2	  0	0.36763	  0	0.70000	  0	 21	 80	 81	  1	
19-Apr-2013	sub2319	2319	  2	  0	 77	  3	  2	  5	  6	  2	  0	  2	  1	0.49778	  0	0.70000	  0	 25	 87	 68	  1	
19-Apr-2013	sub2319	2319	  2	  0	 78	  3	  2	  4	  1	  6	  1	  2	  1	0.40747	  1	0.70000	  0	 24	 62	 63	  1	
19-Apr-2013	sub2319	2319	  2	  0	 79	  3	  2	  4	  1	  6	  1	  2	  1	0.44146	  1	0.70000	  0	 24	 62	 63	  1	
19-Apr-2013	sub2319	2319	  2	  0	 80	  3	  2	  4	  1	  6	  1	  2	  1	0.39505	  1	0.70000	  0	 24	 62	 63	  1	
19-Apr-2013	sub2319	2319	  2	  0	 81	  3	  2	  3	  3	  3	  1	  1	  1	0.37257	  1	0.60000	  0	 23	 62	 63	  1	
19-Apr-2013	sub2319	2319	  2	  0	 82	  3	  2	  1	  4	  3	  1	  1	  1	0.48891	  1	0.60000	  0	 21	 60	 61	  1	
19-Apr-2013	sub2319	2319	  2	  0	 83	  3	  2	  2	  2	  2	  1	  1	  0	0.39874	  0	0.60000	  0	 22	 80	 81	  1	
19-Apr-2013	sub2319	2319	  2	  0	 84	  3	  2	  6	  5	  2	  0	  1	  1	0.54892	  0	0.60000	  0	 26	 87	 68	  0	
19-Apr-2013	sub2319	2319	  2	  0	 85	  3	  2	  4	  1	  6	  1	  2	  1	0.34988	  1	0.60000	  0	 24	 62	 63	  1	
19-Apr-2013	sub2319	2319	  2	  0	 86	  3	  2	  6	  5	  2	  0	  2	  0	0.45071	  1	0.60000	  0	 26	 67	 88	  1	
19-Apr-2013	sub2319	2319	  2	  0	 87	  3	  2	  3	  3	  3	  1	  2	  0	0.39856	  0	0.60000	  0	 23	 82	 83	  1	
19-Apr-2013	sub2319	2319	  2	  0	 88	  3	  2	  4	  1	  6	  1	  2	  1	0.32547	  1	0.60000	  0	 24	 62	 63	  1	
19-Apr-2013	sub2319	2319	  2	  0	 89	  3	  2	  2	  2	  2	  1	  2	  1	0.41566	  1	0.60000	  0	 22	 60	 61	  1	
19-Apr-2013	sub2319	2319	  2	  0	 90	  3	  2	  4	  1	  6	  0	  1	  1	0.56200	  0	0.60000	  0	 24	 84	 69	  0	
19-Apr-2013	sub2319	2319	  2	  0	 91	  3	  2	  5	  6	  2	  0	  2	  1	0.39362	  0	0.60000	  0	 25	 87	 68	  1	
19-Apr-2013	sub2319	2319	  2	  0	 92	  3	  2	  2	  2	  2	  1	  2	  1	0.33687	  1	0.60000	  0	 22	 60	 61	  1	
19-Apr-2013	sub2319	2319	  2	  0	 93	  3	  2	  3	  3	  3	  1	  1	  1	0.53492	  1	0.60000	  0	 23	 62	 63	  0	
19-Apr-2013	sub2319	2319	  2	  0	 94	  3	  2	  4	  1	  6	  1	  2	  1	0.63425	  1	0.60000	  1	 24	 62	 51	  0	
19-Apr-2013	sub2319	2319	  2	  0	 95	  3	  2	  5	  6	  2	  0	  2	  1	0.34544	  0	0.70000	  0	 25	 87	 68	  1	
19-Apr-2013	sub2319	2319	  2	  0	 96	  3	  2	  6	  5	  2	  0	  1	  1	0.55894	  0	0.70000	  0	 26	 87	 68	  0	
19-Apr-2013	sub2319	2319	  2	  0	 97	  3	  2	  1	  4	  3	  1	  1	  1	0.54346	  1	0.70000	  0	 21	 60	 61	  0	
19-Apr-2013	sub2319	2319	  2	  0	 98	  3	  2	  3	  3	  3	  1	  2	  0	0.35382	  0	0.70000	  0	 23	 82	 83	  1	
19-Apr-2013	sub2319	2319	  2	  0	 99	  3	  2	  4	  1	  6	  1	  2	  1	0.36755	  1	0.70000	  0	 24	 62	 63	  1	
19-Apr-2013	sub2319	2319	  2	  0	100	  3	  2	  2	  2	  2	  1	  2	  1	0.48963	  1	0.70000	  0	 22	 60	 61	  1	
19-Apr-2013	sub2319	2319	  2	  0	101	  3	  2	  2	  2	  2	  1	  2	  1	0.46077	  1	0.60000	  0	 22	 60	 61	  1	
19-Apr-2013	sub2319	2319	  2	  0	102	  3	  2	  6	  5	  2	  1	  1	  0	0.58586	  0	0.60000	  0	 26	 85	 86	  0	
19-Apr-2013	sub2319	2319	  2	  0	103	  3	  2	  5	  6	  2	  0	  2	  1	0.51083	  0	0.60000	  0	 25	 87	 68	  0	
19-Apr-2013	sub2319	2319	  2	  0	104	  3	  2	  5	  6	  2	  0	  2	  1	0.49331	  0	0.60000	  0	 25	 87	 68	  1	
19-Apr-2013	sub2319	2319	  2	  0	105	  3	  2	  6	  5	  2	  1	  1	  0	0.57499	  0	0.60000	  0	 26	 85	 86	  0	
19-Apr-2013	sub2319	2319	  2	  0	106	  3	  2	  5	  6	  2	  0	  2	  1	0.47024	  0	0.60000	  0	 25	 87	 68	  1	
19-Apr-2013	sub2319	2319	  2	  0	107	  3	  2	  1	  4	  3	  1	  1	  1	0.52681	  1	0.60000	  0	 21	 60	 61	  0	
19-Apr-2013	sub2319	2319	  2	  0	108	  3	  2	  6	  5	  2	  0	  1	  1	0.68253	  0	0.60000	  1	 26	 87	 51	  0	
19-Apr-2013	sub2319	2319	  2	  0	109	  3	  2	  6	  5	  2	  1	  1	  0	0.45011	  0	0.70000	  0	 26	 85	 86	  1	
19-Apr-2013	sub2319	2319	  2	  0	110	  3	  2	  1	  4	  3	  1	  2	  0	0.40474	  0	0.70000	  0	 21	 80	 81	  1	
19-Apr-2013	sub2319	2319	  2	  0	111	  3	  2	  1	  4	  3	  1	  1	  1	0.42356	  1	0.70000	  0	 21	 60	 61	  1	
19-Apr-2013	sub2319	2319	  2	  0	112	  3	  2	  2	  2	  2	  1	  2	  1	0.42915	  1	0.70000	  0	 22	 60	 61	  1	
19-Apr-2013	sub2319	2319	  2	  0	113	  3	  2	  5	  6	  2	  0	  2	  1	0.41896	  0	0.70000	  0	 25	 87	 68	  1	
19-Apr-2013	sub2319	2319	  2	  0	114	  3	  2	  3	  3	  3	  1	  1	  1	0.38325	  1	0.70000	  0	 23	 62	 63	  1	
19-Apr-2013	sub2319	2319	  2	  0	115	  3	  2	  5	  6	  2	  0	  1	  0	0.45360	  1	0.70000	  0	 25	 67	 88	  1	
19-Apr-2013	sub2319	2319	  2	  0	116	  3	  2	  6	  5	  2	  0	  1	  1	0.56574	  0	0.70000	  0	 26	 87	 68	  0	
19-Apr-2013	sub2319	2319	  2	  0	117	  3	  2	  1	  4	  3	  1	  1	  1	0.40279	  1	0.70000	  0	 21	 60	 61	  1	
19-Apr-2013	sub2319	2319	  2	  0	118	  3	  2	  6	  5	  2	  1	  1	  0	0.47811	  0	0.70000	  0	 26	 85	 86	  1	
19-Apr-2013	sub2319	2319	  2	  0	119	  3	  2	  2	  2	  2	  1	  2	  1	0.46453	  1	0.70000	  0	 22	 60	 61	  1	
19-Apr-2013	sub2319	2319	  2	  0	120	  3	  2	  3	  3	  3	  1	  1	  1	0.55387	  1	0.70000	  0	 23	 62	 63	  0	
19-Apr-2013	sub2319	2319	  2	  0	121	  3	  2	  4	  1	  6	  0	  2	  0	0.51492	  1	0.60000	  0	 24	 64	 89	  0	
19-Apr-2013	sub2319	2319	  2	  0	122	  3	  2	  6	  5	  2	  0	  1	  1	0.52997	  0	0.60000	  0	 26	 87	 68	  0	
19-Apr-2013	sub2319	2319	  2	  0	123	  3	  2	  6	  5	  2	  1	  1	  0	0.44700	  0	0.60000	  0	 26	 85	 86	  1	
19-Apr-2013	sub2319	2319	  2	  0	124	  3	  2	  4	  1	  6	  1	  2	  1	0.45883	  1	0.60000	  0	 24	 62	 63	  1	
19-Apr-2013	sub2319	2319	  2	  0	125	  3	  2	  3	  3	  3	  0	  1	  0	2.22153	  1	0.60000	  1	 23	 64	 51	  0	
19-Apr-2013	sub2319	2319	  2	  0	126	  3	  2	  5	  6	  2	  0	  2	  1	0.54141	  0	0.70000	  0	 25	 87	 68	  0	
19-Apr-2013	sub2319	2319	  2	  0	127	  3	  2	  2	  2	  2	  1	  2	  1	0.48323	  1	0.70000	  0	 22	 60	 61	  1	
19-Apr-2013	sub2319	2319	  2	  0	128	  3	  2	  1	  4	  3	  1	  1	  1	0.54517	  1	0.70000	  0	 21	 60	 61	  0	
19-Apr-2013	sub2319	2319	  2	  0	129	  3	  2	  1	  4	  3	  1	  1	  1	0.48092	  1	0.70000	  0	 21	 60	 61	  1	
19-Apr-2013	sub2319	2319	  2	  0	130	  3	  2	  1	  4	  3	  1	  1	  1	0.66882	  1	0.70000	  0	 21	 60	 61	  0	
19-Apr-2013	sub2319	2319	  2	  0	131	  3	  2	  2	  2	  2	  1	  2	  1	0.43417	  1	0.70000	  0	 22	 60	 61	  1	
19-Apr-2013	sub2319	2319	  2	  0	132	  3	  2	  5	  6	  2	  0	  2	  1	0.47858	  0	0.70000	  0	 25	 87	 68	  1	
19-Apr-2013	sub2319	2319	  2	  0	133	  3	  2	  3	  3	  3	  1	  1	  1	0.48682	  1	0.70000	  0	 23	 62	 63	  1	
19-Apr-2013	sub2319	2319	  2	  0	134	  3	  2	  1	  4	  3	  1	  1	  1	0.48738	  1	0.70000	  0	 21	 60	 61	  1	
19-Apr-2013	sub2319	2319	  2	  0	135	  3	  2	  5	  6	  2	  0	  2	  1	0.40423	  0	0.70000	  0	 25	 87	 68	  1	
19-Apr-2013	sub2319	2319	  2	  0	136	  3	  2	  2	  2	  2	  1	  2	  1	0.44852	  1	0.70000	  0	 22	 60	 61	  1	
19-Apr-2013	sub2319	2319	  2	  0	137	  3	  2	  3	  3	  3	  0	  1	  0	0.47978	  1	0.70000	  0	 23	 64	 89	  1	
19-Apr-2013	sub2319	2319	  2	  0	138	  3	  2	  6	  5	  2	  1	  2	  1	0.62049	  1	0.70000	  0	 26	 65	 66	  0	
19-Apr-2013	sub2319	2319	  2	  0	139	  3	  2	  4	  1	  6	  1	  2	  1	0.41201	  1	0.70000	  0	 24	 62	 63	  1	
19-Apr-2013	sub2319	2319	  2	  0	140	  3	  2	  3	  3	  3	  1	  1	  1	0.50245	  1	0.70000	  0	 23	 62	 63	  0	
19-Apr-2013	sub2319	2319	  2	  0	141	  3	  2	  1	  4	  3	  1	  1	  1	0.47681	  1	0.60000	  0	 21	 60	 61	  1	
19-Apr-2013	sub2319	2319	  2	  0	142	  3	  2	  5	  6	  2	  0	  2	  1	0.54954	  0	0.60000	  0	 25	 87	 68	  0	
19-Apr-2013	sub2319	2319	  2	  0	143	  3	  2	  2	  2	  2	  1	  2	  1	0.46617	  1	0.60000	  0	 22	 60	 61	  1	
19-Apr-2013	sub2319	2319	  2	  0	144	  3	  2	  4	  1	  6	  0	  2	  0	0.42675	  1	0.60000	  0	 24	 64	 89	  1	
19-Apr-2013	sub2319	2319	  2	  0	145	  3	  2	  3	  3	  3	  1	  1	  1	0.47098	  1	0.60000	  0	 23	 62	 63	  1	
19-Apr-2013	sub2319	2319	  2	  0	146	  3	  2	  1	  4	  3	  1	  1	  1	0.48397	  1	0.60000	  0	 21	 60	 61	  1	
19-Apr-2013	sub2319	2319	  2	  0	147	  3	  2	  4	  1	  6	  1	  2	  1	0.35576	  1	0.60000	  0	 24	 62	 63	  1	
19-Apr-2013	sub2319	2319	  2	  0	148	  3	  2	  2	  2	  2	  1	  2	  1	0.37498	  1	0.60000	  0	 22	 60	 61	  1	
19-Apr-2013	sub2319	2319	  2	  0	149	  3	  2	  3	  3	  3	  1	  1	  1	0.46073	  1	0.60000	  0	 23	 62	 63	  1	
19-Apr-2013	sub2319	2319	  2	  0	150	  3	  2	  5	  6	  2	  0	  2	  1	0.46829	  0	0.60000	  0	 25	 87	 68	  1	
19-Apr-2013	sub2319	2319	  2	  0	  1	  4	  1	  4	  1	  2	  1	  2	  1	0.60429	  1	0.60000	  1	 14	 32	 51	  0	
19-Apr-2013	sub2319	2319	  2	  0	  2	  4	  1	  2	  6	  6	  1	  2	  1	0.23636	  1	0.90000	  0	 12	 30	 31	  1	
19-Apr-2013	sub2319	2319	  2	  0	  3	  4	  1	  1	  3	  1	  1	  2	  0	0.24659	  0	0.90000	  0	 11	 40	 41	  1	
19-Apr-2013	sub2319	2319	  2	  0	  4	  4	  1	  4	  1	  2	  1	  2	  1	0.29468	  1	0.90000	  0	 14	 32	 33	  1	
19-Apr-2013	sub2319	2319	  2	  0	  5	  4	  1	  2	  6	  6	  1	  2	  1	0.31743	  1	0.90000	  0	 12	 30	 31	  1	
19-Apr-2013	sub2319	2319	  2	  0	  6	  4	  1	  3	  2	  5	  1	  2	  0	0.22137	  0	0.90000	  0	 13	 42	 43	  1	
19-Apr-2013	sub2319	2319	  2	  0	  7	  4	  1	  5	  4	  1	  0	  2	  1	0.29197	  0	0.90000	  0	 15	 47	 38	  1	
19-Apr-2013	sub2319	2319	  2	  0	  8	  4	  1	  3	  2	  5	  1	  2	  0	0.48541	  0	0.90000	  0	 13	 42	 43	  1	
19-Apr-2013	sub2319	2319	  2	  0	  9	  4	  1	  1	  3	  1	  1	  1	  1	0.37938	  1	0.90000	  0	 11	 30	 31	  1	
19-Apr-2013	sub2319	2319	  2	  0	 10	  4	  1	  6	  5	  1	  0	  1	  1	0.60211	  0	0.90000	  0	 16	 47	 38	  0	
19-Apr-2013	sub2319	2319	  2	  0	 11	  4	  1	  2	  6	  6	  1	  2	  1	0.51813	  1	0.90000	  0	 12	 30	 31	  0	
19-Apr-2013	sub2319	2319	  2	  0	 12	  4	  1	  1	  3	  1	  1	  1	  1	0.44180	  1	0.90000	  0	 11	 30	 31	  1	
19-Apr-2013	sub2319	2319	  2	  0	 13	  4	  1	  5	  4	  1	  1	  2	  0	0.50217	  0	0.90000	  0	 15	 45	 46	  0	
19-Apr-2013	sub2319	2319	  2	  0	 14	  4	  1	  2	  6	  6	  1	  2	  1	0.43683	  1	0.90000	  0	 12	 30	 31	  1	
19-Apr-2013	sub2319	2319	  2	  0	 15	  4	  1	  2	  6	  6	  1	  2	  1	0.39746	  1	0.90000	  0	 12	 30	 31	  1	
19-Apr-2013	sub2319	2319	  2	  0	 16	  4	  1	  3	  2	  5	  1	  2	  0	0.49109	  0	0.80000	  0	 13	 42	 43	  1	
19-Apr-2013	sub2319	2319	  2	  0	 17	  4	  1	  4	  1	  2	  1	  2	  1	0.48919	  1	0.80000	  0	 14	 32	 33	  1	
19-Apr-2013	sub2319	2319	  2	  0	 18	  4	  1	  5	  4	  1	  1	  2	  0	0.35872	  0	0.70000	  0	 15	 45	 46	  1	
19-Apr-2013	sub2319	2319	  2	  0	 19	  4	  1	  2	  6	  6	  1	  2	  1	0.57523	  1	0.70000	  0	 12	 30	 31	  0	
19-Apr-2013	sub2319	2319	  2	  0	 20	  4	  1	  5	  4	  1	  1	  2	  0	0.36782	  0	0.70000	  0	 15	 45	 46	  1	
19-Apr-2013	sub2319	2319	  2	  0	 21	  4	  1	  3	  2	  5	  1	  2	  0	0.60168	  0	0.60000	  1	 13	 42	 51	  0	
19-Apr-2013	sub2319	2319	  2	  0	 22	  4	  1	  3	  2	  5	  1	  1	  1	0.55679	  1	0.90000	  0	 13	 32	 33	  0	
19-Apr-2013	sub2319	2319	  2	  0	 23	  4	  1	  6	  5	  1	  1	  1	  0	0.58192	  0	0.90000	  0	 16	 45	 46	  0	
19-Apr-2013	sub2319	2319	  2	  0	 24	  4	  1	  6	  5	  1	  0	  2	  0	0.60392	  1	0.90000	  0	 16	 37	 48	  0	
19-Apr-2013	sub2319	2319	  2	  0	 25	  4	  1	  3	  2	  5	  1	  1	  1	0.57512	  1	0.90000	  0	 13	 32	 33	  0	
19-Apr-2013	sub2319	2319	  2	  0	 26	  4	  1	  1	  3	  1	  1	  1	  1	0.49186	  1	0.90000	  0	 11	 30	 31	  1	
19-Apr-2013	sub2319	2319	  2	  0	 27	  4	  1	  4	  1	  2	  1	  1	  0	0.42343	  0	0.90000	  0	 14	 42	 43	  1	
19-Apr-2013	sub2319	2319	  2	  0	 28	  4	  1	  6	  5	  1	  1	  2	  1	0.54936	  1	0.90000	  0	 16	 35	 36	  0	
19-Apr-2013	sub2319	2319	  2	  0	 29	  4	  1	  1	  3	  1	  1	  1	  1	0.49503	  1	0.90000	  0	 11	 30	 31	  1	
19-Apr-2013	sub2319	2319	  2	  0	 30	  4	  1	  4	  1	  2	  1	  2	  1	0.48950	  1	0.80000	  0	 14	 32	 33	  1	
19-Apr-2013	sub2319	2319	  2	  0	 31	  4	  1	  5	  4	  1	  1	  2	  0	0.40583	  0	0.80000	  0	 15	 45	 46	  1	
19-Apr-2013	sub2319	2319	  2	  0	 32	  4	  1	  5	  4	  1	  1	  1	  1	0.49381	  1	0.80000	  0	 15	 35	 36	  1	
19-Apr-2013	sub2319	2319	  2	  0	 33	  4	  1	  1	  3	  1	  1	  1	  1	0.50147	  1	0.80000	  0	 11	 30	 31	  0	
19-Apr-2013	sub2319	2319	  2	  0	 34	  4	  1	  6	  5	  1	  0	  2	  0	0.48106	  1	0.80000	  0	 16	 37	 48	  1	
19-Apr-2013	sub2319	2319	  2	  0	 35	  4	  1	  3	  2	  5	  0	  1	  0	0.53156	  1	0.70000	  0	 13	 34	 49	  0	
19-Apr-2013	sub2319	2319	  2	  0	 36	  4	  1	  3	  2	  5	  0	  1	  0	0.43720	  1	0.70000	  0	 13	 34	 49	  1	
19-Apr-2013	sub2319	2319	  2	  0	 37	  4	  1	  6	  5	  1	  0	  2	  0	0.66220	  1	0.70000	  0	 16	 37	 48	  0	
19-Apr-2013	sub2319	2319	  2	  0	 38	  4	  1	  4	  1	  2	  0	  2	  0	0.39764	  1	0.70000	  0	 14	 34	 49	  1	
19-Apr-2013	sub2319	2319	  2	  0	 39	  4	  1	  5	  4	  1	  0	  2	  1	0.40874	  0	0.70000	  0	 15	 47	 38	  1	
19-Apr-2013	sub2319	2319	  2	  0	 40	  4	  1	  4	  1	  2	  1	  2	  1	0.50658	  1	0.70000	  0	 14	 32	 33	  0	
19-Apr-2013	sub2319	2319	  2	  0	 41	  4	  1	  6	  5	  1	  0	  1	  1	0.43878	  0	0.60000	  0	 16	 47	 38	  1	
19-Apr-2013	sub2319	2319	  2	  0	 42	  4	  1	  4	  1	  2	  1	  2	  1	0.47843	  1	0.60000	  0	 14	 32	 33	  1	
19-Apr-2013	sub2319	2319	  2	  0	 43	  4	  1	  4	  1	  2	  1	  2	  1	0.45419	  1	0.60000	  0	 14	 32	 33	  1	
19-Apr-2013	sub2319	2319	  2	  0	 44	  4	  1	  2	  6	  6	  1	  2	  1	0.35797	  1	0.60000	  0	 12	 30	 31	  1	
19-Apr-2013	sub2319	2319	  2	  0	 45	  4	  1	  2	  6	  6	  1	  2	  1	0.49189	  1	0.60000	  0	 12	 30	 31	  1	
19-Apr-2013	sub2319	2319	  2	  0	 46	  4	  1	  3	  2	  5	  1	  1	  1	0.55003	  1	0.60000	  0	 13	 32	 33	  0	
19-Apr-2013	sub2319	2319	  2	  0	 47	  4	  1	  5	  4	  1	  0	  2	  1	0.40425	  0	0.60000	  0	 15	 47	 38	  1	
19-Apr-2013	sub2319	2319	  2	  0	 48	  4	  1	  1	  3	  1	  1	  1	  1	0.48845	  1	0.60000	  0	 11	 30	 31	  1	
19-Apr-2013	sub2319	2319	  2	  0	 49	  4	  1	  2	  6	  6	  1	  1	  0	0.44524	  0	0.60000	  0	 12	 40	 41	  1	
19-Apr-2013	sub2319	2319	  2	  0	 50	  4	  1	  6	  5	  1	  0	  1	  1	0.51039	  0	0.60000	  0	 16	 47	 38	  0	
19-Apr-2013	sub2319	2319	  2	  0	 51	  4	  1	  6	  5	  1	  1	  1	  0	0.48024	  0	0.50000	  0	 16	 45	 46	  1	
19-Apr-2013	sub2319	2319	  2	  0	 52	  4	  1	  1	  3	  1	  1	  1	  1	0.54824	  1	0.50000	  1	 11	 30	 51	  0	
19-Apr-2013	sub2319	2319	  2	  0	 53	  4	  1	  6	  5	  1	  1	  1	  0	0.47050	  0	0.70000	  0	 16	 45	 46	  1	
19-Apr-2013	sub2319	2319	  2	  0	 54	  4	  1	  1	  3	  1	  1	  1	  1	0.50903	  1	0.70000	  0	 11	 30	 31	  0	
19-Apr-2013	sub2319	2319	  2	  0	 55	  4	  1	  6	  5	  1	  0	  1	  1	0.44496	  0	0.70000	  0	 16	 47	 38	  1	
19-Apr-2013	sub2319	2319	  2	  0	 56	  4	  1	  4	  1	  2	  1	  2	  1	0.47949	  1	0.70000	  0	 14	 32	 33	  1	
19-Apr-2013	sub2319	2319	  2	  0	 57	  4	  1	  5	  4	  1	  0	  1	  0	0.56732	  1	0.70000	  0	 15	 37	 48	  0	
19-Apr-2013	sub2319	2319	  2	  0	 58	  4	  1	  1	  3	  1	  1	  1	  1	0.43001	  1	0.70000	  0	 11	 30	 31	  1	
19-Apr-2013	sub2319	2319	  2	  0	 59	  4	  1	  5	  4	  1	  1	  2	  0	0.45089	  0	0.70000	  0	 15	 45	 46	  1	
19-Apr-2013	sub2319	2319	  2	  0	 60	  4	  1	  3	  2	  5	  1	  2	  0	0.50980	  0	0.70000	  0	 13	 42	 43	  0	
19-Apr-2013	sub2319	2319	  2	  0	 61	  4	  1	  6	  5	  1	  0	  1	  1	0.50400	  0	0.60000	  0	 16	 47	 38	  0	
19-Apr-2013	sub2319	2319	  2	  0	 62	  4	  1	  2	  6	  6	  1	  2	  1	0.54882	  1	0.60000	  0	 12	 30	 31	  0	
19-Apr-2013	sub2319	2319	  2	  0	 63	  4	  1	  1	  3	  1	  1	  1	  1	0.44534	  1	0.60000	  0	 11	 30	 31	  1	
19-Apr-2013	sub2319	2319	  2	  0	 64	  4	  1	  4	  1	  2	  1	  2	  1	0.43972	  1	0.60000	  0	 14	 32	 33	  1	
19-Apr-2013	sub2319	2319	  2	  0	 65	  4	  1	  3	  2	  5	  1	  2	  0	0.51237	  0	0.60000	  0	 13	 42	 43	  0	
19-Apr-2013	sub2319	2319	  2	  0	 66	  4	  1	  6	  5	  1	  1	  1	  0	0.44876	  0	0.60000	  0	 16	 45	 46	  1	
19-Apr-2013	sub2319	2319	  2	  0	 67	  4	  1	  3	  2	  5	  0	  1	  0	0.60835	  1	0.60000	  1	 13	 34	 51	  0	
19-Apr-2013	sub2319	2319	  2	  0	 68	  4	  1	  2	  6	  6	  1	  2	  1	0.51204	  1	0.70000	  0	 12	 30	 31	  0	
19-Apr-2013	sub2319	2319	  2	  0	 69	  4	  1	  5	  4	  1	  0	  1	  0	0.68549	  1	0.70000	  0	 15	 37	 48	  0	
19-Apr-2013	sub2319	2319	  2	  0	 70	  4	  1	  2	  6	  6	  1	  2	  1	0.46598	  1	0.70000	  0	 12	 30	 31	  1	
19-Apr-2013	sub2319	2319	  2	  0	 71	  4	  1	  2	  6	  6	  1	  2	  1	0.41994	  1	0.70000	  0	 12	 30	 31	  1	
19-Apr-2013	sub2319	2319	  2	  0	 72	  4	  1	  3	  2	  5	  1	  1	  1	0.58928	  1	0.70000	  0	 13	 32	 33	  0	
19-Apr-2013	sub2319	2319	  2	  0	 73	  4	  1	  4	  1	  2	  0	  2	  0	0.40961	  1	0.70000	  0	 14	 34	 49	  1	
19-Apr-2013	sub2319	2319	  2	  0	 74	  4	  1	  1	  3	  1	  1	  1	  1	0.39499	  1	0.70000	  0	 11	 30	 31	  1	
19-Apr-2013	sub2319	2319	  2	  0	 75	  4	  1	  5	  4	  1	  1	  2	  0	0.49580	  0	0.70000	  0	 15	 45	 46	  1	
19-Apr-2013	sub2319	2319	  2	  0	 76	  4	  2	  6	  5	  1	  1	  1	  0	0.54339	  0	0.70000	  0	 26	 85	 86	  0	
19-Apr-2013	sub2319	2319	  2	  0	 77	  4	  2	  2	  6	  6	  1	  2	  1	1.61407	  1	0.70000	  1	 22	 60	 51	  0	
19-Apr-2013	sub2319	2319	  2	  0	 78	  4	  2	  2	  6	  6	  1	  2	  1	0.42372	  1	0.80000	  0	 22	 60	 61	  1	
19-Apr-2013	sub2319	2319	  2	  0	 79	  4	  2	  5	  4	  1	  0	  2	  1	0.38638	  0	0.80000	  0	 25	 87	 68	  1	
19-Apr-2013	sub2319	2319	  2	  0	 80	  4	  2	  6	  5	  1	  1	  1	  0	0.59836	  0	0.80000	  0	 26	 85	 86	  0	
19-Apr-2013	sub2319	2319	  2	  0	 81	  4	  2	  1	  3	  1	  1	  1	  1	0.51352	  1	0.80000	  0	 21	 60	 61	  0	
19-Apr-2013	sub2319	2319	  2	  0	 82	  4	  2	  3	  2	  5	  1	  2	  0	0.47036	  0	0.80000	  0	 23	 82	 83	  1	
19-Apr-2013	sub2319	2319	  2	  0	 83	  4	  2	  6	  5	  1	  0	  1	  1	0.47609	  0	0.80000	  0	 26	 87	 68	  1	
19-Apr-2013	sub2319	2319	  2	  0	 84	  4	  2	  5	  4	  1	  0	  1	  0	0.37506	  1	0.80000	  0	 25	 67	 88	  1	
19-Apr-2013	sub2319	2319	  2	  0	 85	  4	  2	  4	  1	  2	  1	  2	  1	0.45245	  1	0.70000	  0	 24	 62	 63	  1	
19-Apr-2013	sub2319	2319	  2	  0	 86	  4	  2	  3	  2	  5	  1	  1	  1	0.50702	  1	0.70000	  0	 23	 62	 63	  0	
19-Apr-2013	sub2319	2319	  2	  0	 87	  4	  2	  5	  4	  1	  0	  2	  1	0.49829	  0	0.70000	  0	 25	 87	 68	  1	
19-Apr-2013	sub2319	2319	  2	  0	 88	  4	  2	  4	  1	  2	  1	  2	  1	0.53390	  1	0.70000	  0	 24	 62	 63	  0	
19-Apr-2013	sub2319	2319	  2	  0	 89	  4	  2	  4	  1	  2	  1	  2	  1	0.37443	  1	0.70000	  0	 24	 62	 63	  1	
19-Apr-2013	sub2319	2319	  2	  0	 90	  4	  2	  2	  6	  6	  1	  2	  1	0.40259	  1	0.70000	  0	 22	 60	 61	  1	
19-Apr-2013	sub2319	2319	  2	  0	 91	  4	  2	  2	  6	  6	  1	  2	  1	0.48564	  1	0.70000	  0	 22	 60	 61	  1	
19-Apr-2013	sub2319	2319	  2	  0	 92	  4	  2	  1	  3	  1	  1	  2	  0	0.49365	  0	0.70000	  0	 21	 80	 81	  1	
19-Apr-2013	sub2319	2319	  2	  0	 93	  4	  2	  1	  3	  1	  1	  1	  1	0.46281	  1	0.70000	  0	 21	 60	 61	  1	
19-Apr-2013	sub2319	2319	  2	  0	 94	  4	  2	  5	  4	  1	  0	  2	  1	0.58714	  0	0.70000	  0	 25	 87	 68	  0	
19-Apr-2013	sub2319	2319	  2	  0	 95	  4	  2	  2	  6	  6	  1	  2	  1	0.54180	  1	0.70000	  0	 22	 60	 61	  0	
19-Apr-2013	sub2319	2319	  2	  0	 96	  4	  2	  6	  5	  1	  0	  1	  1	0.46188	  0	0.70000	  0	 26	 87	 68	  1	
19-Apr-2013	sub2319	2319	  2	  0	 97	  4	  2	  1	  3	  1	  1	  1	  1	0.46023	  1	0.70000	  0	 21	 60	 61	  1	
19-Apr-2013	sub2319	2319	  2	  0	 98	  4	  2	  5	  4	  1	  0	  2	  1	0.53364	  0	0.70000	  0	 25	 87	 68	  0	
19-Apr-2013	sub2319	2319	  2	  0	 99	  4	  2	  2	  6	  6	  1	  1	  0	0.45449	  0	0.70000	  0	 22	 80	 81	  1	
19-Apr-2013	sub2319	2319	  2	  0	100	  4	  2	  4	  1	  2	  0	  2	  0	0.44524	  1	0.70000	  0	 24	 64	 89	  1	
19-Apr-2013	sub2319	2319	  2	  0	101	  4	  2	  5	  4	  1	  0	  2	  1	0.36109	  0	0.60000	  0	 25	 87	 68	  1	
19-Apr-2013	sub2319	2319	  2	  0	102	  4	  2	  4	  1	  2	  1	  2	  1	0.45408	  1	0.60000	  0	 24	 62	 63	  1	
19-Apr-2013	sub2319	2319	  2	  0	103	  4	  2	  5	  4	  1	  0	  2	  1	0.37842	  0	0.60000	  0	 25	 87	 68	  1	
19-Apr-2013	sub2319	2319	  2	  0	104	  4	  2	  3	  2	  5	  1	  1	  1	0.59346	  1	0.60000	  0	 23	 62	 63	  0	
19-Apr-2013	sub2319	2319	  2	  0	105	  4	  2	  5	  4	  1	  0	  2	  1	0.36811	  0	0.60000	  0	 25	 87	 68	  1	
19-Apr-2013	sub2319	2319	  2	  0	106	  4	  2	  1	  3	  1	  1	  1	  1	0.44732	  1	0.60000	  0	 21	 60	 61	  1	
19-Apr-2013	sub2319	2319	  2	  0	107	  4	  2	  1	  3	  1	  1	  2	  0	0.45771	  0	0.60000	  0	 21	 80	 81	  1	
19-Apr-2013	sub2319	2319	  2	  0	108	  4	  2	  2	  6	  6	  1	  2	  1	0.38061	  1	0.60000	  0	 22	 60	 61	  1	
19-Apr-2013	sub2319	2319	  2	  0	109	  4	  2	  4	  1	  2	  0	  2	  0	0.31758	  1	0.60000	  0	 24	 64	 89	  1	
19-Apr-2013	sub2319	2319	  2	  0	110	  4	  2	  2	  6	  6	  1	  2	  1	0.44996	  1	0.60000	  0	 22	 60	 61	  1	
19-Apr-2013	sub2319	2319	  2	  0	111	  4	  2	  3	  2	  5	  1	  1	  1	0.48846	  1	0.60000	  0	 23	 62	 63	  1	
19-Apr-2013	sub2319	2319	  2	  0	112	  4	  2	  6	  5	  1	  0	  1	  1	0.53743	  0	0.60000	  0	 26	 87	 68	  0	
19-Apr-2013	sub2319	2319	  2	  0	113	  4	  2	  4	  1	  2	  1	  2	  1	0.46098	  1	0.60000	  0	 24	 62	 63	  1	
19-Apr-2013	sub2319	2319	  2	  0	114	  4	  2	  3	  2	  5	  1	  1	  1	0.40057	  1	0.60000	  0	 23	 62	 63	  1	
19-Apr-2013	sub2319	2319	  2	  0	115	  4	  2	  6	  5	  1	  1	  1	  0	0.45747	  0	0.60000	  0	 26	 85	 86	  1	
19-Apr-2013	sub2319	2319	  2	  0	116	  4	  2	  5	  4	  1	  0	  2	  1	0.46008	  0	0.60000	  0	 25	 87	 68	  1	
19-Apr-2013	sub2319	2319	  2	  0	117	  4	  2	  1	  3	  1	  1	  1	  1	0.44366	  1	0.60000	  0	 21	 60	 61	  1	
19-Apr-2013	sub2319	2319	  2	  0	118	  4	  2	  4	  1	  2	  1	  2	  1	0.42672	  1	0.60000	  0	 24	 62	 63	  1	
19-Apr-2013	sub2319	2319	  2	  0	119	  4	  2	  4	  1	  2	  1	  2	  1	0.38068	  1	0.60000	  0	 24	 62	 63	  1	
19-Apr-2013	sub2319	2319	  2	  0	120	  4	  2	  2	  6	  6	  1	  2	  1	0.45017	  1	0.60000	  0	 22	 60	 61	  1	
19-Apr-2013	sub2319	2319	  2	  0	121	  4	  2	  6	  5	  1	  0	  1	  1	0.57213	  0	0.60000	  0	 26	 87	 68	  0	
19-Apr-2013	sub2319	2319	  2	  0	122	  4	  2	  2	  6	  6	  1	  2	  1	0.49191	  1	0.60000	  0	 22	 60	 61	  1	
19-Apr-2013	sub2319	2319	  2	  0	123	  4	  2	  2	  6	  6	  1	  2	  1	1.50904	  1	0.60000	  1	 22	 60	 51	  0	
19-Apr-2013	sub2319	2319	  2	  0	124	  4	  2	  4	  1	  2	  1	  2	  1	0.48459	  1	0.60000	  0	 24	 62	 63	  1	
19-Apr-2013	sub2319	2319	  2	  0	125	  4	  2	  1	  3	  1	  1	  1	  1	0.43002	  1	0.60000	  0	 21	 60	 61	  1	
19-Apr-2013	sub2319	2319	  2	  0	126	  4	  2	  3	  2	  5	  1	  1	  1	0.52714	  1	0.60000	  0	 23	 62	 63	  0	
19-Apr-2013	sub2319	2319	  2	  0	127	  4	  2	  1	  3	  1	  1	  1	  1	0.51497	  1	0.60000	  0	 21	 60	 61	  0	
19-Apr-2013	sub2319	2319	  2	  0	128	  4	  2	  3	  2	  5	  0	  1	  0	0.43990	  1	0.60000	  0	 23	 64	 89	  1	
19-Apr-2013	sub2319	2319	  2	  0	129	  4	  2	  2	  6	  6	  1	  1	  0	0.43359	  0	0.60000	  0	 22	 80	 81	  1	
19-Apr-2013	sub2319	2319	  2	  0	130	  4	  2	  5	  4	  1	  0	  2	  1	0.36836	  0	0.60000	  0	 25	 87	 68	  1	
19-Apr-2013	sub2319	2319	  2	  0	131	  4	  2	  3	  2	  5	  1	  2	  0	0.41992	  0	0.60000	  0	 23	 82	 83	  1	
19-Apr-2013	sub2319	2319	  2	  0	132	  4	  2	  3	  2	  5	  0	  1	  0	0.48324	  1	0.60000	  0	 23	 64	 89	  1	
19-Apr-2013	sub2319	2319	  2	  0	133	  4	  2	  6	  5	  1	  0	  1	  1	0.54085	  0	0.60000	  0	 26	 87	 68	  0	
19-Apr-2013	sub2319	2319	  2	  0	134	  4	  2	  1	  3	  1	  1	  1	  1	0.36553	  1	0.60000	  0	 21	 60	 61	  1	
19-Apr-2013	sub2319	2319	  2	  0	135	  4	  2	  3	  2	  5	  1	  1	  1	0.51248	  1	0.60000	  0	 23	 62	 63	  0	
19-Apr-2013	sub2319	2319	  2	  0	136	  4	  2	  4	  1	  2	  1	  2	  1	0.50441	  1	0.60000	  0	 24	 62	 63	  0	
19-Apr-2013	sub2319	2319	  2	  0	137	  4	  2	  6	  5	  1	  0	  2	  0	0.39360	  1	0.60000	  0	 26	 67	 88	  1	
19-Apr-2013	sub2319	2319	  2	  0	138	  4	  2	  1	  3	  1	  1	  1	  1	0.56752	  1	0.60000	  0	 21	 60	 61	  0	
19-Apr-2013	sub2319	2319	  2	  0	139	  4	  2	  6	  5	  1	  1	  1	  0	0.49099	  0	0.60000	  0	 26	 85	 86	  1	
19-Apr-2013	sub2319	2319	  2	  0	140	  4	  2	  4	  1	  2	  1	  2	  1	0.48109	  1	0.60000	  0	 24	 62	 63	  1	
19-Apr-2013	sub2319	2319	  2	  0	141	  4	  2	  5	  4	  1	  0	  2	  1	0.47359	  0	0.60000	  0	 25	 87	 68	  1	
19-Apr-2013	sub2319	2319	  2	  0	142	  4	  2	  3	  2	  5	  1	  1	  1	0.72534	  1	0.60000	  1	 23	 62	 51	  0	
19-Apr-2013	sub2319	2319	  2	  0	143	  4	  2	  4	  1	  2	  0	  2	  0	0.43875	  1	0.60000	  0	 24	 64	 89	  1	
19-Apr-2013	sub2319	2319	  2	  0	144	  4	  2	  5	  4	  1	  0	  2	  1	0.48281	  0	0.60000	  0	 25	 87	 68	  1	
19-Apr-2013	sub2319	2319	  2	  0	145	  4	  2	  1	  3	  1	  1	  1	  1	0.48165	  1	0.60000	  0	 21	 60	 61	  1	
19-Apr-2013	sub2319	2319	  2	  0	146	  4	  2	  3	  2	  5	  1	  1	  1	0.55468	  1	0.60000	  0	 23	 62	 63	  0	
19-Apr-2013	sub2319	2319	  2	  0	147	  4	  2	  6	  5	  1	  1	  1	  0	0.56327	  0	0.60000	  0	 26	 85	 86	  0	
19-Apr-2013	sub2319	2319	  2	  0	148	  4	  2	  6	  5	  1	  1	  1	  0	0.49890	  0	0.60000	  0	 26	 85	 86	  1	
19-Apr-2013	sub2319	2319	  2	  0	149	  4	  2	  5	  4	  1	  0	  2	  1	0.52745	  0	0.60000	  0	 25	 87	 68	  0	
19-Apr-2013	sub2319	2319	  2	  0	150	  4	  2	  1	  3	  1	  1	  1	  1	0.46633	  1	0.60000	  0	 21	 60	 61	  1	
19-Apr-2013	sub2319	2319	  2	  0	  1	  5	  1	  3	  1	  1	  1	  2	  0	0.36226	  0	0.60000	  0	 13	 42	 43	  1	
19-Apr-2013	sub2319	2319	  2	  0	  2	  5	  1	  4	  6	  5	  1	  2	  1	0.23303	  1	0.30000	  0	 14	 32	 33	  1	
19-Apr-2013	sub2319	2319	  2	  0	  3	  5	  1	  3	  1	  1	  0	  2	  1	0.28772	  0	0.30000	  0	 13	 44	 39	  1	
19-Apr-2013	sub2319	2319	  2	  0	  4	  5	  1	  6	  4	  5	  0	  2	  0	0.40481	  1	0.30000	  1	 16	 37	 51	  1	
19-Apr-2013	sub2319	2319	  2	  0	  5	  5	  1	  6	  4	  5	  1	  2	  1	0.30959	  1	0.90000	  0	 16	 35	 36	  1	
19-Apr-2013	sub2319	2319	  2	  0	  6	  5	  1	  4	  6	  5	  1	  1	  0	0.44338	  0	0.90000	  0	 14	 42	 43	  1	
19-Apr-2013	sub2319	2319	  2	  0	  7	  5	  1	  4	  6	  5	  1	  2	  1	0.46959	  1	0.90000	  0	 14	 32	 33	  1	
19-Apr-2013	sub2319	2319	  2	  0	  8	  5	  1	  6	  4	  5	  0	  2	  0	0.37963	  1	0.90000	  0	 16	 37	 48	  1	
19-Apr-2013	sub2319	2319	  2	  0	  9	  5	  1	  4	  6	  5	  1	  2	  1	0.40669	  1	0.90000	  0	 14	 32	 33	  1	
19-Apr-2013	sub2319	2319	  2	  0	 10	  5	  1	  5	  5	  6	  0	  1	  0	0.49756	  1	0.90000	  0	 15	 37	 48	  1	
19-Apr-2013	sub2319	2319	  2	  0	 11	  5	  1	  6	  4	  5	  1	  1	  0	0.73651	  0	0.90000	  0	 16	 45	 46	  0	
19-Apr-2013	sub2319	2319	  2	  0	 12	  5	  1	  1	  2	  6	  1	  2	  0	0.49018	  0	0.90000	  0	 11	 40	 41	  1	
19-Apr-2013	sub2319	2319	  2	  0	 13	  5	  1	  3	  1	  1	  0	  2	  1	0.46007	  0	0.90000	  0	 13	 44	 39	  1	
19-Apr-2013	sub2319	2319	  2	  0	 14	  5	  1	  1	  2	  6	  1	  2	  0	0.48298	  0	0.90000	  0	 11	 40	 41	  1	
19-Apr-2013	sub2319	2319	  2	  0	 15	  5	  1	  2	  3	  5	  1	  1	  0	0.50873	  0	0.90000	  0	 12	 40	 41	  0	
19-Apr-2013	sub2319	2319	  2	  0	 16	  5	  1	  5	  5	  6	  1	  1	  1	0.48218	  1	0.80000	  0	 15	 35	 36	  1	
19-Apr-2013	sub2319	2319	  2	  0	 17	  5	  1	  6	  4	  5	  1	  1	  0	0.45761	  0	0.80000	  0	 16	 45	 46	  1	
19-Apr-2013	sub2319	2319	  2	  0	 18	  5	  1	  2	  3	  5	  1	  1	  0	0.52016	  0	0.70000	  0	 12	 40	 41	  0	
19-Apr-2013	sub2319	2319	  2	  0	 19	  5	  1	  2	  3	  5	  1	  1	  0	0.51684	  0	0.70000	  0	 12	 40	 41	  0	
19-Apr-2013	sub2319	2319	  2	  0	 20	  5	  1	  6	  4	  5	  1	  2	  1	0.48639	  1	0.70000	  0	 16	 35	 36	  1	
19-Apr-2013	sub2319	2319	  2	  0	 21	  5	  1	  5	  5	  6	  0	  1	  0	0.53286	  1	0.60000	  0	 15	 37	 48	  0	
19-Apr-2013	sub2319	2319	  2	  0	 22	  5	  1	  2	  3	  5	  1	  2	  1	0.48219	  1	0.60000	  0	 12	 30	 31	  1	
19-Apr-2013	sub2319	2319	  2	  0	 23	  5	  1	  5	  5	  6	  0	  2	  1	0.45158	  0	0.60000	  0	 15	 47	 38	  1	
19-Apr-2013	sub2319	2319	  2	  0	 24	  5	  1	  2	  3	  5	  1	  2	  1	0.61395	  1	0.60000	  1	 12	 30	 51	  0	
19-Apr-2013	sub2319	2319	  2	  0	 25	  5	  1	  1	  2	  6	  1	  2	  0	0.39427	  0	0.90000	  0	 11	 40	 41	  1	
19-Apr-2013	sub2319	2319	  2	  0	 26	  5	  1	  5	  5	  6	  1	  1	  1	0.52676	  1	0.90000	  0	 15	 35	 36	  0	
19-Apr-2013	sub2319	2319	  2	  0	 27	  5	  1	  3	  1	  1	  1	  2	  0	0.49543	  0	0.90000	  0	 13	 42	 43	  1	
19-Apr-2013	sub2319	2319	  2	  0	 28	  5	  1	  3	  1	  1	  1	  1	  1	0.50439	  1	0.90000	  0	 13	 32	 33	  0	
19-Apr-2013	sub2319	2319	  2	  0	 29	  5	  1	  3	  1	  1	  1	  1	  1	0.44331	  1	0.90000	  0	 13	 32	 33	  1	
19-Apr-2013	sub2319	2319	  2	  0	 30	  5	  1	  2	  3	  5	  1	  2	  1	0.50612	  1	0.80000	  0	 12	 30	 31	  0	
19-Apr-2013	sub2319	2319	  2	  0	 31	  5	  1	  6	  4	  5	  0	  2	  0	0.52211	  1	0.80000	  0	 16	 37	 48	  0	
19-Apr-2013	sub2319	2319	  2	  0	 32	  5	  1	  2	  3	  5	  1	  2	  1	0.38284	  1	0.80000	  0	 12	 30	 31	  1	
19-Apr-2013	sub2319	2319	  2	  0	 33	  5	  1	  1	  2	  6	  1	  2	  0	0.38742	  0	0.80000	  0	 11	 40	 41	  1	
19-Apr-2013	sub2319	2319	  2	  0	 34	  5	  1	  3	  1	  1	  1	  2	  0	0.47940	  0	0.80000	  0	 13	 42	 43	  1	
19-Apr-2013	sub2319	2319	  2	  0	 35	  5	  1	  4	  6	  5	  1	  2	  1	0.49592	  1	0.70000	  0	 14	 32	 33	  1	
19-Apr-2013	sub2319	2319	  2	  0	 36	  5	  1	  1	  2	  6	  1	  1	  1	0.41011	  1	0.70000	  0	 11	 30	 31	  1	
19-Apr-2013	sub2319	2319	  2	  0	 37	  5	  1	  5	  5	  6	  0	  1	  0	0.51127	  1	0.70000	  0	 15	 37	 48	  0	
19-Apr-2013	sub2319	2319	  2	  0	 38	  5	  1	  2	  3	  5	  1	  2	  1	0.46181	  1	0.70000	  0	 12	 30	 31	  1	
19-Apr-2013	sub2319	2319	  2	  0	 39	  5	  1	  2	  3	  5	  1	  2	  1	0.46268	  1	0.70000	  0	 12	 30	 31	  1	
19-Apr-2013	sub2319	2319	  2	  0	 40	  5	  1	  4	  6	  5	  1	  2	  1	0.38019	  1	0.70000	  0	 14	 32	 33	  1	
19-Apr-2013	sub2319	2319	  2	  0	 41	  5	  1	  6	  4	  5	  1	  2	  1	0.47586	  1	0.60000	  0	 16	 35	 36	  1	
19-Apr-2013	sub2319	2319	  2	  0	 42	  5	  1	  1	  2	  6	  1	  1	  1	0.53067	  1	0.60000	  0	 11	 30	 31	  0	
19-Apr-2013	sub2319	2319	  2	  0	 43	  5	  1	  4	  6	  5	  1	  2	  1	0.36054	  1	0.60000	  0	 14	 32	 33	  1	
19-Apr-2013	sub2319	2319	  2	  0	 44	  5	  1	  6	  4	  5	  1	  2	  1	0.43383	  1	0.60000	  0	 16	 35	 36	  1	
19-Apr-2013	sub2319	2319	  2	  0	 45	  5	  1	  1	  2	  6	  1	  2	  0	0.45382	  0	0.60000	  0	 11	 40	 41	  1	
19-Apr-2013	sub2319	2319	  2	  0	 46	  5	  1	  4	  6	  5	  1	  2	  1	0.50117	  1	0.60000	  0	 14	 32	 33	  0	
19-Apr-2013	sub2319	2319	  2	  0	 47	  5	  1	  6	  4	  5	  0	  2	  0	0.48013	  1	0.60000	  0	 16	 37	 48	  1	
19-Apr-2013	sub2319	2319	  2	  0	 48	  5	  1	  1	  2	  6	  1	  1	  1	0.45094	  1	0.60000	  0	 11	 30	 31	  1	
19-Apr-2013	sub2319	2319	  2	  0	 49	  5	  1	  2	  3	  5	  1	  2	  1	0.42730	  1	0.60000	  0	 12	 30	 31	  1	
19-Apr-2013	sub2319	2319	  2	  0	 50	  5	  1	  3	  1	  1	  1	  1	  1	0.49368	  1	0.60000	  0	 13	 32	 33	  1	
19-Apr-2013	sub2319	2319	  2	  0	 51	  5	  1	  6	  4	  5	  0	  2	  0	0.48888	  1	0.50000	  0	 16	 37	 48	  1	
19-Apr-2013	sub2319	2319	  2	  0	 52	  5	  1	  5	  5	  6	  1	  1	  1	0.53839	  1	0.50000	  1	 15	 35	 51	  0	
19-Apr-2013	sub2319	2319	  2	  0	 53	  5	  1	  3	  1	  1	  0	  2	  1	0.42528	  0	0.70000	  0	 13	 44	 39	  1	
19-Apr-2013	sub2319	2319	  2	  0	 54	  5	  1	  6	  4	  5	  1	  2	  1	0.47448	  1	0.70000	  0	 16	 35	 36	  1	
19-Apr-2013	sub2319	2319	  2	  0	 55	  5	  1	  3	  1	  1	  1	  1	  1	0.54512	  1	0.70000	  0	 13	 32	 33	  0	
19-Apr-2013	sub2319	2319	  2	  0	 56	  5	  1	  2	  3	  5	  1	  2	  1	0.48787	  1	0.70000	  0	 12	 30	 31	  1	
19-Apr-2013	sub2319	2319	  2	  0	 57	  5	  1	  5	  5	  6	  0	  2	  1	0.45283	  0	0.70000	  0	 15	 47	 38	  1	
19-Apr-2013	sub2319	2319	  2	  0	 58	  5	  1	  1	  2	  6	  1	  1	  1	0.52022	  1	0.70000	  0	 11	 30	 31	  0	
19-Apr-2013	sub2319	2319	  2	  0	 59	  5	  1	  1	  2	  6	  1	  1	  1	0.44751	  1	0.70000	  0	 11	 30	 31	  1	
19-Apr-2013	sub2319	2319	  2	  0	 60	  5	  1	  4	  6	  5	  1	  2	  1	0.44113	  1	0.70000	  0	 14	 32	 33	  1	
19-Apr-2013	sub2319	2319	  2	  0	 61	  5	  1	  4	  6	  5	  1	  2	  1	0.41932	  1	0.60000	  0	 14	 32	 33	  1	
19-Apr-2013	sub2319	2319	  2	  0	 62	  5	  1	  1	  2	  6	  1	  2	  0	0.41474	  0	0.60000	  0	 11	 40	 41	  1	
19-Apr-2013	sub2319	2319	  2	  0	 63	  5	  1	  6	  4	  5	  0	  2	  0	0.42032	  1	0.60000	  0	 16	 37	 48	  1	
19-Apr-2013	sub2319	2319	  2	  0	 64	  5	  1	  3	  1	  1	  1	  1	  1	0.47543	  1	0.60000	  0	 13	 32	 33	  1	
19-Apr-2013	sub2319	2319	  2	  0	 65	  5	  1	  1	  2	  6	  1	  1	  1	0.45972	  1	0.60000	  0	 11	 30	 31	  1	
19-Apr-2013	sub2319	2319	  2	  0	 66	  5	  1	  3	  1	  1	  1	  1	  1	0.39479	  1	0.60000	  0	 13	 32	 33	  1	
19-Apr-2013	sub2319	2319	  2	  0	 67	  5	  1	  4	  6	  5	  0	  2	  0	0.47237	  1	0.60000	  0	 14	 34	 49	  1	
19-Apr-2013	sub2319	2319	  2	  0	 68	  5	  1	  5	  5	  6	  1	  1	  1	0.37056	  1	0.60000	  0	 15	 35	 36	  1	
19-Apr-2013	sub2319	2319	  2	  0	 69	  5	  1	  2	  3	  5	  1	  2	  1	0.45618	  1	0.60000	  0	 12	 30	 31	  1	
19-Apr-2013	sub2319	2319	  2	  0	 70	  5	  1	  5	  5	  6	  1	  2	  0	0.42798	  0	0.60000	  0	 15	 45	 46	  1	
19-Apr-2013	sub2319	2319	  2	  0	 71	  5	  1	  3	  1	  1	  1	  1	  1	0.62283	  1	0.60000	  1	 13	 32	 51	  0	
19-Apr-2013	sub2319	2319	  2	  0	 72	  5	  1	  2	  3	  5	  1	  2	  1	0.55651	  1	0.70000	  0	 12	 30	 31	  0	
19-Apr-2013	sub2319	2319	  2	  0	 73	  5	  1	  5	  5	  6	  0	  1	  0	0.50816	  1	0.70000	  0	 15	 37	 48	  0	
19-Apr-2013	sub2319	2319	  2	  0	 74	  5	  1	  5	  5	  6	  1	  1	  1	0.42652	  1	0.70000	  0	 15	 35	 36	  1	
19-Apr-2013	sub2319	2319	  2	  0	 75	  5	  1	  4	  6	  5	  0	  2	  0	0.40692	  1	0.70000	  0	 14	 34	 49	  1	
19-Apr-2013	sub2319	2319	  2	  0	 76	  5	  2	  6	  4	  5	  0	  2	  0	0.56547	  1	0.70000	  0	 26	 67	 88	  0	
19-Apr-2013	sub2319	2319	  2	  0	 77	  5	  2	  5	  5	  6	  0	  2	  1	0.54508	  0	0.70000	  0	 25	 87	 68	  0	
19-Apr-2013	sub2319	2319	  2	  0	 78	  5	  2	  5	  5	  6	  0	  2	  1	0.44806	  0	0.70000	  0	 25	 87	 68	  1	
19-Apr-2013	sub2319	2319	  2	  0	 79	  5	  2	  5	  5	  6	  0	  2	  1	0.37799	  0	0.70000	  0	 25	 87	 68	  1	
19-Apr-2013	sub2319	2319	  2	  0	 80	  5	  2	  5	  5	  6	  0	  2	  1	0.39713	  0	0.70000	  0	 25	 87	 68	  1	
19-Apr-2013	sub2319	2319	  2	  0	 81	  5	  2	  6	  4	  5	  1	  2	  1	0.41202	  1	0.60000	  0	 26	 65	 66	  1	
19-Apr-2013	sub2319	2319	  2	  0	 82	  5	  2	  2	  3	  5	  1	  2	  1	0.50876	  1	0.60000	  0	 22	 60	 61	  0	
19-Apr-2013	sub2319	2319	  2	  0	 83	  5	  2	  1	  2	  6	  1	  1	  1	0.51066	  1	0.60000	  0	 21	 60	 61	  0	
19-Apr-2013	sub2319	2319	  2	  0	 84	  5	  2	  4	  6	  5	  1	  1	  0	0.39692	  0	0.60000	  0	 24	 82	 83	  1	
19-Apr-2013	sub2319	2319	  2	  0	 85	  5	  2	  3	  1	  1	  1	  1	  1	0.54301	  1	0.60000	  0	 23	 62	 63	  0	
19-Apr-2013	sub2319	2319	  2	  0	 86	  5	  2	  6	  4	  5	  0	  2	  0	0.44965	  1	0.60000	  0	 26	 67	 88	  1	
19-Apr-2013	sub2319	2319	  2	  0	 87	  5	  2	  4	  6	  5	  1	  2	  1	0.45189	  1	0.60000	  0	 24	 62	 63	  1	
19-Apr-2013	sub2319	2319	  2	  0	 88	  5	  2	  6	  4	  5	  1	  1	  0	0.51359	  0	0.60000	  0	 26	 85	 86	  0	
19-Apr-2013	sub2319	2319	  2	  0	 89	  5	  2	  1	  2	  6	  1	  1	  1	0.48627	  1	0.60000	  0	 21	 60	 61	  1	
19-Apr-2013	sub2319	2319	  2	  0	 90	  5	  2	  1	  2	  6	  1	  1	  1	0.46271	  1	0.60000	  0	 21	 60	 61	  1	
19-Apr-2013	sub2319	2319	  2	  0	 91	  5	  2	  4	  6	  5	  1	  2	  1	0.44567	  1	0.60000	  0	 24	 62	 63	  1	
19-Apr-2013	sub2319	2319	  2	  0	 92	  5	  2	  1	  2	  6	  1	  1	  1	0.51202	  1	0.60000	  0	 21	 60	 61	  0	
19-Apr-2013	sub2319	2319	  2	  0	 93	  5	  2	  5	  5	  6	  0	  2	  1	0.56617	  0	0.60000	  0	 25	 87	 68	  0	
19-Apr-2013	sub2319	2319	  2	  0	 94	  5	  2	  2	  3	  5	  1	  2	  1	0.39029	  1	0.60000	  0	 22	 60	 61	  1	
19-Apr-2013	sub2319	2319	  2	  0	 95	  5	  2	  4	  6	  5	  1	  2	  1	0.34399	  1	0.60000	  0	 24	 62	 63	  1	
19-Apr-2013	sub2319	2319	  2	  0	 96	  5	  2	  2	  3	  5	  1	  2	  1	0.39272	  1	0.60000	  0	 22	 60	 61	  1	
19-Apr-2013	sub2319	2319	  2	  0	 97	  5	  2	  3	  1	  1	  1	  1	  1	0.37415	  1	0.60000	  0	 23	 62	 63	  1	
19-Apr-2013	sub2319	2319	  2	  0	 98	  5	  2	  3	  1	  1	  1	  1	  1	0.39545	  1	0.60000	  0	 23	 62	 63	  1	
19-Apr-2013	sub2319	2319	  2	  0	 99	  5	  2	  4	  6	  5	  0	  2	  0	0.38742	  1	0.60000	  0	 24	 64	 89	  1	
19-Apr-2013	sub2319	2319	  2	  0	100	  5	  2	  1	  2	  6	  1	  1	  1	0.53934	  1	0.60000	  0	 21	 60	 61	  0	
19-Apr-2013	sub2319	2319	  2	  0	101	  5	  2	  1	  2	  6	  1	  1	  1	0.46025	  1	0.50000	  0	 21	 60	 61	  1	
19-Apr-2013	sub2319	2319	  2	  0	102	  5	  2	  4	  6	  5	  0	  2	  0	0.55852	  1	0.50000	  1	 24	 64	 51	  0	
19-Apr-2013	sub2319	2319	  2	  0	103	  5	  2	  4	  6	  5	  1	  2	  1	0.39086	  1	0.60000	  0	 24	 62	 63	  1	
19-Apr-2013	sub2319	2319	  2	  0	104	  5	  2	  6	  4	  5	  0	  1	  1	0.49147	  0	0.60000	  0	 26	 87	 68	  1	
19-Apr-2013	sub2319	2319	  2	  0	105	  5	  2	  4	  6	  5	  1	  2	  1	0.36312	  1	0.60000	  0	 24	 62	 63	  1	
19-Apr-2013	sub2319	2319	  2	  0	106	  5	  2	  5	  5	  6	  0	  1	  0	0.43917	  1	0.60000	  0	 25	 67	 88	  1	
19-Apr-2013	sub2319	2319	  2	  0	107	  5	  2	  2	  3	  5	  1	  2	  1	0.49102	  1	0.60000	  0	 22	 60	 61	  1	
19-Apr-2013	sub2319	2319	  2	  0	108	  5	  2	  1	  2	  6	  1	  2	  0	0.41756	  0	0.60000	  0	 21	 80	 81	  1	
19-Apr-2013	sub2319	2319	  2	  0	109	  5	  2	  5	  5	  6	  0	  2	  1	0.48773	  0	0.60000	  0	 25	 87	 68	  1	
19-Apr-2013	sub2319	2319	  2	  0	110	  5	  2	  1	  2	  6	  1	  2	  0	0.38553	  0	0.60000	  0	 21	 80	 81	  1	
19-Apr-2013	sub2319	2319	  2	  0	111	  5	  2	  2	  3	  5	  1	  2	  1	0.49255	  1	0.60000	  0	 22	 60	 61	  1	
19-Apr-2013	sub2319	2319	  2	  0	112	  5	  2	  1	  2	  6	  1	  1	  1	0.48672	  1	0.60000	  0	 21	 60	 61	  1	
19-Apr-2013	sub2319	2319	  2	  0	113	  5	  2	  6	  4	  5	  1	  1	  0	0.66874	  0	0.60000	  1	 26	 85	 51	  0	
19-Apr-2013	sub2319	2319	  2	  0	114	  5	  2	  6	  4	  5	  1	  1	  0	0.44358	  0	0.70000	  0	 26	 85	 86	  1	
19-Apr-2013	sub2319	2319	  2	  0	115	  5	  2	  5	  5	  6	  0	  2	  1	0.43629	  0	0.70000	  0	 25	 87	 68	  1	
19-Apr-2013	sub2319	2319	  2	  0	116	  5	  2	  4	  6	  5	  1	  2	  1	0.47713	  1	0.70000	  0	 24	 62	 63	  1	
19-Apr-2013	sub2319	2319	  2	  0	117	  5	  2	  6	  4	  5	  1	  2	  1	0.56869	  1	0.70000	  0	 26	 65	 66	  0	
19-Apr-2013	sub2319	2319	  2	  0	118	  5	  2	  2	  3	  5	  1	  2	  1	0.43046	  1	0.70000	  0	 22	 60	 61	  1	
19-Apr-2013	sub2319	2319	  2	  0	119	  5	  2	  5	  5	  6	  0	  2	  1	0.44275	  0	0.70000	  0	 25	 87	 68	  1	
19-Apr-2013	sub2319	2319	  2	  0	120	  5	  2	  5	  5	  6	  0	  2	  1	0.50661	  0	0.70000	  0	 25	 87	 68	  0	
19-Apr-2013	sub2319	2319	  2	  0	121	  5	  2	  1	  2	  6	  1	  1	  1	0.44962	  1	0.60000	  0	 21	 60	 61	  1	
19-Apr-2013	sub2319	2319	  2	  0	122	  5	  2	  5	  5	  6	  0	  1	  0	0.41553	  1	0.60000	  0	 25	 67	 88	  1	
19-Apr-2013	sub2319	2319	  2	  0	123	  5	  2	  3	  1	  1	  1	  2	  0	0.38868	  0	0.60000	  0	 23	 82	 83	  1	
19-Apr-2013	sub2319	2319	  2	  0	124	  5	  2	  2	  3	  5	  1	  2	  1	0.48674	  1	0.60000	  0	 22	 60	 61	  1	
19-Apr-2013	sub2319	2319	  2	  0	125	  5	  2	  6	  4	  5	  1	  2	  1	0.54403	  1	0.60000	  0	 26	 65	 66	  0	
19-Apr-2013	sub2319	2319	  2	  0	126	  5	  2	  3	  1	  1	  1	  1	  1	0.51619	  1	0.60000	  0	 23	 62	 63	  0	
19-Apr-2013	sub2319	2319	  2	  0	127	  5	  2	  2	  3	  5	  1	  2	  1	0.38510	  1	0.60000	  0	 22	 60	 61	  1	
19-Apr-2013	sub2319	2319	  2	  0	128	  5	  2	  3	  1	  1	  1	  1	  1	0.57273	  1	0.60000	  0	 23	 62	 63	  0	
19-Apr-2013	sub2319	2319	  2	  0	129	  5	  2	  1	  2	  6	  1	  1	  1	0.60541	  1	0.60000	  1	 21	 60	 51	  0	
19-Apr-2013	sub2319	2319	  2	  0	130	  5	  2	  1	  2	  6	  1	  1	  1	0.44874	  1	0.70000	  0	 21	 60	 61	  1	
19-Apr-2013	sub2319	2319	  2	  0	131	  5	  2	  2	  3	  5	  1	  2	  1	0.44846	  1	0.70000	  0	 22	 60	 61	  1	
19-Apr-2013	sub2319	2319	  2	  0	132	  5	  2	  4	  6	  5	  1	  2	  1	0.60939	  1	0.70000	  0	 24	 62	 63	  0	
19-Apr-2013	sub2319	2319	  2	  0	133	  5	  2	  6	  4	  5	  0	  2	  0	0.77193	  1	0.70000	  1	 26	 67	 51	  0	
19-Apr-2013	sub2319	2319	  2	  0	134	  5	  2	  2	  3	  5	  1	  2	  1	0.46599	  1	0.80000	  0	 22	 60	 61	  1	
19-Apr-2013	sub2319	2319	  2	  0	135	  5	  2	  4	  6	  5	  0	  2	  0	0.38353	  1	0.70000	  0	 24	 64	 89	  1	
19-Apr-2013	sub2319	2319	  2	  0	136	  5	  2	  5	  5	  6	  0	  1	  0	0.36732	  1	0.70000	  0	 25	 67	 88	  1	
19-Apr-2013	sub2319	2319	  2	  0	137	  5	  2	  2	  3	  5	  1	  2	  1	0.43696	  1	0.70000	  0	 22	 60	 61	  1	
19-Apr-2013	sub2319	2319	  2	  0	138	  5	  2	  3	  1	  1	  0	  2	  1	0.43963	  0	0.70000	  0	 23	 84	 69	  1	
19-Apr-2013	sub2319	2319	  2	  0	139	  5	  2	  3	  1	  1	  1	  1	  1	0.44433	  1	0.70000	  0	 23	 62	 63	  1	
19-Apr-2013	sub2319	2319	  2	  0	140	  5	  2	  4	  6	  5	  1	  2	  1	0.52415	  1	0.70000	  0	 24	 62	 63	  0	
19-Apr-2013	sub2319	2319	  2	  0	141	  5	  2	  1	  2	  6	  1	  1	  1	0.46761	  1	0.70000	  0	 21	 60	 61	  1	
19-Apr-2013	sub2319	2319	  2	  0	142	  5	  2	  5	  5	  6	  0	  2	  1	0.55044	  0	0.70000	  0	 25	 87	 68	  0	
19-Apr-2013	sub2319	2319	  2	  0	143	  5	  2	  3	  1	  1	  0	  1	  0	0.44150	  1	0.70000	  0	 23	 64	 89	  1	
19-Apr-2013	sub2319	2319	  2	  0	144	  5	  2	  3	  1	  1	  1	  1	  1	0.43663	  1	0.70000	  0	 23	 62	 63	  1	
19-Apr-2013	sub2319	2319	  2	  0	145	  5	  2	  3	  1	  1	  1	  1	  1	0.42500	  1	0.70000	  0	 23	 62	 63	  1	
19-Apr-2013	sub2319	2319	  2	  0	146	  5	  2	  3	  1	  1	  1	  1	  1	0.34876	  1	0.70000	  0	 23	 62	 63	  1	
19-Apr-2013	sub2319	2319	  2	  0	147	  5	  2	  6	  4	  5	  0	  2	  0	0.46732	  1	0.70000	  0	 26	 67	 88	  1	
19-Apr-2013	sub2319	2319	  2	  0	148	  5	  2	  2	  3	  5	  1	  2	  1	0.46437	  1	0.70000	  0	 22	 60	 61	  1	
19-Apr-2013	sub2319	2319	  2	  0	149	  5	  2	  4	  6	  5	  1	  2	  1	0.47068	  1	0.70000	  0	 24	 62	 63	  1	
19-Apr-2013	sub2319	2319	  2	  0	150	  5	  2	  6	  4	  5	  0	  2	  0	0.46552	  1	0.70000	  0	 26	 67	 88	  1	
19-Apr-2013	sub2319	2319	  2	  0	  1	  6	  1	  5	  3	  2	  0	  2	  1	0.25472	  0	0.60000	  0	 15	 47	 38	  1	
19-Apr-2013	sub2319	2319	  2	  0	  2	  6	  1	  4	  6	  3	  1	  2	  1	0.26355	  1	0.30000	  0	 14	 32	 33	  1	
19-Apr-2013	sub2319	2319	  2	  0	  3	  6	  1	  4	  6	  3	  1	  2	  1	0.23396	  1	0.30000	  0	 14	 32	 33	  1	
19-Apr-2013	sub2319	2319	  2	  0	  4	  6	  1	  2	  2	  1	  1	  2	  1	0.17288	  1	0.30000	  0	 12	 30	 31	  1	
19-Apr-2013	sub2319	2319	  2	  0	  5	  6	  1	  3	  5	  5	  0	  2	  1	0.28021	  0	0.30000	  0	 13	 44	 39	  1	
19-Apr-2013	sub2319	2319	  2	  0	  6	  6	  1	  6	  1	  3	  0	  2	  0	0.36174	  1	0.30000	  1	 16	 37	 51	  1	
19-Apr-2013	sub2319	2319	  2	  0	  7	  6	  1	  5	  3	  2	  0	  2	  1	0.28009	  0	0.90000	  0	 15	 47	 38	  1	
19-Apr-2013	sub2319	2319	  2	  0	  8	  6	  1	  5	  3	  2	  1	  2	  0	0.33314	  0	0.90000	  0	 15	 45	 46	  1	
19-Apr-2013	sub2319	2319	  2	  0	  9	  6	  1	  1	  4	  2	  1	  2	  0	0.28379	  0	0.90000	  0	 11	 40	 41	  1	
19-Apr-2013	sub2319	2319	  2	  0	 10	  6	  1	  3	  5	  5	  1	  2	  0	0.51105	  0	0.90000	  0	 13	 42	 43	  0	
19-Apr-2013	sub2319	2319	  2	  0	 11	  6	  1	  6	  1	  3	  1	  2	  1	0.44372	  1	0.90000	  0	 16	 35	 36	  1	
19-Apr-2013	sub2319	2319	  2	  0	 12	  6	  1	  3	  5	  5	  1	  2	  0	0.40294	  0	0.90000	  0	 13	 42	 43	  1	
19-Apr-2013	sub2319	2319	  2	  0	 13	  6	  1	  5	  3	  2	  1	  2	  0	0.50183	  0	0.90000	  0	 15	 45	 46	  0	
19-Apr-2013	sub2319	2319	  2	  0	 14	  6	  1	  4	  6	  3	  1	  2	  1	0.34903	  1	0.90000	  0	 14	 32	 33	  1	
19-Apr-2013	sub2319	2319	  2	  0	 15	  6	  1	  2	  2	  1	  1	  1	  0	0.50123	  0	0.90000	  0	 12	 40	 41	  0	
19-Apr-2013	sub2319	2319	  2	  0	 16	  6	  1	  6	  1	  3	  0	  2	  0	0.46370	  1	0.80000	  0	 16	 37	 48	  1	
19-Apr-2013	sub2319	2319	  2	  0	 17	  6	  1	  6	  1	  3	  1	  2	  1	0.35276	  1	0.80000	  0	 16	 35	 36	  1	
19-Apr-2013	sub2319	2319	  2	  0	 18	  6	  1	  1	  4	  2	  1	  2	  0	0.39135	  0	0.70000	  0	 11	 40	 41	  1	
19-Apr-2013	sub2319	2319	  2	  0	 19	  6	  1	  3	  5	  5	  1	  2	  0	0.40244	  0	0.70000	  0	 13	 42	 43	  1	
19-Apr-2013	sub2319	2319	  2	  0	 20	  6	  1	  3	  5	  5	  0	  1	  0	0.41630	  1	0.70000	  0	 13	 34	 49	  1	
19-Apr-2013	sub2319	2319	  2	  0	 21	  6	  1	  4	  6	  3	  1	  2	  1	0.53154	  1	0.60000	  0	 14	 32	 33	  0	
19-Apr-2013	sub2319	2319	  2	  0	 22	  6	  1	  4	  6	  3	  1	  2	  1	0.44580	  1	0.60000	  0	 14	 32	 33	  1	
19-Apr-2013	sub2319	2319	  2	  0	 23	  6	  1	  4	  6	  3	  0	  2	  0	0.42886	  1	0.60000	  0	 14	 34	 49	  1	
19-Apr-2013	sub2319	2319	  2	  0	 24	  6	  1	  2	  2	  1	  1	  2	  1	0.42150	  1	0.60000	  0	 12	 30	 31	  1	
19-Apr-2013	sub2319	2319	  2	  0	 25	  6	  1	  5	  3	  2	  0	  2	  1	0.39409	  0	0.60000	  0	 15	 47	 38	  1	
19-Apr-2013	sub2319	2319	  2	  0	 26	  6	  1	  6	  1	  3	  1	  2	  1	0.43434	  1	0.50000	  0	 16	 35	 36	  1	
19-Apr-2013	sub2319	2319	  2	  0	 27	  6	  1	  3	  5	  5	  1	  1	  1	0.51531	  1	0.50000	  1	 13	 32	 51	  0	
19-Apr-2013	sub2319	2319	  2	  0	 28	  6	  1	  5	  3	  2	  0	  2	  1	0.43280	  0	0.90000	  0	 15	 47	 38	  1	
19-Apr-2013	sub2319	2319	  2	  0	 29	  6	  1	  1	  4	  2	  1	  1	  1	0.47450	  1	0.90000	  0	 11	 30	 31	  1	
19-Apr-2013	sub2319	2319	  2	  0	 30	  6	  1	  1	  4	  2	  1	  1	  1	0.42915	  1	0.80000	  0	 11	 30	 31	  1	
19-Apr-2013	sub2319	2319	  2	  0	 31	  6	  1	  3	  5	  5	  1	  1	  1	0.36620	  1	0.80000	  0	 13	 32	 33	  1	
19-Apr-2013	sub2319	2319	  2	  0	 32	  6	  1	  2	  2	  1	  1	  2	  1	0.47583	  1	0.80000	  0	 12	 30	 31	  1	
19-Apr-2013	sub2319	2319	  2	  0	 33	  6	  1	  6	  1	  3	  1	  2	  1	0.33995	  1	0.80000	  0	 16	 35	 36	  1	
19-Apr-2013	sub2319	2319	  2	  0	 34	  6	  1	  6	  1	  3	  1	  2	  1	0.39362	  1	0.80000	  0	 16	 35	 36	  1	
19-Apr-2013	sub2319	2319	  2	  0	 35	  6	  1	  6	  1	  3	  1	  2	  1	0.35482	  1	0.70000	  0	 16	 35	 36	  1	
19-Apr-2013	sub2319	2319	  2	  0	 36	  6	  1	  3	  5	  5	  1	  1	  1	0.44301	  1	0.70000	  0	 13	 32	 33	  1	
19-Apr-2013	sub2319	2319	  2	  0	 37	  6	  1	  5	  3	  2	  0	  2	  1	0.38754	  0	0.70000	  0	 15	 47	 38	  1	
19-Apr-2013	sub2319	2319	  2	  0	 38	  6	  1	  4	  6	  3	  0	  2	  0	0.34161	  1	0.70000	  0	 14	 34	 49	  1	
19-Apr-2013	sub2319	2319	  2	  0	 39	  6	  1	  3	  5	  5	  1	  2	  0	0.34948	  0	0.70000	  0	 13	 42	 43	  1	
19-Apr-2013	sub2319	2319	  2	  0	 40	  6	  1	  5	  3	  2	  1	  2	  0	0.45077	  0	0.70000	  0	 15	 45	 46	  1	
19-Apr-2013	sub2319	2319	  2	  0	 41	  6	  1	  3	  5	  5	  1	  1	  1	0.36447	  1	0.60000	  0	 13	 32	 33	  1	
19-Apr-2013	sub2319	2319	  2	  0	 42	  6	  1	  2	  2	  1	  1	  1	  0	0.34111	  0	0.60000	  0	 12	 40	 41	  1	
19-Apr-2013	sub2319	2319	  2	  0	 43	  6	  1	  2	  2	  1	  1	  2	  1	0.43899	  1	0.60000	  0	 12	 30	 31	  1	
19-Apr-2013	sub2319	2319	  2	  0	 44	  6	  1	  5	  3	  2	  0	  1	  0	0.43307	  1	0.60000	  0	 15	 37	 48	  1	
19-Apr-2013	sub2319	2319	  2	  0	 45	  6	  1	  4	  6	  3	  1	  2	  1	0.57953	  1	0.60000	  0	 14	 32	 33	  0	
19-Apr-2013	sub2319	2319	  2	  0	 46	  6	  1	  4	  6	  3	  1	  2	  1	0.35603	  1	0.60000	  0	 14	 32	 33	  1	
19-Apr-2013	sub2319	2319	  2	  0	 47	  6	  1	  4	  6	  3	  1	  2	  1	0.35136	  1	0.60000	  0	 14	 32	 33	  1	
19-Apr-2013	sub2319	2319	  2	  0	 48	  6	  1	  2	  2	  1	  1	  1	  0	0.38177	  0	0.60000	  0	 12	 40	 41	  1	
19-Apr-2013	sub2319	2319	  2	  0	 49	  6	  1	  1	  4	  2	  1	  1	  1	0.37951	  1	0.60000	  0	 11	 30	 31	  1	
19-Apr-2013	sub2319	2319	  2	  0	 50	  6	  1	  6	  1	  3	  0	  2	  0	0.37035	  1	0.60000	  0	 16	 37	 48	  1	
19-Apr-2013	sub2319	2319	  2	  0	 51	  6	  1	  1	  4	  2	  1	  1	  1	0.45611	  1	0.50000	  0	 11	 30	 31	  1	
19-Apr-2013	sub2319	2319	  2	  0	 52	  6	  1	  3	  5	  5	  0	  1	  0	0.41505	  1	0.50000	  0	 13	 34	 49	  1	
19-Apr-2013	sub2319	2319	  2	  0	 53	  6	  1	  1	  4	  2	  1	  1	  1	0.40896	  1	0.50000	  0	 11	 30	 31	  1	
19-Apr-2013	sub2319	2319	  2	  0	 54	  6	  1	  2	  2	  1	  1	  1	  0	0.40192	  0	0.50000	  0	 12	 40	 41	  1	
19-Apr-2013	sub2319	2319	  2	  0	 55	  6	  1	  1	  4	  2	  1	  1	  1	0.39805	  1	0.50000	  0	 11	 30	 31	  1	
19-Apr-2013	sub2319	2319	  2	  0	 56	  6	  1	  1	  4	  2	  1	  1	  1	0.40185	  1	0.50000	  0	 11	 30	 31	  1	
19-Apr-2013	sub2319	2319	  2	  0	 57	  6	  1	  2	  2	  1	  1	  2	  1	0.44431	  1	0.50000	  0	 12	 30	 31	  1	
19-Apr-2013	sub2319	2319	  2	  0	 58	  6	  1	  2	  2	  1	  1	  2	  1	0.36317	  1	0.50000	  0	 12	 30	 31	  1	
19-Apr-2013	sub2319	2319	  2	  0	 59	  6	  1	  1	  4	  2	  1	  2	  0	0.34466	  0	0.50000	  0	 11	 40	 41	  1	
19-Apr-2013	sub2319	2319	  2	  0	 60	  6	  1	  6	  1	  3	  0	  2	  0	0.48179	  1	0.50000	  0	 16	 37	 48	  1	
19-Apr-2013	sub2319	2319	  2	  0	 61	  6	  1	  5	  3	  2	  1	  1	  1	0.45855	  1	0.50000	  0	 15	 35	 36	  1	
19-Apr-2013	sub2319	2319	  2	  0	 62	  6	  1	  6	  1	  3	  0	  1	  1	0.37818	  0	0.50000	  0	 16	 47	 38	  1	
19-Apr-2013	sub2319	2319	  2	  0	 63	  6	  1	  5	  3	  2	  1	  2	  0	0.46756	  0	0.50000	  0	 15	 45	 46	  1	
19-Apr-2013	sub2319	2319	  2	  0	 64	  6	  1	  4	  6	  3	  1	  2	  1	0.45586	  1	0.50000	  0	 14	 32	 33	  1	
19-Apr-2013	sub2319	2319	  2	  0	 65	  6	  1	  1	  4	  2	  1	  1	  1	0.42417	  1	0.50000	  0	 11	 30	 31	  1	
19-Apr-2013	sub2319	2319	  2	  0	 66	  6	  1	  6	  1	  3	  1	  1	  0	0.52583	  0	0.50000	  1	 16	 45	 51	  0	
19-Apr-2013	sub2319	2319	  2	  0	 67	  6	  1	  2	  2	  1	  1	  1	  0	0.56331	  0	0.60000	  0	 12	 40	 41	  0	
19-Apr-2013	sub2319	2319	  2	  0	 68	  6	  1	  2	  2	  1	  1	  2	  1	0.52252	  1	0.60000	  0	 12	 30	 31	  0	
19-Apr-2013	sub2319	2319	  2	  0	 69	  6	  1	  2	  2	  1	  1	  2	  1	0.39321	  1	0.60000	  0	 12	 30	 31	  1	
19-Apr-2013	sub2319	2319	  2	  0	 70	  6	  1	  4	  6	  3	  1	  1	  0	0.53070	  0	0.60000	  0	 14	 42	 43	  0	
19-Apr-2013	sub2319	2319	  2	  0	 71	  6	  1	  6	  1	  3	  0	  2	  0	0.50294	  1	0.60000	  0	 16	 37	 48	  0	
19-Apr-2013	sub2319	2319	  2	  0	 72	  6	  1	  3	  5	  5	  1	  1	  1	0.48755	  1	0.60000	  0	 13	 32	 33	  1	
19-Apr-2013	sub2319	2319	  2	  0	 73	  6	  1	  5	  3	  2	  1	  2	  0	0.38729	  0	0.60000	  0	 15	 45	 46	  1	
19-Apr-2013	sub2319	2319	  2	  0	 74	  6	  1	  3	  5	  5	  1	  1	  1	0.55003	  1	0.60000	  0	 13	 32	 33	  0	
19-Apr-2013	sub2319	2319	  2	  0	 75	  6	  1	  1	  4	  2	  1	  1	  1	0.45724	  1	0.60000	  0	 11	 30	 31	  1	
19-Apr-2013	sub2319	2319	  2	  0	 76	  6	  2	  2	  2	  1	  1	  2	  1	0.48965	  1	0.50000	  0	 22	 60	 61	  1	
19-Apr-2013	sub2319	2319	  2	  0	 77	  6	  2	  3	  5	  5	  0	  2	  1	1.99278	  0	0.50000	  1	 23	 84	 51	  0	
19-Apr-2013	sub2319	2319	  2	  0	 78	  6	  2	  2	  2	  1	  1	  2	  1	0.48446	  1	0.70000	  0	 22	 60	 61	  1	
19-Apr-2013	sub2319	2319	  2	  0	 79	  6	  2	  5	  3	  2	  0	  2	  1	0.46292	  0	0.70000	  0	 25	 87	 68	  1	
19-Apr-2013	sub2319	2319	  2	  0	 80	  6	  2	  3	  5	  5	  1	  1	  1	0.49424	  1	0.70000	  0	 23	 62	 63	  1	
19-Apr-2013	sub2319	2319	  2	  0	 81	  6	  2	  1	  4	  2	  1	  1	  1	0.34592	  1	0.60000	  0	 21	 60	 61	  1	
19-Apr-2013	sub2319	2319	  2	  0	 82	  6	  2	  4	  6	  3	  1	  1	  0	0.41979	  0	0.60000	  0	 24	 82	 83	  1	
19-Apr-2013	sub2319	2319	  2	  0	 83	  6	  2	  6	  1	  3	  1	  2	  1	0.50359	  1	0.60000	  0	 26	 65	 66	  0	
19-Apr-2013	sub2319	2319	  2	  0	 84	  6	  2	  6	  1	  3	  0	  2	  0	0.47481	  1	0.60000	  0	 26	 67	 88	  1	
19-Apr-2013	sub2319	2319	  2	  0	 85	  6	  2	  1	  4	  2	  1	  1	  1	0.40773	  1	0.60000	  0	 21	 60	 61	  1	
19-Apr-2013	sub2319	2319	  2	  0	 86	  6	  2	  4	  6	  3	  1	  2	  1	0.47667	  1	0.60000	  0	 24	 62	 63	  1	
19-Apr-2013	sub2319	2319	  2	  0	 87	  6	  2	  2	  2	  1	  1	  2	  1	0.46325	  1	0.60000	  0	 22	 60	 61	  1	
19-Apr-2013	sub2319	2319	  2	  0	 88	  6	  2	  5	  3	  2	  0	  2	  1	0.53868	  0	0.60000	  0	 25	 87	 68	  0	
19-Apr-2013	sub2319	2319	  2	  0	 89	  6	  2	  6	  1	  3	  0	  1	  1	0.44966	  0	0.60000	  0	 26	 87	 68	  1	
19-Apr-2013	sub2319	2319	  2	  0	 90	  6	  2	  5	  3	  2	  0	  2	  1	0.45464	  0	0.60000	  0	 25	 87	 68	  1	
19-Apr-2013	sub2319	2319	  2	  0	 91	  6	  2	  2	  2	  1	  1	  2	  1	0.49738	  1	0.60000	  0	 22	 60	 61	  1	
19-Apr-2013	sub2319	2319	  2	  0	 92	  6	  2	  6	  1	  3	  0	  1	  1	0.39270	  0	0.60000	  0	 26	 87	 68	  1	
19-Apr-2013	sub2319	2319	  2	  0	 93	  6	  2	  6	  1	  3	  1	  1	  0	1.36849	  0	0.60000	  1	 26	 85	 51	  0	
19-Apr-2013	sub2319	2319	  2	  0	 94	  6	  2	  6	  1	  3	  0	  1	  1	0.34743	  0	0.70000	  0	 26	 87	 68	  1	
19-Apr-2013	sub2319	2319	  2	  0	 95	  6	  2	  6	  1	  3	  0	  1	  1	0.48456	  0	0.70000	  0	 26	 87	 68	  1	
19-Apr-2013	sub2319	2319	  2	  0	 96	  6	  2	  3	  5	  5	  1	  1	  1	0.52169	  1	0.70000	  0	 23	 62	 63	  0	
19-Apr-2013	sub2319	2319	  2	  0	 97	  6	  2	  5	  3	  2	  0	  2	  1	0.46773	  0	0.70000	  0	 25	 87	 68	  1	
19-Apr-2013	sub2319	2319	  2	  0	 98	  6	  2	  5	  3	  2	  0	  2	  1	0.48558	  0	0.70000	  0	 25	 87	 68	  1	
19-Apr-2013	sub2319	2319	  2	  0	 99	  6	  2	  2	  2	  1	  1	  2	  1	0.43621	  1	0.70000	  0	 22	 60	 61	  1	
19-Apr-2013	sub2319	2319	  2	  0	100	  6	  2	  5	  3	  2	  0	  2	  1	0.40390	  0	0.70000	  0	 25	 87	 68	  1	
19-Apr-2013	sub2319	2319	  2	  0	101	  6	  2	  5	  3	  2	  0	  2	  1	0.38348	  0	0.60000	  0	 25	 87	 68	  1	
19-Apr-2013	sub2319	2319	  2	  0	102	  6	  2	  1	  4	  2	  1	  1	  1	0.48880	  1	0.60000	  0	 21	 60	 61	  1	
19-Apr-2013	sub2319	2319	  2	  0	103	  6	  2	  4	  6	  3	  0	  2	  0	0.43714	  1	0.60000	  0	 24	 64	 89	  1	
19-Apr-2013	sub2319	2319	  2	  0	104	  6	  2	  5	  3	  2	  0	  2	  1	0.49586	  0	0.60000	  0	 25	 87	 68	  1	
19-Apr-2013	sub2319	2319	  2	  0	105	  6	  2	  3	  5	  5	  1	  2	  0	0.46169	  0	0.60000	  0	 23	 82	 83	  1	
19-Apr-2013	sub2319	2319	  2	  0	106	  6	  2	  1	  4	  2	  1	  1	  1	0.37117	  1	0.60000	  0	 21	 60	 61	  1	
19-Apr-2013	sub2319	2319	  2	  0	107	  6	  2	  2	  2	  1	  1	  2	  1	0.50979	  1	0.60000	  0	 22	 60	 61	  0	
19-Apr-2013	sub2319	2319	  2	  0	108	  6	  2	  5	  3	  2	  0	  2	  1	0.37775	  0	0.60000	  0	 25	 87	 68	  1	
19-Apr-2013	sub2319	2319	  2	  0	109	  6	  2	  1	  4	  2	  1	  2	  0	0.39818	  0	0.60000	  0	 21	 80	 81	  1	
19-Apr-2013	sub2319	2319	  2	  0	110	  6	  2	  2	  2	  1	  1	  1	  0	0.39002	  0	0.60000	  0	 22	 80	 81	  1	
19-Apr-2013	sub2319	2319	  2	  0	111	  6	  2	  4	  6	  3	  1	  2	  1	0.40978	  1	0.60000	  0	 24	 62	 63	  1	
19-Apr-2013	sub2319	2319	  2	  0	112	  6	  2	  3	  5	  5	  1	  1	  1	1.73629	  1	0.60000	  1	 23	 62	 51	  0	
19-Apr-2013	sub2319	2319	  2	  0	113	  6	  2	  4	  6	  3	  1	  2	  1	0.49046	  1	0.70000	  0	 24	 62	 63	  1	
19-Apr-2013	sub2319	2319	  2	  0	114	  6	  2	  6	  1	  3	  1	  1	  0	0.53837	  0	0.70000	  0	 26	 85	 86	  0	
19-Apr-2013	sub2319	2319	  2	  0	115	  6	  2	  4	  6	  3	  1	  2	  1	0.45236	  1	0.70000	  0	 24	 62	 63	  1	
19-Apr-2013	sub2319	2319	  2	  0	116	  6	  2	  4	  6	  3	  1	  2	  1	0.45424	  1	0.70000	  0	 24	 62	 63	  1	
19-Apr-2013	sub2319	2319	  2	  0	117	  6	  2	  5	  3	  2	  0	  2	  1	0.49666	  0	0.70000	  0	 25	 87	 68	  1	
19-Apr-2013	sub2319	2319	  2	  0	118	  6	  2	  1	  4	  2	  1	  1	  1	0.39820	  1	0.70000	  0	 21	 60	 61	  1	
19-Apr-2013	sub2319	2319	  2	  0	119	  6	  2	  1	  4	  2	  1	  1	  1	0.36920	  1	0.70000	  0	 21	 60	 61	  1	
19-Apr-2013	sub2319	2319	  2	  0	120	  6	  2	  3	  5	  5	  1	  1	  1	0.38890	  1	0.70000	  0	 23	 62	 63	  1	
19-Apr-2013	sub2319	2319	  2	  0	121	  6	  2	  2	  2	  1	  1	  1	  0	0.39137	  0	0.60000	  0	 22	 80	 81	  1	
19-Apr-2013	sub2319	2319	  2	  0	122	  6	  2	  2	  2	  1	  1	  2	  1	0.48977	  1	0.60000	  0	 22	 60	 61	  1	
19-Apr-2013	sub2319	2319	  2	  0	123	  6	  2	  6	  1	  3	  1	  1	  0	0.44021	  0	0.60000	  0	 26	 85	 86	  1	
19-Apr-2013	sub2319	2319	  2	  0	124	  6	  2	  5	  3	  2	  0	  2	  1	0.45672	  0	0.60000	  0	 25	 87	 68	  1	
19-Apr-2013	sub2319	2319	  2	  0	125	  6	  2	  4	  6	  3	  0	  2	  0	0.48057	  1	0.60000	  0	 24	 64	 89	  1	
19-Apr-2013	sub2319	2319	  2	  0	126	  6	  2	  4	  6	  3	  1	  2	  1	0.35753	  1	0.60000	  0	 24	 62	 63	  1	
19-Apr-2013	sub2319	2319	  2	  0	127	  6	  2	  6	  1	  3	  0	  1	  1	0.50169	  0	0.60000	  0	 26	 87	 68	  0	
19-Apr-2013	sub2319	2319	  2	  0	128	  6	  2	  3	  5	  5	  0	  1	  0	0.39584	  1	0.60000	  0	 23	 64	 89	  1	
19-Apr-2013	sub2319	2319	  2	  0	129	  6	  2	  3	  5	  5	  1	  1	  1	0.41114	  1	0.60000	  0	 23	 62	 63	  1	
19-Apr-2013	sub2319	2319	  2	  0	130	  6	  2	  1	  4	  2	  1	  1	  1	0.37223	  1	0.60000	  0	 21	 60	 61	  1	
19-Apr-2013	sub2319	2319	  2	  0	131	  6	  2	  3	  5	  5	  1	  1	  1	0.35564	  1	0.60000	  0	 23	 62	 63	  1	
19-Apr-2013	sub2319	2319	  2	  0	132	  6	  2	  3	  5	  5	  1	  1	  1	0.41571	  1	0.60000	  0	 23	 62	 63	  1	
19-Apr-2013	sub2319	2319	  2	  0	133	  6	  2	  2	  2	  1	  1	  2	  1	0.45858	  1	0.60000	  0	 22	 60	 61	  1	
19-Apr-2013	sub2319	2319	  2	  0	134	  6	  2	  6	  1	  3	  1	  1	  0	0.46230	  0	0.60000	  0	 26	 85	 86	  1	
19-Apr-2013	sub2319	2319	  2	  0	135	  6	  2	  4	  6	  3	  0	  2	  0	0.43451	  1	0.60000	  0	 24	 64	 89	  1	
19-Apr-2013	sub2319	2319	  2	  0	136	  6	  2	  1	  4	  2	  1	  1	  1	0.33314	  1	0.60000	  0	 21	 60	 61	  1	
19-Apr-2013	sub2319	2319	  2	  0	137	  6	  2	  5	  3	  2	  0	  2	  1	0.50665	  0	0.60000	  0	 25	 87	 68	  0	
19-Apr-2013	sub2319	2319	  2	  0	138	  6	  2	  2	  2	  1	  1	  2	  1	0.48034	  1	0.60000	  0	 22	 60	 61	  1	
19-Apr-2013	sub2319	2319	  2	  0	139	  6	  2	  1	  4	  2	  1	  1	  1	0.43762	  1	0.60000	  0	 21	 60	 61	  1	
19-Apr-2013	sub2319	2319	  2	  0	140	  6	  2	  4	  6	  3	  1	  2	  1	0.47969	  1	0.60000	  0	 24	 62	 63	  1	
19-Apr-2013	sub2319	2319	  2	  0	141	  6	  2	  1	  4	  2	  1	  1	  1	0.51355	  1	0.60000	  0	 21	 60	 61	  0	
19-Apr-2013	sub2319	2319	  2	  0	142	  6	  2	  1	  4	  2	  1	  1	  1	0.40519	  1	0.60000	  0	 21	 60	 61	  1	
19-Apr-2013	sub2319	2319	  2	  0	143	  6	  2	  3	  5	  5	  1	  1	  1	0.45631	  1	0.60000	  0	 23	 62	 63	  1	
19-Apr-2013	sub2319	2319	  2	  0	144	  6	  2	  6	  1	  3	  1	  1	  0	0.44046	  0	0.60000	  0	 26	 85	 86	  1	
19-Apr-2013	sub2319	2319	  2	  0	145	  6	  2	  4	  6	  3	  1	  2	  1	0.49929	  1	0.60000	  0	 24	 62	 63	  1	
19-Apr-2013	sub2319	2319	  2	  0	146	  6	  2	  1	  4	  2	  1	  1	  1	0.37239	  1	0.60000	  0	 21	 60	 61	  1	
19-Apr-2013	sub2319	2319	  2	  0	147	  6	  2	  2	  2	  1	  1	  1	  0	0.43861	  0	0.60000	  0	 22	 80	 81	  1	
19-Apr-2013	sub2319	2319	  2	  0	148	  6	  2	  5	  3	  2	  0	  2	  1	0.46209	  0	0.60000	  0	 25	 87	 68	  1	
19-Apr-2013	sub2319	2319	  2	  0	149	  6	  2	  4	  6	  3	  1	  2	  1	0.44233	  1	0.60000	  0	 24	 62	 63	  1	
19-Apr-2013	sub2319	2319	  2	  0	150	  6	  2	  3	  5	  5	  1	  1	  1	0.49693	  1	0.60000	  0	 23	 62	 63	  1	
