Date 	 Name 	 ID 	 Gender 	 Appearance 	 Trial 	 Block 	 Bin 	 Condition 	 Category 	 Number 	 Valid 	 Keypress 	 Correct 	 RT 	 Realcorrect 	 Deadline 	 Timeout 	 Stimtrigger 	 Resptrigger 	 Fedtrigger 	 WithinTime 	 
20-Apr-2013	sub2320	2320	  1	  0	  1	  1	  1	  2	  1	  5	  1	  1	  0	0.75696	  0	0.60000	  1	 12	 40	 51	  0	
20-Apr-2013	sub2320	2320	  1	  0	  2	  1	  1	  6	  3	  4	  0	  1	  1	0.33326	  0	0.90000	  0	 16	 47	 38	  1	
20-Apr-2013	sub2320	2320	  1	  0	  3	  1	  1	  4	  5	  4	  1	  2	  1	0.54931	  1	0.90000	  0	 14	 32	 33	  0	
20-Apr-2013	sub2320	2320	  1	  0	  4	  1	  1	  1	  4	  4	  1	  2	  0	0.44328	  0	0.90000	  0	 11	 40	 41	  1	
20-Apr-2013	sub2320	2320	  1	  0	  5	  1	  1	  6	  3	  4	  1	  1	  0	0.42439	  0	0.90000	  0	 16	 45	 46	  1	
20-Apr-2013	sub2320	2320	  1	  0	  6	  1	  1	  3	  6	  4	  1	  1	  1	0.65249	  1	0.90000	  0	 13	 32	 33	  0	
20-Apr-2013	sub2320	2320	  1	  0	  7	  1	  1	  5	  2	  6	  0	  1	  0	0.50372	  1	0.90000	  0	 15	 37	 48	  0	
20-Apr-2013	sub2320	2320	  1	  0	  8	  1	  1	  2	  1	  5	  1	  1	  0	0.49560	  0	0.90000	  0	 12	 40	 41	  1	
20-Apr-2013	sub2320	2320	  1	  0	  9	  1	  1	  5	  2	  6	  0	  2	  1	0.59545	  0	0.90000	  0	 15	 47	 38	  0	
20-Apr-2013	sub2320	2320	  1	  0	 10	  1	  1	  1	  4	  4	  1	  2	  0	0.61452	  0	0.90000	  0	 11	 40	 41	  0	
20-Apr-2013	sub2320	2320	  1	  0	 11	  1	  1	  1	  4	  4	  1	  2	  0	0.80467	  0	0.90000	  0	 11	 40	 41	  0	
20-Apr-2013	sub2320	2320	  1	  0	 12	  1	  1	  1	  4	  4	  1	  1	  1	0.46412	  1	0.90000	  0	 11	 30	 31	  1	
20-Apr-2013	sub2320	2320	  1	  0	 13	  1	  1	  3	  6	  4	  1	  2	  0	0.90449	  0	0.90000	  1	 13	 42	 51	  0	
20-Apr-2013	sub2320	2320	  1	  0	 14	  1	  1	  2	  1	  5	  1	  1	  0	0.64381	  0	0.90000	  0	 12	 40	 41	  0	
20-Apr-2013	sub2320	2320	  1	  0	 15	  1	  1	  2	  1	  5	  1	  1	  0	0.41501	  0	0.90000	  0	 12	 40	 41	  1	
20-Apr-2013	sub2320	2320	  1	  0	 16	  1	  1	  1	  4	  4	  1	  2	  0	0.85697	  0	0.90000	  0	 11	 40	 41	  0	
20-Apr-2013	sub2320	2320	  1	  0	 17	  1	  1	  4	  5	  4	  0	  1	  1	1.04259	  0	0.90000	  1	 14	 44	 51	  0	
20-Apr-2013	sub2320	2320	  1	  0	 18	  1	  1	  6	  3	  4	  0	  1	  1	0.41425	  0	0.90000	  0	 16	 47	 38	  1	
20-Apr-2013	sub2320	2320	  1	  0	 19	  1	  1	  1	  4	  4	  1	  2	  0	0.34404	  0	0.90000	  0	 11	 40	 41	  1	
20-Apr-2013	sub2320	2320	  1	  0	 20	  1	  1	  4	  5	  4	  1	  1	  0	0.45895	  0	0.90000	  0	 14	 42	 43	  1	
20-Apr-2013	sub2320	2320	  1	  0	 21	  1	  1	  5	  2	  6	  1	  1	  1	0.73528	  1	0.90000	  0	 15	 35	 36	  0	
20-Apr-2013	sub2320	2320	  1	  0	 22	  1	  1	  5	  2	  6	  0	  1	  0	0.46971	  1	0.90000	  0	 15	 37	 48	  1	
20-Apr-2013	sub2320	2320	  1	  0	 23	  1	  1	  5	  2	  6	  0	  1	  0	0.50626	  1	0.90000	  0	 15	 37	 48	  0	
20-Apr-2013	sub2320	2320	  1	  0	 24	  1	  1	  2	  1	  5	  1	  1	  0	0.93685	  0	0.90000	  1	 12	 40	 51	  0	
20-Apr-2013	sub2320	2320	  1	  0	 25	  1	  1	  4	  5	  4	  1	  2	  1	0.53049	  1	0.90000	  0	 14	 32	 33	  0	
20-Apr-2013	sub2320	2320	  1	  0	 26	  1	  1	  5	  2	  6	  1	  2	  0	0.77011	  0	0.90000	  0	 15	 45	 46	  0	
20-Apr-2013	sub2320	2320	  1	  0	 27	  1	  1	  6	  3	  4	  1	  1	  0	0.61413	  0	0.90000	  0	 16	 45	 46	  0	
20-Apr-2013	sub2320	2320	  1	  0	 28	  1	  1	  4	  5	  4	  1	  2	  1	0.33209	  1	0.90000	  0	 14	 32	 33	  1	
20-Apr-2013	sub2320	2320	  1	  0	 29	  1	  1	  2	  1	  5	  1	  2	  1	0.63163	  1	0.90000	  0	 12	 30	 31	  0	
20-Apr-2013	sub2320	2320	  1	  0	 30	  1	  1	  6	  3	  4	  0	  2	  0	0.49018	  1	0.90000	  0	 16	 37	 48	  1	
20-Apr-2013	sub2320	2320	  1	  0	 31	  1	  1	  1	  4	  4	  1	  2	  0	0.51176	  0	0.90000	  0	 11	 40	 41	  0	
20-Apr-2013	sub2320	2320	  1	  0	 32	  1	  1	  2	  1	  5	  1	  1	  0	0.65601	  0	0.90000	  0	 12	 40	 41	  0	
20-Apr-2013	sub2320	2320	  1	  0	 33	  1	  1	  3	  6	  4	  1	  2	  0	0.31374	  0	0.90000	  0	 13	 42	 43	  1	
20-Apr-2013	sub2320	2320	  1	  0	 34	  1	  1	  4	  5	  4	  1	  1	  0	0.38411	  0	0.90000	  0	 14	 42	 43	  1	
20-Apr-2013	sub2320	2320	  1	  0	 35	  1	  1	  1	  4	  4	  1	  1	  1	0.37382	  1	0.90000	  0	 11	 30	 31	  1	
20-Apr-2013	sub2320	2320	  1	  0	 36	  1	  1	  3	  6	  4	  1	  2	  0	0.50490	  0	0.90000	  0	 13	 42	 43	  0	
20-Apr-2013	sub2320	2320	  1	  0	 37	  1	  1	  2	  1	  5	  1	  1	  0	0.63070	  0	0.90000	  0	 12	 40	 41	  0	
20-Apr-2013	sub2320	2320	  1	  0	 38	  1	  1	  5	  2	  6	  0	  2	  1	0.52562	  0	0.90000	  0	 15	 47	 38	  0	
20-Apr-2013	sub2320	2320	  1	  0	 39	  1	  1	  5	  2	  6	  1	  2	  0	0.54780	  0	0.90000	  0	 15	 45	 46	  0	
20-Apr-2013	sub2320	2320	  1	  0	 40	  1	  1	  6	  3	  4	  0	  2	  0	0.48960	  1	0.90000	  0	 16	 37	 48	  1	
20-Apr-2013	sub2320	2320	  1	  0	 41	  1	  1	  6	  3	  4	  0	  1	  1	0.44901	  0	0.90000	  0	 16	 47	 38	  1	
20-Apr-2013	sub2320	2320	  1	  0	 42	  1	  1	  4	  5	  4	  1	  1	  0	0.42622	  0	0.90000	  0	 14	 42	 43	  1	
20-Apr-2013	sub2320	2320	  1	  0	 43	  1	  1	  6	  3	  4	  1	  1	  0	0.45943	  0	0.90000	  0	 16	 45	 46	  1	
20-Apr-2013	sub2320	2320	  1	  0	 44	  1	  1	  2	  1	  5	  1	  1	  0	0.70061	  0	0.90000	  0	 12	 40	 41	  0	
20-Apr-2013	sub2320	2320	  1	  0	 45	  1	  1	  4	  5	  4	  1	  2	  1	0.86152	  1	0.90000	  0	 14	 32	 33	  0	
20-Apr-2013	sub2320	2320	  1	  0	 46	  1	  1	  4	  5	  4	  0	  2	  0	0.41653	  1	0.90000	  0	 14	 34	 49	  1	
20-Apr-2013	sub2320	2320	  1	  0	 47	  1	  1	  1	  4	  4	  1	  1	  1	0.70195	  1	0.90000	  0	 11	 30	 31	  0	
20-Apr-2013	sub2320	2320	  1	  0	 48	  1	  1	  4	  5	  4	  1	  2	  1	0.78221	  1	0.90000	  0	 14	 32	 33	  0	
20-Apr-2013	sub2320	2320	  1	  0	 49	  1	  1	  5	  2	  6	  1	  1	  1	0.87662	  1	0.90000	  0	 15	 35	 36	  0	
20-Apr-2013	sub2320	2320	  1	  0	 50	  1	  1	  3	  6	  4	  1	  1	  1	0.82686	  1	0.90000	  0	 13	 32	 33	  0	
20-Apr-2013	sub2320	2320	  1	  0	 51	  1	  1	  6	  3	  4	  1	  1	  0	0.55247	  0	0.90000	  0	 16	 45	 46	  0	
20-Apr-2013	sub2320	2320	  1	  0	 52	  1	  1	  4	  5	  4	  1	  2	  1	0.46488	  1	0.90000	  0	 14	 32	 33	  1	
20-Apr-2013	sub2320	2320	  1	  0	 53	  1	  1	  4	  5	  4	  1	  2	  1	0.46335	  1	0.90000	  0	 14	 32	 33	  1	
20-Apr-2013	sub2320	2320	  1	  0	 54	  1	  1	  1	  4	  4	  1	  1	  1	0.81159	  1	0.90000	  0	 11	 30	 31	  0	
20-Apr-2013	sub2320	2320	  1	  0	 55	  1	  1	  6	  3	  4	  1	  1	  0	0.64558	  0	0.90000	  0	 16	 45	 46	  0	
20-Apr-2013	sub2320	2320	  1	  0	 56	  1	  1	  3	  6	  4	  1	  2	  0	0.63750	  0	0.90000	  0	 13	 42	 43	  0	
20-Apr-2013	sub2320	2320	  1	  0	 57	  1	  1	  3	  6	  4	  1	  1	  1	0.55874	  1	0.90000	  0	 13	 32	 33	  0	
20-Apr-2013	sub2320	2320	  1	  0	 58	  1	  1	  6	  3	  4	  0	  2	  0	0.35720	  1	0.90000	  0	 16	 37	 48	  1	
20-Apr-2013	sub2320	2320	  1	  0	 59	  1	  1	  5	  2	  6	  1	  1	  1	0.92793	  1	0.80000	  1	 15	 35	 51	  0	
20-Apr-2013	sub2320	2320	  1	  0	 60	  1	  1	  3	  6	  4	  1	  2	  0	0.73141	  0	0.90000	  0	 13	 42	 43	  0	
20-Apr-2013	sub2320	2320	  1	  0	 61	  1	  1	  5	  2	  6	  0	  1	  0	0.50388	  1	0.90000	  0	 15	 37	 48	  0	
20-Apr-2013	sub2320	2320	  1	  0	 62	  1	  1	  3	  6	  4	  0	  1	  0	0.58233	  1	0.90000	  0	 13	 34	 49	  0	
20-Apr-2013	sub2320	2320	  1	  0	 63	  1	  1	  3	  6	  4	  0	  1	  0	0.41915	  1	0.90000	  0	 13	 34	 49	  1	
20-Apr-2013	sub2320	2320	  1	  0	 64	  1	  1	  2	  1	  5	  1	  1	  0	0.62003	  0	0.90000	  0	 12	 40	 41	  0	
20-Apr-2013	sub2320	2320	  1	  0	 65	  1	  1	  5	  2	  6	  1	  2	  0	0.41693	  0	0.90000	  0	 15	 45	 46	  1	
20-Apr-2013	sub2320	2320	  1	  0	 66	  1	  1	  3	  6	  4	  1	  2	  0	0.40544	  0	0.90000	  0	 13	 42	 43	  1	
20-Apr-2013	sub2320	2320	  1	  0	 67	  1	  1	  2	  1	  5	  1	  1	  0	0.50507	  0	0.90000	  0	 12	 40	 41	  0	
20-Apr-2013	sub2320	2320	  1	  0	 68	  1	  1	  6	  3	  4	  1	  2	  1	0.38338	  1	0.90000	  0	 16	 35	 36	  1	
20-Apr-2013	sub2320	2320	  1	  0	 69	  1	  1	  3	  6	  4	  0	  2	  1	0.61562	  0	0.90000	  0	 13	 44	 39	  0	
20-Apr-2013	sub2320	2320	  1	  0	 70	  1	  1	  1	  4	  4	  1	  2	  0	0.47112	  0	0.90000	  0	 11	 40	 41	  1	
20-Apr-2013	sub2320	2320	  1	  0	 71	  1	  1	  3	  6	  4	  1	  1	  1	0.45396	  1	0.90000	  0	 13	 32	 33	  1	
20-Apr-2013	sub2320	2320	  1	  0	 72	  1	  1	  1	  4	  4	  1	  1	  1	0.57224	  1	0.90000	  0	 11	 30	 31	  0	
20-Apr-2013	sub2320	2320	  1	  0	 73	  1	  1	  2	  1	  5	  1	  1	  0	0.59220	  0	0.80000	  0	 12	 40	 41	  0	
20-Apr-2013	sub2320	2320	  1	  0	 74	  1	  1	  6	  3	  4	  0	  2	  0	0.59189	  1	0.80000	  0	 16	 37	 48	  0	
20-Apr-2013	sub2320	2320	  1	  0	 75	  1	  1	  2	  1	  5	  1	  1	  0	0.57606	  0	0.80000	  0	 12	 40	 41	  0	
20-Apr-2013	sub2320	2320	  1	  0	  1	  2	  1	  1	  4	  6	  1	  1	  1	0.67234	  1	0.60000	  1	 11	 30	 51	  0	
20-Apr-2013	sub2320	2320	  1	  0	  2	  2	  1	  6	  1	  1	  1	  1	  0	0.30427	  0	0.90000	  0	 16	 45	 46	  1	
20-Apr-2013	sub2320	2320	  1	  0	  3	  2	  1	  6	  1	  1	  0	  1	  1	0.40360	  0	0.90000	  0	 16	 47	 38	  1	
20-Apr-2013	sub2320	2320	  1	  0	  4	  2	  1	  2	  3	  3	  1	  2	  1	0.47363	  1	0.90000	  0	 12	 30	 31	  1	
20-Apr-2013	sub2320	2320	  1	  0	  5	  2	  1	  2	  3	  3	  1	  2	  1	0.41967	  1	0.90000	  0	 12	 30	 31	  1	
20-Apr-2013	sub2320	2320	  1	  0	  6	  2	  1	  5	  6	  6	  1	  1	  1	0.50010	  1	0.90000	  0	 15	 35	 36	  1	
20-Apr-2013	sub2320	2320	  1	  0	  7	  2	  1	  1	  4	  6	  1	  1	  1	0.56071	  1	0.90000	  0	 11	 30	 31	  0	
20-Apr-2013	sub2320	2320	  1	  0	  8	  2	  1	  2	  3	  3	  1	  2	  1	0.46397	  1	0.90000	  0	 12	 30	 31	  1	
20-Apr-2013	sub2320	2320	  1	  0	  9	  2	  1	  1	  4	  6	  1	  1	  1	0.50519	  1	0.90000	  0	 11	 30	 31	  0	
20-Apr-2013	sub2320	2320	  1	  0	 10	  2	  1	  6	  1	  1	  1	  1	  0	0.74279	  0	0.90000	  0	 16	 45	 46	  0	
20-Apr-2013	sub2320	2320	  1	  0	 11	  2	  1	  6	  1	  1	  0	  1	  1	0.38235	  0	0.90000	  0	 16	 47	 38	  1	
20-Apr-2013	sub2320	2320	  1	  0	 12	  2	  1	  6	  1	  1	  1	  1	  0	0.38680	  0	0.90000	  0	 16	 45	 46	  1	
20-Apr-2013	sub2320	2320	  1	  0	 13	  2	  1	  6	  1	  1	  0	  2	  0	0.34626	  1	0.90000	  0	 16	 37	 48	  1	
20-Apr-2013	sub2320	2320	  1	  0	 14	  2	  1	  5	  6	  6	  1	  2	  0	0.49240	  0	0.90000	  0	 15	 45	 46	  1	
20-Apr-2013	sub2320	2320	  1	  0	 15	  2	  1	  1	  4	  6	  1	  1	  1	0.54697	  1	0.90000	  0	 11	 30	 31	  0	
20-Apr-2013	sub2320	2320	  1	  0	 16	  2	  1	  6	  1	  1	  0	  1	  1	0.36791	  0	0.80000	  0	 16	 47	 38	  1	
20-Apr-2013	sub2320	2320	  1	  0	 17	  2	  1	  4	  2	  1	  1	  2	  1	0.54940	  1	0.80000	  0	 14	 32	 33	  0	
20-Apr-2013	sub2320	2320	  1	  0	 18	  2	  1	  4	  2	  1	  1	  2	  1	0.38384	  1	0.70000	  0	 14	 32	 33	  1	
20-Apr-2013	sub2320	2320	  1	  0	 19	  2	  1	  6	  1	  1	  0	  2	  0	0.36330	  1	0.70000	  0	 16	 37	 48	  1	
20-Apr-2013	sub2320	2320	  1	  0	 20	  2	  1	  5	  6	  6	  1	  1	  1	0.58478	  1	0.70000	  0	 15	 35	 36	  0	
20-Apr-2013	sub2320	2320	  1	  0	 21	  2	  1	  3	  5	  6	  0	  1	  0	0.41921	  1	0.60000	  0	 13	 34	 49	  1	
20-Apr-2013	sub2320	2320	  1	  0	 22	  2	  1	  4	  2	  1	  1	  1	  0	0.35752	  0	0.60000	  0	 14	 42	 43	  1	
20-Apr-2013	sub2320	2320	  1	  0	 23	  2	  1	  1	  4	  6	  1	  1	  1	0.36536	  1	0.60000	  0	 11	 30	 31	  1	
20-Apr-2013	sub2320	2320	  1	  0	 24	  2	  1	  3	  5	  6	  1	  1	  1	0.33086	  1	0.60000	  0	 13	 32	 33	  1	
20-Apr-2013	sub2320	2320	  1	  0	 25	  2	  1	  6	  1	  1	  0	  1	  1	0.37484	  0	0.60000	  0	 16	 47	 38	  1	
20-Apr-2013	sub2320	2320	  1	  0	 26	  2	  1	  6	  1	  1	  1	  1	  0	0.35870	  0	0.50000	  0	 16	 45	 46	  1	
20-Apr-2013	sub2320	2320	  1	  0	 27	  2	  1	  4	  2	  1	  1	  2	  1	0.46428	  1	0.50000	  0	 14	 32	 33	  1	
20-Apr-2013	sub2320	2320	  1	  0	 28	  2	  1	  5	  6	  6	  0	  2	  1	0.50818	  0	0.50000	  1	 15	 47	 51	  0	
20-Apr-2013	sub2320	2320	  1	  0	 29	  2	  1	  2	  3	  3	  1	  2	  1	0.31017	  1	0.90000	  0	 12	 30	 31	  1	
20-Apr-2013	sub2320	2320	  1	  0	 30	  2	  1	  4	  2	  1	  0	  2	  0	0.51992	  1	0.80000	  0	 14	 34	 49	  0	
20-Apr-2013	sub2320	2320	  1	  0	 31	  2	  1	  5	  6	  6	  0	  2	  1	0.35717	  0	0.80000	  0	 15	 47	 38	  1	
20-Apr-2013	sub2320	2320	  1	  0	 32	  2	  1	  5	  6	  6	  1	  2	  0	0.33036	  0	0.80000	  0	 15	 45	 46	  1	
20-Apr-2013	sub2320	2320	  1	  0	 33	  2	  1	  4	  2	  1	  0	  2	  0	0.36145	  1	0.80000	  0	 14	 34	 49	  1	
20-Apr-2013	sub2320	2320	  1	  0	 34	  2	  1	  2	  3	  3	  1	  2	  1	0.28098	  1	0.80000	  0	 12	 30	 31	  1	
20-Apr-2013	sub2320	2320	  1	  0	 35	  2	  1	  2	  3	  3	  1	  2	  1	0.38261	  1	0.70000	  0	 12	 30	 31	  1	
20-Apr-2013	sub2320	2320	  1	  0	 36	  2	  1	  5	  6	  6	  1	  1	  1	0.48942	  1	0.70000	  0	 15	 35	 36	  1	
20-Apr-2013	sub2320	2320	  1	  0	 37	  2	  1	  3	  5	  6	  1	  1	  1	0.33447	  1	0.70000	  0	 13	 32	 33	  1	
20-Apr-2013	sub2320	2320	  1	  0	 38	  2	  1	  3	  5	  6	  1	  1	  1	0.39030	  1	0.70000	  0	 13	 32	 33	  1	
20-Apr-2013	sub2320	2320	  1	  0	 39	  2	  1	  3	  5	  6	  0	  1	  0	0.29923	  1	0.70000	  0	 13	 34	 49	  1	
20-Apr-2013	sub2320	2320	  1	  0	 40	  2	  1	  2	  3	  3	  1	  1	  0	0.38645	  0	0.70000	  0	 12	 40	 41	  1	
20-Apr-2013	sub2320	2320	  1	  0	 41	  2	  1	  3	  5	  6	  1	  1	  1	0.45228	  1	0.60000	  0	 13	 32	 33	  1	
20-Apr-2013	sub2320	2320	  1	  0	 42	  2	  1	  4	  2	  1	  1	  1	  0	0.43411	  0	0.60000	  0	 14	 42	 43	  1	
20-Apr-2013	sub2320	2320	  1	  0	 43	  2	  1	  4	  2	  1	  1	  1	  0	0.37739	  0	0.60000	  0	 14	 42	 43	  1	
20-Apr-2013	sub2320	2320	  1	  0	 44	  2	  1	  1	  4	  6	  1	  2	  0	0.32522	  0	0.60000	  0	 11	 40	 41	  1	
20-Apr-2013	sub2320	2320	  1	  0	 45	  2	  1	  4	  2	  1	  1	  2	  1	0.38894	  1	0.60000	  0	 14	 32	 33	  1	
20-Apr-2013	sub2320	2320	  1	  0	 46	  2	  1	  4	  2	  1	  1	  2	  1	0.37192	  1	0.60000	  0	 14	 32	 33	  1	
20-Apr-2013	sub2320	2320	  1	  0	 47	  2	  1	  2	  3	  3	  1	  2	  1	0.41975	  1	0.60000	  0	 12	 30	 31	  1	
20-Apr-2013	sub2320	2320	  1	  0	 48	  2	  1	  2	  3	  3	  1	  2	  1	0.35899	  1	0.60000	  0	 12	 30	 31	  1	
20-Apr-2013	sub2320	2320	  1	  0	 49	  2	  1	  5	  6	  6	  0	  1	  0	0.44885	  1	0.60000	  0	 15	 37	 48	  1	
20-Apr-2013	sub2320	2320	  1	  0	 50	  2	  1	  2	  3	  3	  1	  1	  0	0.26304	  0	0.60000	  0	 12	 40	 41	  1	
20-Apr-2013	sub2320	2320	  1	  0	 51	  2	  1	  1	  4	  6	  1	  2	  0	0.30705	  0	0.50000	  0	 11	 40	 41	  1	
20-Apr-2013	sub2320	2320	  1	  0	 52	  2	  1	  3	  5	  6	  1	  1	  1	0.47186	  1	0.50000	  0	 13	 32	 33	  1	
20-Apr-2013	sub2320	2320	  1	  0	 53	  2	  1	  5	  6	  6	  0	  2	  1	0.40910	  0	0.50000	  0	 15	 47	 38	  1	
20-Apr-2013	sub2320	2320	  1	  0	 54	  2	  1	  1	  4	  6	  1	  1	  1	0.49911	  1	0.50000	  0	 11	 30	 31	  1	
20-Apr-2013	sub2320	2320	  1	  0	 55	  2	  1	  3	  5	  6	  1	  1	  1	0.49614	  1	0.50000	  0	 13	 32	 33	  1	
20-Apr-2013	sub2320	2320	  1	  0	 56	  2	  1	  3	  5	  6	  1	  1	  1	0.40752	  1	0.50000	  0	 13	 32	 33	  1	
20-Apr-2013	sub2320	2320	  1	  0	 57	  2	  1	  3	  5	  6	  1	  1	  1	0.38726	  1	0.50000	  0	 13	 32	 33	  1	
20-Apr-2013	sub2320	2320	  1	  0	 58	  2	  1	  2	  3	  3	  1	  2	  1	0.33412	  1	0.50000	  0	 12	 30	 31	  1	
20-Apr-2013	sub2320	2320	  1	  0	 59	  2	  1	  1	  4	  6	  1	  1	  1	0.40013	  1	0.50000	  0	 11	 30	 31	  1	
20-Apr-2013	sub2320	2320	  1	  0	 60	  2	  1	  2	  3	  3	  1	  2	  1	0.30746	  1	0.50000	  0	 12	 30	 31	  1	
20-Apr-2013	sub2320	2320	  1	  0	 61	  2	  1	  6	  1	  1	  1	  1	  0	0.39218	  0	0.50000	  0	 16	 45	 46	  1	
20-Apr-2013	sub2320	2320	  1	  0	 62	  2	  1	  3	  5	  6	  0	  1	  0	0.34057	  1	0.50000	  0	 13	 34	 49	  1	
20-Apr-2013	sub2320	2320	  1	  0	 63	  2	  1	  4	  2	  1	  1	  2	  1	0.43926	  1	0.50000	  0	 14	 32	 33	  1	
20-Apr-2013	sub2320	2320	  1	  0	 64	  2	  1	  6	  1	  1	  1	  2	  1	0.45176	  1	0.50000	  0	 16	 35	 36	  1	
20-Apr-2013	sub2320	2320	  1	  0	 65	  2	  1	  5	  6	  6	  0	  1	  0	0.52219	  1	0.50000	  1	 15	 37	 51	  0	
20-Apr-2013	sub2320	2320	  1	  0	 66	  2	  1	  5	  6	  6	  1	  1	  1	0.25822	  1	0.60000	  0	 15	 35	 36	  1	
20-Apr-2013	sub2320	2320	  1	  0	 67	  2	  1	  1	  4	  6	  1	  2	  0	0.39127	  0	0.60000	  0	 11	 40	 41	  1	
20-Apr-2013	sub2320	2320	  1	  0	 68	  2	  1	  2	  3	  3	  1	  2	  1	0.34294	  1	0.60000	  0	 12	 30	 31	  1	
20-Apr-2013	sub2320	2320	  1	  0	 69	  2	  1	  1	  4	  6	  1	  1	  1	0.31340	  1	0.60000	  0	 11	 30	 31	  1	
20-Apr-2013	sub2320	2320	  1	  0	 70	  2	  1	  1	  4	  6	  1	  1	  1	0.33901	  1	0.60000	  0	 11	 30	 31	  1	
20-Apr-2013	sub2320	2320	  1	  0	 71	  2	  1	  4	  2	  1	  1	  1	  0	0.41203	  0	0.60000	  0	 14	 42	 43	  1	
20-Apr-2013	sub2320	2320	  1	  0	 72	  2	  1	  6	  1	  1	  1	  1	  0	0.46528	  0	0.60000	  0	 16	 45	 46	  1	
20-Apr-2013	sub2320	2320	  1	  0	 73	  2	  1	  3	  5	  6	  1	  1	  1	0.43708	  1	0.60000	  0	 13	 32	 33	  1	
20-Apr-2013	sub2320	2320	  1	  0	 74	  2	  1	  5	  6	  6	  0	  2	  1	0.38904	  0	0.60000	  0	 15	 47	 38	  1	
20-Apr-2013	sub2320	2320	  1	  0	 75	  2	  1	  3	  5	  6	  1	  2	  0	0.42348	  0	0.60000	  0	 13	 42	 43	  1	
20-Apr-2013	sub2320	2320	  1	  0	 76	  2	  2	  3	  5	  6	  1	  1	  1	0.36074	  1	0.50000	  0	 23	 62	 63	  1	
20-Apr-2013	sub2320	2320	  1	  0	 77	  2	  2	  1	  4	  6	  1	  1	  1	0.38031	  1	0.50000	  0	 21	 60	 61	  1	
20-Apr-2013	sub2320	2320	  1	  0	 78	  2	  2	  5	  6	  6	  0	  1	  0	0.44694	  1	0.50000	  0	 25	 67	 88	  1	
20-Apr-2013	sub2320	2320	  1	  0	 79	  2	  2	  6	  1	  1	  0	  1	  1	0.38695	  0	0.50000	  0	 26	 87	 68	  1	
20-Apr-2013	sub2320	2320	  1	  0	 80	  2	  2	  4	  2	  1	  0	  2	  0	0.49215	  1	0.50000	  0	 24	 64	 89	  1	
20-Apr-2013	sub2320	2320	  1	  0	 81	  2	  2	  3	  5	  6	  1	  1	  1	0.36627	  1	0.50000	  0	 23	 62	 63	  1	
20-Apr-2013	sub2320	2320	  1	  0	 82	  2	  2	  4	  2	  1	  1	  2	  1	0.49428	  1	0.50000	  0	 24	 62	 63	  1	
20-Apr-2013	sub2320	2320	  1	  0	 83	  2	  2	  4	  2	  1	  1	  2	  1	0.45846	  1	0.50000	  0	 24	 62	 63	  1	
20-Apr-2013	sub2320	2320	  1	  0	 84	  2	  2	  2	  3	  3	  1	  2	  1	0.38690	  1	0.50000	  0	 22	 60	 61	  1	
20-Apr-2013	sub2320	2320	  1	  0	 85	  2	  2	  1	  4	  6	  1	  1	  1	0.35357	  1	0.50000	  0	 21	 60	 61	  1	
20-Apr-2013	sub2320	2320	  1	  0	 86	  2	  2	  6	  1	  1	  1	  2	  1	0.33794	  1	0.50000	  0	 26	 65	 66	  1	
20-Apr-2013	sub2320	2320	  1	  0	 87	  2	  2	  2	  3	  3	  1	  2	  1	0.48467	  1	0.50000	  0	 22	 60	 61	  1	
20-Apr-2013	sub2320	2320	  1	  0	 88	  2	  2	  1	  4	  6	  1	  2	  0	0.37168	  0	0.50000	  0	 21	 80	 81	  1	
20-Apr-2013	sub2320	2320	  1	  0	 89	  2	  2	  5	  6	  6	  0	  1	  0	0.52509	  1	0.50000	  1	 25	 67	 51	  0	
20-Apr-2013	sub2320	2320	  1	  0	 90	  2	  2	  4	  2	  1	  1	  2	  1	0.46742	  1	0.60000	  0	 24	 62	 63	  1	
20-Apr-2013	sub2320	2320	  1	  0	 91	  2	  2	  6	  1	  1	  1	  1	  0	0.41645	  0	0.60000	  0	 26	 85	 86	  1	
20-Apr-2013	sub2320	2320	  1	  0	 92	  2	  2	  2	  3	  3	  1	  2	  1	0.50003	  1	0.60000	  0	 22	 60	 61	  1	
20-Apr-2013	sub2320	2320	  1	  0	 93	  2	  2	  4	  2	  1	  1	  2	  1	0.39707	  1	0.60000	  0	 24	 62	 63	  1	
20-Apr-2013	sub2320	2320	  1	  0	 94	  2	  2	  4	  2	  1	  1	  2	  1	0.35748	  1	0.60000	  0	 24	 62	 63	  1	
20-Apr-2013	sub2320	2320	  1	  0	 95	  2	  2	  5	  6	  6	  0	  1	  0	0.41425	  1	0.60000	  0	 25	 67	 88	  1	
20-Apr-2013	sub2320	2320	  1	  0	 96	  2	  2	  2	  3	  3	  1	  2	  1	0.50507	  1	0.60000	  0	 22	 60	 61	  0	
20-Apr-2013	sub2320	2320	  1	  0	 97	  2	  2	  3	  5	  6	  1	  1	  1	0.47473	  1	0.60000	  0	 23	 62	 63	  1	
20-Apr-2013	sub2320	2320	  1	  0	 98	  2	  2	  1	  4	  6	  1	  1	  1	0.49981	  1	0.60000	  0	 21	 60	 61	  1	
20-Apr-2013	sub2320	2320	  1	  0	 99	  2	  2	  4	  2	  1	  1	  2	  1	0.44052	  1	0.60000	  0	 24	 62	 63	  1	
20-Apr-2013	sub2320	2320	  1	  0	100	  2	  2	  6	  1	  1	  0	  2	  0	0.35543	  1	0.60000	  0	 26	 67	 88	  1	
20-Apr-2013	sub2320	2320	  1	  0	101	  2	  2	  1	  4	  6	  1	  2	  0	0.41695	  0	0.50000	  0	 21	 80	 81	  1	
20-Apr-2013	sub2320	2320	  1	  0	102	  2	  2	  6	  1	  1	  1	  1	  0	0.45074	  0	0.50000	  0	 26	 85	 86	  1	
20-Apr-2013	sub2320	2320	  1	  0	103	  2	  2	  4	  2	  1	  0	  2	  0	0.50334	  1	0.50000	  1	 24	 64	 51	  0	
20-Apr-2013	sub2320	2320	  1	  0	104	  2	  2	  2	  3	  3	  1	  2	  1	0.40152	  1	0.60000	  0	 22	 60	 61	  1	
20-Apr-2013	sub2320	2320	  1	  0	105	  2	  2	  6	  1	  1	  0	  2	  0	0.49269	  1	0.60000	  0	 26	 67	 88	  1	
20-Apr-2013	sub2320	2320	  1	  0	106	  2	  2	  4	  2	  1	  1	  2	  1	0.35034	  1	0.60000	  0	 24	 62	 63	  1	
20-Apr-2013	sub2320	2320	  1	  0	107	  2	  2	  3	  5	  6	  1	  1	  1	0.47903	  1	0.60000	  0	 23	 62	 63	  1	
20-Apr-2013	sub2320	2320	  1	  0	108	  2	  2	  3	  5	  6	  1	  1	  1	0.39105	  1	0.60000	  0	 23	 62	 63	  1	
20-Apr-2013	sub2320	2320	  1	  0	109	  2	  2	  6	  1	  1	  0	  2	  0	0.42817	  1	0.60000	  0	 26	 67	 88	  1	
20-Apr-2013	sub2320	2320	  1	  0	110	  2	  2	  2	  3	  3	  1	  2	  1	0.38199	  1	0.60000	  0	 22	 60	 61	  1	
20-Apr-2013	sub2320	2320	  1	  0	111	  2	  2	  5	  6	  6	  0	  2	  1	0.50241	  0	0.60000	  0	 25	 87	 68	  0	
20-Apr-2013	sub2320	2320	  1	  0	112	  2	  2	  6	  1	  1	  0	  2	  0	0.39057	  1	0.60000	  0	 26	 67	 88	  1	
20-Apr-2013	sub2320	2320	  1	  0	113	  2	  2	  2	  3	  3	  1	  2	  1	0.36383	  1	0.60000	  0	 22	 60	 61	  1	
20-Apr-2013	sub2320	2320	  1	  0	114	  2	  2	  4	  2	  1	  0	  2	  0	0.67129	  1	0.60000	  1	 24	 64	 51	  0	
20-Apr-2013	sub2320	2320	  1	  0	115	  2	  2	  5	  6	  6	  0	  2	  1	0.47839	  0	0.70000	  0	 25	 87	 68	  1	
20-Apr-2013	sub2320	2320	  1	  0	116	  2	  2	  5	  6	  6	  0	  2	  1	0.43936	  0	0.70000	  0	 25	 87	 68	  1	
20-Apr-2013	sub2320	2320	  1	  0	117	  2	  2	  1	  4	  6	  1	  1	  1	0.42108	  1	0.70000	  0	 21	 60	 61	  1	
20-Apr-2013	sub2320	2320	  1	  0	118	  2	  2	  5	  6	  6	  0	  1	  0	0.43649	  1	0.70000	  0	 25	 67	 88	  1	
20-Apr-2013	sub2320	2320	  1	  0	119	  2	  2	  2	  3	  3	  1	  2	  1	0.47874	  1	0.70000	  0	 22	 60	 61	  1	
20-Apr-2013	sub2320	2320	  1	  0	120	  2	  2	  1	  4	  6	  1	  1	  1	0.43868	  1	0.70000	  0	 21	 60	 61	  1	
20-Apr-2013	sub2320	2320	  1	  0	121	  2	  2	  2	  3	  3	  1	  2	  1	0.36454	  1	0.60000	  0	 22	 60	 61	  1	
20-Apr-2013	sub2320	2320	  1	  0	122	  2	  2	  3	  5	  6	  1	  1	  1	0.48184	  1	0.60000	  0	 23	 62	 63	  1	
20-Apr-2013	sub2320	2320	  1	  0	123	  2	  2	  2	  3	  3	  1	  2	  1	0.46334	  1	0.60000	  0	 22	 60	 61	  1	
20-Apr-2013	sub2320	2320	  1	  0	124	  2	  2	  1	  4	  6	  1	  1	  1	0.45745	  1	0.60000	  0	 21	 60	 61	  1	
20-Apr-2013	sub2320	2320	  1	  0	125	  2	  2	  1	  4	  6	  1	  1	  1	0.44940	  1	0.60000	  0	 21	 60	 61	  1	
20-Apr-2013	sub2320	2320	  1	  0	126	  2	  2	  5	  6	  6	  0	  2	  1	0.39694	  0	0.60000	  0	 25	 87	 68	  1	
20-Apr-2013	sub2320	2320	  1	  0	127	  2	  2	  5	  6	  6	  0	  2	  1	0.38535	  0	0.60000	  0	 25	 87	 68	  1	
20-Apr-2013	sub2320	2320	  1	  0	128	  2	  2	  3	  5	  6	  1	  1	  1	0.49105	  1	0.60000	  0	 23	 62	 63	  1	
20-Apr-2013	sub2320	2320	  1	  0	129	  2	  2	  6	  1	  1	  1	  2	  1	0.48223	  1	0.60000	  0	 26	 65	 66	  1	
20-Apr-2013	sub2320	2320	  1	  0	130	  2	  2	  6	  1	  1	  1	  1	  0	0.50118	  0	0.60000	  0	 26	 85	 86	  0	
20-Apr-2013	sub2320	2320	  1	  0	131	  2	  2	  1	  4	  6	  1	  1	  1	0.48410	  1	0.60000	  0	 21	 60	 61	  1	
20-Apr-2013	sub2320	2320	  1	  0	132	  2	  2	  2	  3	  3	  1	  2	  1	0.42671	  1	0.60000	  0	 22	 60	 61	  1	
20-Apr-2013	sub2320	2320	  1	  0	133	  2	  2	  1	  4	  6	  1	  1	  1	0.49955	  1	0.60000	  0	 21	 60	 61	  1	
20-Apr-2013	sub2320	2320	  1	  0	134	  2	  2	  5	  6	  6	  0	  2	  1	0.44928	  0	0.60000	  0	 25	 87	 68	  1	
20-Apr-2013	sub2320	2320	  1	  0	135	  2	  2	  3	  5	  6	  1	  1	  1	0.46056	  1	0.60000	  0	 23	 62	 63	  1	
20-Apr-2013	sub2320	2320	  1	  0	136	  2	  2	  6	  1	  1	  1	  2	  1	0.60285	  1	0.60000	  1	 26	 65	 51	  0	
20-Apr-2013	sub2320	2320	  1	  0	137	  2	  2	  1	  4	  6	  1	  1	  1	0.46937	  1	0.70000	  0	 21	 60	 61	  1	
20-Apr-2013	sub2320	2320	  1	  0	138	  2	  2	  3	  5	  6	  1	  1	  1	0.45722	  1	0.70000	  0	 23	 62	 63	  1	
20-Apr-2013	sub2320	2320	  1	  0	139	  2	  2	  3	  5	  6	  1	  1	  1	0.44831	  1	0.70000	  0	 23	 62	 63	  1	
20-Apr-2013	sub2320	2320	  1	  0	140	  2	  2	  1	  4	  6	  1	  1	  1	0.35072	  1	0.70000	  0	 21	 60	 61	  1	
20-Apr-2013	sub2320	2320	  1	  0	141	  2	  2	  4	  2	  1	  1	  2	  1	0.45036	  1	0.60000	  0	 24	 62	 63	  1	
20-Apr-2013	sub2320	2320	  1	  0	142	  2	  2	  5	  6	  6	  0	  2	  1	0.46712	  0	0.60000	  0	 25	 87	 68	  1	
20-Apr-2013	sub2320	2320	  1	  0	143	  2	  2	  6	  1	  1	  0	  2	  0	0.36720	  1	0.60000	  0	 26	 67	 88	  1	
20-Apr-2013	sub2320	2320	  1	  0	144	  2	  2	  2	  3	  3	  1	  2	  1	0.33683	  1	0.60000	  0	 22	 60	 61	  1	
20-Apr-2013	sub2320	2320	  1	  0	145	  2	  2	  3	  5	  6	  0	  1	  0	0.43049	  1	0.60000	  0	 23	 64	 89	  1	
20-Apr-2013	sub2320	2320	  1	  0	146	  2	  2	  4	  2	  1	  1	  1	  0	0.44917	  0	0.60000	  0	 24	 82	 83	  1	
20-Apr-2013	sub2320	2320	  1	  0	147	  2	  2	  5	  6	  6	  0	  2	  1	0.50154	  0	0.60000	  0	 25	 87	 68	  0	
20-Apr-2013	sub2320	2320	  1	  0	148	  2	  2	  5	  6	  6	  0	  2	  1	0.44951	  0	0.60000	  0	 25	 87	 68	  1	
20-Apr-2013	sub2320	2320	  1	  0	149	  2	  2	  3	  5	  6	  0	  1	  0	0.39784	  1	0.60000	  0	 23	 64	 89	  1	
20-Apr-2013	sub2320	2320	  1	  0	150	  2	  2	  4	  2	  1	  1	  1	  0	0.38845	  0	0.60000	  0	 24	 82	 83	  1	
20-Apr-2013	sub2320	2320	  1	  0	  1	  3	  1	  2	  1	  6	  1	  1	  0	0.59849	  0	0.60000	  0	 12	 40	 41	  0	
20-Apr-2013	sub2320	2320	  1	  0	  2	  3	  1	  4	  4	  3	  1	  1	  0	0.45970	  0	0.30000	  1	 14	 42	 51	  1	
20-Apr-2013	sub2320	2320	  1	  0	  3	  3	  1	  2	  1	  6	  1	  1	  0	0.31872	  0	0.90000	  0	 12	 40	 41	  1	
20-Apr-2013	sub2320	2320	  1	  0	  4	  3	  1	  5	  6	  1	  0	  1	  0	0.37699	  1	0.90000	  0	 15	 37	 48	  1	
20-Apr-2013	sub2320	2320	  1	  0	  5	  3	  1	  2	  1	  6	  1	  2	  1	0.44407	  1	0.90000	  0	 12	 30	 31	  1	
20-Apr-2013	sub2320	2320	  1	  0	  6	  3	  1	  3	  5	  3	  1	  2	  0	0.47853	  0	0.90000	  0	 13	 42	 43	  1	
20-Apr-2013	sub2320	2320	  1	  0	  7	  3	  1	  2	  1	  6	  1	  1	  0	0.37204	  0	0.90000	  0	 12	 40	 41	  1	
20-Apr-2013	sub2320	2320	  1	  0	  8	  3	  1	  1	  2	  4	  1	  2	  0	0.45964	  0	0.90000	  0	 11	 40	 41	  1	
20-Apr-2013	sub2320	2320	  1	  0	  9	  3	  1	  6	  3	  1	  0	  2	  0	0.48985	  1	0.90000	  0	 16	 37	 48	  1	
20-Apr-2013	sub2320	2320	  1	  0	 10	  3	  1	  1	  2	  4	  1	  1	  1	0.48116	  1	0.90000	  0	 11	 30	 31	  1	
20-Apr-2013	sub2320	2320	  1	  0	 11	  3	  1	  5	  6	  1	  0	  1	  0	0.42400	  1	0.90000	  0	 15	 37	 48	  1	
20-Apr-2013	sub2320	2320	  1	  0	 12	  3	  1	  2	  1	  6	  1	  1	  0	0.42381	  0	0.90000	  0	 12	 40	 41	  1	
20-Apr-2013	sub2320	2320	  1	  0	 13	  3	  1	  4	  4	  3	  1	  2	  1	0.55133	  1	0.90000	  0	 14	 32	 33	  0	
20-Apr-2013	sub2320	2320	  1	  0	 14	  3	  1	  1	  2	  4	  1	  2	  0	0.38498	  0	0.90000	  0	 11	 40	 41	  1	
20-Apr-2013	sub2320	2320	  1	  0	 15	  3	  1	  3	  5	  3	  1	  2	  0	0.53182	  0	0.90000	  0	 13	 42	 43	  0	
20-Apr-2013	sub2320	2320	  1	  0	 16	  3	  1	  5	  6	  1	  1	  1	  1	0.16966	  1	0.80000	  0	 15	 35	 36	  1	
20-Apr-2013	sub2320	2320	  1	  0	 17	  3	  1	  2	  1	  6	  1	  1	  0	0.25930	  0	0.80000	  0	 12	 40	 41	  1	
20-Apr-2013	sub2320	2320	  1	  0	 18	  3	  1	  2	  1	  6	  1	  2	  1	0.39418	  1	0.70000	  0	 12	 30	 31	  1	
20-Apr-2013	sub2320	2320	  1	  0	 19	  3	  1	  2	  1	  6	  1	  2	  1	0.37367	  1	0.70000	  0	 12	 30	 31	  1	
20-Apr-2013	sub2320	2320	  1	  0	 20	  3	  1	  6	  3	  1	  1	  1	  0	0.37321	  0	0.70000	  0	 16	 45	 46	  1	
20-Apr-2013	sub2320	2320	  1	  0	 21	  3	  1	  2	  1	  6	  1	  2	  1	0.34346	  1	0.60000	  0	 12	 30	 31	  1	
20-Apr-2013	sub2320	2320	  1	  0	 22	  3	  1	  6	  3	  1	  1	  2	  1	0.44292	  1	0.60000	  0	 16	 35	 36	  1	
20-Apr-2013	sub2320	2320	  1	  0	 23	  3	  1	  4	  4	  3	  1	  2	  1	0.35512	  1	0.60000	  0	 14	 32	 33	  1	
20-Apr-2013	sub2320	2320	  1	  0	 24	  3	  1	  3	  5	  3	  1	  2	  0	0.49378	  0	0.60000	  0	 13	 42	 43	  1	
20-Apr-2013	sub2320	2320	  1	  0	 25	  3	  1	  1	  2	  4	  1	  1	  1	0.49019	  1	0.60000	  0	 11	 30	 31	  1	
20-Apr-2013	sub2320	2320	  1	  0	 26	  3	  1	  3	  5	  3	  1	  2	  0	0.40582	  0	0.50000	  0	 13	 42	 43	  1	
20-Apr-2013	sub2320	2320	  1	  0	 27	  3	  1	  4	  4	  3	  0	  2	  0	0.45840	  1	0.50000	  0	 14	 34	 49	  1	
20-Apr-2013	sub2320	2320	  1	  0	 28	  3	  1	  5	  6	  1	  1	  2	  0	0.09152	  0	0.50000	  0	 15	 45	 46	  1	
20-Apr-2013	sub2320	2320	  1	  0	 29	  3	  1	  6	  3	  1	  1	  1	  0	0.51651	  0	0.50000	  1	 16	 45	 51	  0	
20-Apr-2013	sub2320	2320	  1	  0	 30	  3	  1	  1	  2	  4	  1	  1	  1	0.51298	  1	0.80000	  0	 11	 30	 31	  0	
20-Apr-2013	sub2320	2320	  1	  0	 31	  3	  1	  2	  1	  6	  1	  2	  1	0.36904	  1	0.80000	  0	 12	 30	 31	  1	
20-Apr-2013	sub2320	2320	  1	  0	 32	  3	  1	  4	  4	  3	  1	  2	  1	0.33364	  1	0.80000	  0	 14	 32	 33	  1	
20-Apr-2013	sub2320	2320	  1	  0	 33	  3	  1	  1	  2	  4	  1	  2	  0	0.36807	  0	0.80000	  0	 11	 40	 41	  1	
20-Apr-2013	sub2320	2320	  1	  0	 34	  3	  1	  5	  6	  1	  0	  2	  1	0.39380	  0	0.80000	  0	 15	 47	 38	  1	
20-Apr-2013	sub2320	2320	  1	  0	 35	  3	  1	  1	  2	  4	  1	  1	  1	0.54762	  1	0.70000	  0	 11	 30	 31	  0	
20-Apr-2013	sub2320	2320	  1	  0	 36	  3	  1	  3	  5	  3	  1	  1	  1	0.46064	  1	0.70000	  0	 13	 32	 33	  1	
20-Apr-2013	sub2320	2320	  1	  0	 37	  3	  1	  5	  6	  1	  1	  1	  1	0.44307	  1	0.70000	  0	 15	 35	 36	  1	
20-Apr-2013	sub2320	2320	  1	  0	 38	  3	  1	  3	  5	  3	  1	  2	  0	0.35074	  0	0.70000	  0	 13	 42	 43	  1	
20-Apr-2013	sub2320	2320	  1	  0	 39	  3	  1	  4	  4	  3	  1	  2	  1	0.31721	  1	0.70000	  0	 14	 32	 33	  1	
20-Apr-2013	sub2320	2320	  1	  0	 40	  3	  1	  5	  6	  1	  1	  2	  0	0.40383	  0	0.70000	  0	 15	 45	 46	  1	
20-Apr-2013	sub2320	2320	  1	  0	 41	  3	  1	  6	  3	  1	  0	  1	  1	0.51743	  0	0.60000	  0	 16	 47	 38	  0	
20-Apr-2013	sub2320	2320	  1	  0	 42	  3	  1	  5	  6	  1	  1	  1	  1	0.46348	  1	0.60000	  0	 15	 35	 36	  1	
20-Apr-2013	sub2320	2320	  1	  0	 43	  3	  1	  1	  2	  4	  1	  2	  0	0.45482	  0	0.60000	  0	 11	 40	 41	  1	
20-Apr-2013	sub2320	2320	  1	  0	 44	  3	  1	  3	  5	  3	  1	  1	  1	0.33793	  1	0.60000	  0	 13	 32	 33	  1	
20-Apr-2013	sub2320	2320	  1	  0	 45	  3	  1	  5	  6	  1	  0	  1	  0	0.42471	  1	0.60000	  0	 15	 37	 48	  1	
20-Apr-2013	sub2320	2320	  1	  0	 46	  3	  1	  2	  1	  6	  1	  1	  0	0.36648	  0	0.60000	  0	 12	 40	 41	  1	
20-Apr-2013	sub2320	2320	  1	  0	 47	  3	  1	  6	  3	  1	  1	  1	  0	0.46625	  0	0.60000	  0	 16	 45	 46	  1	
20-Apr-2013	sub2320	2320	  1	  0	 48	  3	  1	  3	  5	  3	  0	  2	  1	0.47610	  0	0.60000	  0	 13	 44	 39	  1	
20-Apr-2013	sub2320	2320	  1	  0	 49	  3	  1	  1	  2	  4	  1	  2	  0	0.41083	  0	0.60000	  0	 11	 40	 41	  1	
20-Apr-2013	sub2320	2320	  1	  0	 50	  3	  1	  2	  1	  6	  1	  2	  1	0.52242	  1	0.60000	  0	 12	 30	 31	  0	
20-Apr-2013	sub2320	2320	  1	  0	 51	  3	  1	  5	  6	  1	  0	  1	  0	0.51475	  1	0.50000	  1	 15	 37	 51	  0	
20-Apr-2013	sub2320	2320	  1	  0	 52	  3	  1	  3	  5	  3	  1	  1	  1	0.37656	  1	0.70000	  0	 13	 32	 33	  1	
20-Apr-2013	sub2320	2320	  1	  0	 53	  3	  1	  4	  4	  3	  1	  1	  0	0.41840	  0	0.70000	  0	 14	 42	 43	  1	
20-Apr-2013	sub2320	2320	  1	  0	 54	  3	  1	  4	  4	  3	  1	  2	  1	0.23979	  1	0.70000	  0	 14	 32	 33	  1	
20-Apr-2013	sub2320	2320	  1	  0	 55	  3	  1	  6	  3	  1	  0	  2	  0	0.35143	  1	0.70000	  0	 16	 37	 48	  1	
20-Apr-2013	sub2320	2320	  1	  0	 56	  3	  1	  6	  3	  1	  0	  1	  1	0.38109	  0	0.70000	  0	 16	 47	 38	  1	
20-Apr-2013	sub2320	2320	  1	  0	 57	  3	  1	  1	  2	  4	  1	  2	  0	0.40076	  0	0.70000	  0	 11	 40	 41	  1	
20-Apr-2013	sub2320	2320	  1	  0	 58	  3	  1	  3	  5	  3	  0	  1	  0	0.33922	  1	0.70000	  0	 13	 34	 49	  1	
20-Apr-2013	sub2320	2320	  1	  0	 59	  3	  1	  6	  3	  1	  1	  1	  0	0.47554	  0	0.70000	  0	 16	 45	 46	  1	
20-Apr-2013	sub2320	2320	  1	  0	 60	  3	  1	  6	  3	  1	  0	  1	  1	0.37509	  0	0.70000	  0	 16	 47	 38	  1	
20-Apr-2013	sub2320	2320	  1	  0	 61	  3	  1	  4	  4	  3	  1	  1	  0	0.42521	  0	0.60000	  0	 14	 42	 43	  1	
20-Apr-2013	sub2320	2320	  1	  0	 62	  3	  1	  5	  6	  1	  0	  1	  0	0.50479	  1	0.60000	  0	 15	 37	 48	  0	
20-Apr-2013	sub2320	2320	  1	  0	 63	  3	  1	  3	  5	  3	  1	  1	  1	0.52476	  1	0.60000	  0	 13	 32	 33	  0	
20-Apr-2013	sub2320	2320	  1	  0	 64	  3	  1	  4	  4	  3	  1	  1	  0	0.41301	  0	0.60000	  0	 14	 42	 43	  1	
20-Apr-2013	sub2320	2320	  1	  0	 65	  3	  1	  6	  3	  1	  1	  1	  0	0.41442	  0	0.60000	  0	 16	 45	 46	  1	
20-Apr-2013	sub2320	2320	  1	  0	 66	  3	  1	  6	  3	  1	  1	  1	  0	0.36131	  0	0.60000	  0	 16	 45	 46	  1	
20-Apr-2013	sub2320	2320	  1	  0	 67	  3	  1	  3	  5	  3	  1	  2	  0	0.40098	  0	0.60000	  0	 13	 42	 43	  1	
20-Apr-2013	sub2320	2320	  1	  0	 68	  3	  1	  3	  5	  3	  0	  1	  0	0.50668	  1	0.60000	  0	 13	 34	 49	  0	
20-Apr-2013	sub2320	2320	  1	  0	 69	  3	  1	  4	  4	  3	  1	  1	  0	0.45695	  0	0.60000	  0	 14	 42	 43	  1	
20-Apr-2013	sub2320	2320	  1	  0	 70	  3	  1	  2	  1	  6	  1	  2	  1	0.47435	  1	0.60000	  0	 12	 30	 31	  1	
20-Apr-2013	sub2320	2320	  1	  0	 71	  3	  1	  4	  4	  3	  0	  2	  0	0.55588	  1	0.60000	  0	 14	 34	 49	  0	
20-Apr-2013	sub2320	2320	  1	  0	 72	  3	  1	  1	  2	  4	  1	  2	  0	0.39030	  0	0.60000	  0	 11	 40	 41	  1	
20-Apr-2013	sub2320	2320	  1	  0	 73	  3	  1	  1	  2	  4	  1	  1	  1	0.55383	  1	0.60000	  0	 11	 30	 31	  0	
20-Apr-2013	sub2320	2320	  1	  0	 74	  3	  1	  6	  3	  1	  0	  1	  1	0.46997	  0	0.60000	  0	 16	 47	 38	  1	
20-Apr-2013	sub2320	2320	  1	  0	 75	  3	  1	  5	  6	  1	  1	  1	  1	0.50442	  1	0.60000	  0	 15	 35	 36	  0	
20-Apr-2013	sub2320	2320	  1	  0	 76	  3	  2	  5	  6	  1	  0	  1	  0	0.44450	  1	0.50000	  0	 25	 67	 88	  1	
20-Apr-2013	sub2320	2320	  1	  0	 77	  3	  2	  2	  1	  6	  1	  2	  1	0.42640	  1	0.50000	  0	 22	 60	 61	  1	
20-Apr-2013	sub2320	2320	  1	  0	 78	  3	  2	  1	  2	  4	  1	  2	  0	0.51956	  0	0.50000	  1	 21	 80	 51	  0	
20-Apr-2013	sub2320	2320	  1	  0	 79	  3	  2	  1	  2	  4	  1	  1	  1	0.33478	  1	0.70000	  0	 21	 60	 61	  1	
20-Apr-2013	sub2320	2320	  1	  0	 80	  3	  2	  6	  3	  1	  1	  1	  0	0.39941	  0	0.70000	  0	 26	 85	 86	  1	
20-Apr-2013	sub2320	2320	  1	  0	 81	  3	  2	  5	  6	  1	  0	  2	  1	0.45809	  0	0.60000	  0	 25	 87	 68	  1	
20-Apr-2013	sub2320	2320	  1	  0	 82	  3	  2	  4	  4	  3	  1	  2	  1	0.40211	  1	0.60000	  0	 24	 62	 63	  1	
20-Apr-2013	sub2320	2320	  1	  0	 83	  3	  2	  5	  6	  1	  0	  1	  0	0.49451	  1	0.60000	  0	 25	 67	 88	  1	
20-Apr-2013	sub2320	2320	  1	  0	 84	  3	  2	  5	  6	  1	  0	  2	  1	0.35604	  0	0.60000	  0	 25	 87	 68	  1	
20-Apr-2013	sub2320	2320	  1	  0	 85	  3	  2	  1	  2	  4	  1	  2	  0	0.39929	  0	0.60000	  0	 21	 80	 81	  1	
20-Apr-2013	sub2320	2320	  1	  0	 86	  3	  2	  6	  3	  1	  1	  1	  0	0.41080	  0	0.60000	  0	 26	 85	 86	  1	
20-Apr-2013	sub2320	2320	  1	  0	 87	  3	  2	  3	  5	  3	  1	  2	  0	0.48630	  0	0.60000	  0	 23	 82	 83	  1	
20-Apr-2013	sub2320	2320	  1	  0	 88	  3	  2	  3	  5	  3	  1	  1	  1	0.36642	  1	0.60000	  0	 23	 62	 63	  1	
20-Apr-2013	sub2320	2320	  1	  0	 89	  3	  2	  1	  2	  4	  1	  1	  1	0.40005	  1	0.60000	  0	 21	 60	 61	  1	
20-Apr-2013	sub2320	2320	  1	  0	 90	  3	  2	  1	  2	  4	  1	  1	  1	0.40645	  1	0.60000	  0	 21	 60	 61	  1	
20-Apr-2013	sub2320	2320	  1	  0	 91	  3	  2	  1	  2	  4	  1	  1	  1	0.40195	  1	0.60000	  0	 21	 60	 61	  1	
20-Apr-2013	sub2320	2320	  1	  0	 92	  3	  2	  6	  3	  1	  1	  1	  0	0.46801	  0	0.60000	  0	 26	 85	 86	  1	
20-Apr-2013	sub2320	2320	  1	  0	 93	  3	  2	  1	  2	  4	  1	  1	  1	0.41474	  1	0.60000	  0	 21	 60	 61	  1	
20-Apr-2013	sub2320	2320	  1	  0	 94	  3	  2	  1	  2	  4	  1	  1	  1	0.37956	  1	0.60000	  0	 21	 60	 61	  1	
20-Apr-2013	sub2320	2320	  1	  0	 95	  3	  2	  6	  3	  1	  1	  1	  0	0.53419	  0	0.60000	  0	 26	 85	 86	  0	
20-Apr-2013	sub2320	2320	  1	  0	 96	  3	  2	  6	  3	  1	  0	  1	  1	0.41425	  0	0.60000	  0	 26	 87	 68	  1	
20-Apr-2013	sub2320	2320	  1	  0	 97	  3	  2	  5	  6	  1	  0	  1	  0	0.43006	  1	0.60000	  0	 25	 67	 88	  1	
20-Apr-2013	sub2320	2320	  1	  0	 98	  3	  2	  5	  6	  1	  0	  2	  1	0.33490	  0	0.60000	  0	 25	 87	 68	  1	
20-Apr-2013	sub2320	2320	  1	  0	 99	  3	  2	  2	  1	  6	  1	  2	  1	0.39680	  1	0.60000	  0	 22	 60	 61	  1	
20-Apr-2013	sub2320	2320	  1	  0	100	  3	  2	  2	  1	  6	  1	  2	  1	0.35170	  1	0.60000	  0	 22	 60	 61	  1	
20-Apr-2013	sub2320	2320	  1	  0	101	  3	  2	  2	  1	  6	  1	  2	  1	0.37586	  1	0.50000	  0	 22	 60	 61	  1	
20-Apr-2013	sub2320	2320	  1	  0	102	  3	  2	  2	  1	  6	  1	  2	  1	0.34232	  1	0.50000	  0	 22	 60	 61	  1	
20-Apr-2013	sub2320	2320	  1	  0	103	  3	  2	  2	  1	  6	  1	  2	  1	0.37035	  1	0.50000	  0	 22	 60	 61	  1	
20-Apr-2013	sub2320	2320	  1	  0	104	  3	  2	  4	  4	  3	  1	  1	  0	0.62158	  0	0.50000	  1	 24	 82	 51	  0	
20-Apr-2013	sub2320	2320	  1	  0	105	  3	  2	  4	  4	  3	  0	  2	  0	0.36247	  1	0.60000	  0	 24	 64	 89	  1	
20-Apr-2013	sub2320	2320	  1	  0	106	  3	  2	  6	  3	  1	  0	  1	  1	0.44980	  0	0.60000	  0	 26	 87	 68	  1	
20-Apr-2013	sub2320	2320	  1	  0	107	  3	  2	  3	  5	  3	  1	  1	  1	0.56893	  1	0.60000	  0	 23	 62	 63	  0	
20-Apr-2013	sub2320	2320	  1	  0	108	  3	  2	  6	  3	  1	  0	  1	  1	0.39807	  0	0.60000	  0	 26	 87	 68	  1	
20-Apr-2013	sub2320	2320	  1	  0	109	  3	  2	  5	  6	  1	  0	  1	  0	0.40663	  1	0.60000	  0	 25	 67	 88	  1	
20-Apr-2013	sub2320	2320	  1	  0	110	  3	  2	  4	  4	  3	  1	  2	  1	0.50975	  1	0.60000	  0	 24	 62	 63	  0	
20-Apr-2013	sub2320	2320	  1	  0	111	  3	  2	  4	  4	  3	  1	  2	  1	0.41215	  1	0.60000	  0	 24	 62	 63	  1	
20-Apr-2013	sub2320	2320	  1	  0	112	  3	  2	  2	  1	  6	  1	  2	  1	0.36572	  1	0.60000	  0	 22	 60	 61	  1	
20-Apr-2013	sub2320	2320	  1	  0	113	  3	  2	  3	  5	  3	  1	  2	  0	0.40709	  0	0.60000	  0	 23	 82	 83	  1	
20-Apr-2013	sub2320	2320	  1	  0	114	  3	  2	  5	  6	  1	  0	  2	  1	0.44280	  0	0.60000	  0	 25	 87	 68	  1	
20-Apr-2013	sub2320	2320	  1	  0	115	  3	  2	  4	  4	  3	  0	  2	  0	0.47806	  1	0.60000	  0	 24	 64	 89	  1	
20-Apr-2013	sub2320	2320	  1	  0	116	  3	  2	  6	  3	  1	  0	  1	  1	0.51896	  0	0.60000	  0	 26	 87	 68	  0	
20-Apr-2013	sub2320	2320	  1	  0	117	  3	  2	  5	  6	  1	  0	  1	  0	0.43930	  1	0.60000	  0	 25	 67	 88	  1	
20-Apr-2013	sub2320	2320	  1	  0	118	  3	  2	  2	  1	  6	  1	  2	  1	0.47788	  1	0.60000	  0	 22	 60	 61	  1	
20-Apr-2013	sub2320	2320	  1	  0	119	  3	  2	  3	  5	  3	  0	  2	  1	0.56055	  0	0.60000	  0	 23	 84	 69	  0	
20-Apr-2013	sub2320	2320	  1	  0	120	  3	  2	  3	  5	  3	  1	  2	  0	0.40963	  0	0.60000	  0	 23	 82	 83	  1	
20-Apr-2013	sub2320	2320	  1	  0	121	  3	  2	  6	  3	  1	  1	  1	  0	0.39536	  0	0.60000	  0	 26	 85	 86	  1	
20-Apr-2013	sub2320	2320	  1	  0	122	  3	  2	  1	  2	  4	  1	  1	  1	0.59542	  1	0.60000	  0	 21	 60	 61	  0	
20-Apr-2013	sub2320	2320	  1	  0	123	  3	  2	  1	  2	  4	  1	  1	  1	0.41483	  1	0.60000	  0	 21	 60	 61	  1	
20-Apr-2013	sub2320	2320	  1	  0	124	  3	  2	  3	  5	  3	  1	  2	  0	0.38879	  0	0.60000	  0	 23	 82	 83	  1	
20-Apr-2013	sub2320	2320	  1	  0	125	  3	  2	  5	  6	  1	  0	  2	  1	0.61270	  0	0.60000	  1	 25	 87	 51	  0	
20-Apr-2013	sub2320	2320	  1	  0	126	  3	  2	  6	  3	  1	  1	  1	  0	0.48250	  0	0.60000	  0	 26	 85	 86	  1	
20-Apr-2013	sub2320	2320	  1	  0	127	  3	  2	  2	  1	  6	  1	  2	  1	0.45323	  1	0.60000	  0	 22	 60	 61	  1	
20-Apr-2013	sub2320	2320	  1	  0	128	  3	  2	  6	  3	  1	  0	  1	  1	0.51035	  0	0.60000	  0	 26	 87	 68	  0	
20-Apr-2013	sub2320	2320	  1	  0	129	  3	  2	  5	  6	  1	  0	  2	  1	0.43438	  0	0.60000	  0	 25	 87	 68	  1	
20-Apr-2013	sub2320	2320	  1	  0	130	  3	  2	  1	  2	  4	  1	  1	  1	0.50730	  1	0.60000	  0	 21	 60	 61	  0	
20-Apr-2013	sub2320	2320	  1	  0	131	  3	  2	  4	  4	  3	  1	  2	  1	0.40764	  1	0.60000	  0	 24	 62	 63	  1	
20-Apr-2013	sub2320	2320	  1	  0	132	  3	  2	  3	  5	  3	  1	  1	  1	0.43178	  1	0.60000	  0	 23	 62	 63	  1	
20-Apr-2013	sub2320	2320	  1	  0	133	  3	  2	  4	  4	  3	  1	  1	  0	0.40786	  0	0.60000	  0	 24	 82	 83	  1	
20-Apr-2013	sub2320	2320	  1	  0	134	  3	  2	  2	  1	  6	  1	  2	  1	0.46960	  1	0.60000	  0	 22	 60	 61	  1	
20-Apr-2013	sub2320	2320	  1	  0	135	  3	  2	  6	  3	  1	  0	  1	  1	0.44879	  0	0.60000	  0	 26	 87	 68	  1	
20-Apr-2013	sub2320	2320	  1	  0	136	  3	  2	  4	  4	  3	  0	  2	  0	0.45266	  1	0.60000	  0	 24	 64	 89	  1	
20-Apr-2013	sub2320	2320	  1	  0	137	  3	  2	  2	  1	  6	  1	  2	  1	0.56889	  1	0.60000	  0	 22	 60	 61	  0	
20-Apr-2013	sub2320	2320	  1	  0	138	  3	  2	  4	  4	  3	  1	  2	  1	0.40976	  1	0.60000	  0	 24	 62	 63	  1	
20-Apr-2013	sub2320	2320	  1	  0	139	  3	  2	  2	  1	  6	  1	  2	  1	0.42237	  1	0.60000	  0	 22	 60	 61	  1	
20-Apr-2013	sub2320	2320	  1	  0	140	  3	  2	  1	  2	  4	  1	  2	  0	0.42415	  0	0.60000	  0	 21	 80	 81	  1	
20-Apr-2013	sub2320	2320	  1	  0	141	  3	  2	  3	  5	  3	  1	  2	  0	0.42729	  0	0.60000	  0	 23	 82	 83	  1	
20-Apr-2013	sub2320	2320	  1	  0	142	  3	  2	  4	  4	  3	  1	  2	  1	0.51842	  1	0.60000	  0	 24	 62	 63	  0	
20-Apr-2013	sub2320	2320	  1	  0	143	  3	  2	  1	  2	  4	  1	  1	  1	0.52068	  1	0.60000	  0	 21	 60	 61	  0	
20-Apr-2013	sub2320	2320	  1	  0	144	  3	  2	  4	  4	  3	  1	  2	  1	0.45043	  1	0.60000	  0	 24	 62	 63	  1	
20-Apr-2013	sub2320	2320	  1	  0	145	  3	  2	  3	  5	  3	  1	  1	  1	0.59039	  1	0.60000	  0	 23	 62	 63	  0	
20-Apr-2013	sub2320	2320	  1	  0	146	  3	  2	  3	  5	  3	  0	  2	  1	0.52842	  0	0.60000	  0	 23	 84	 69	  0	
20-Apr-2013	sub2320	2320	  1	  0	147	  3	  2	  4	  4	  3	  1	  1	  0	0.53205	  0	0.60000	  0	 24	 82	 83	  0	
20-Apr-2013	sub2320	2320	  1	  0	148	  3	  2	  5	  6	  1	  0	  2	  1	0.56853	  0	0.60000	  0	 25	 87	 68	  0	
20-Apr-2013	sub2320	2320	  1	  0	149	  3	  2	  5	  6	  1	  0	  1	  0	0.49084	  1	0.60000	  0	 25	 67	 88	  1	
20-Apr-2013	sub2320	2320	  1	  0	150	  3	  2	  3	  5	  3	  1	  2	  0	0.55127	  0	0.60000	  0	 23	 82	 83	  0	
20-Apr-2013	sub2320	2320	  1	  0	  1	  4	  1	  3	  5	  1	  1	  1	  1	0.62607	  1	0.60000	  1	 13	 32	 51	  0	
20-Apr-2013	sub2320	2320	  1	  0	  2	  4	  1	  1	  6	  2	  1	  1	  1	0.29671	  1	0.90000	  0	 11	 30	 31	  1	
20-Apr-2013	sub2320	2320	  1	  0	  3	  4	  1	  3	  5	  1	  1	  1	  1	0.43618	  1	0.90000	  0	 13	 32	 33	  1	
20-Apr-2013	sub2320	2320	  1	  0	  4	  4	  1	  6	  1	  2	  0	  1	  1	0.47806	  0	0.90000	  0	 16	 47	 38	  1	
20-Apr-2013	sub2320	2320	  1	  0	  5	  4	  1	  2	  3	  5	  1	  1	  0	0.45795	  0	0.90000	  0	 12	 40	 41	  1	
20-Apr-2013	sub2320	2320	  1	  0	  6	  4	  1	  3	  5	  1	  1	  1	  1	0.51493	  1	0.90000	  0	 13	 32	 33	  0	
20-Apr-2013	sub2320	2320	  1	  0	  7	  4	  1	  3	  5	  1	  0	  1	  0	0.32896	  1	0.90000	  0	 13	 34	 49	  1	
20-Apr-2013	sub2320	2320	  1	  0	  8	  4	  1	  5	  4	  1	  1	  1	  1	0.34730	  1	0.90000	  0	 15	 35	 36	  1	
20-Apr-2013	sub2320	2320	  1	  0	  9	  4	  1	  3	  5	  1	  1	  1	  1	0.36698	  1	0.90000	  0	 13	 32	 33	  1	
20-Apr-2013	sub2320	2320	  1	  0	 10	  4	  1	  6	  1	  2	  1	  1	  0	0.41485	  0	0.90000	  0	 16	 45	 46	  1	
20-Apr-2013	sub2320	2320	  1	  0	 11	  4	  1	  5	  4	  1	  0	  2	  1	0.55999	  0	0.90000	  0	 15	 47	 38	  0	
20-Apr-2013	sub2320	2320	  1	  0	 12	  4	  1	  5	  4	  1	  0	  2	  1	0.37283	  0	0.90000	  0	 15	 47	 38	  1	
20-Apr-2013	sub2320	2320	  1	  0	 13	  4	  1	  1	  6	  2	  1	  2	  0	0.61489	  0	0.90000	  0	 11	 40	 41	  0	
20-Apr-2013	sub2320	2320	  1	  0	 14	  4	  1	  5	  4	  1	  1	  1	  1	0.42004	  1	0.90000	  0	 15	 35	 36	  1	
20-Apr-2013	sub2320	2320	  1	  0	 15	  4	  1	  6	  1	  2	  0	  2	  0	0.65086	  1	0.90000	  0	 16	 37	 48	  0	
20-Apr-2013	sub2320	2320	  1	  0	 16	  4	  1	  6	  1	  2	  0	  2	  0	0.34996	  1	0.80000	  0	 16	 37	 48	  1	
20-Apr-2013	sub2320	2320	  1	  0	 17	  4	  1	  4	  2	  3	  1	  2	  1	0.42948	  1	0.80000	  0	 14	 32	 33	  1	
20-Apr-2013	sub2320	2320	  1	  0	 18	  4	  1	  6	  1	  2	  1	  2	  1	0.48681	  1	0.70000	  0	 16	 35	 36	  1	
20-Apr-2013	sub2320	2320	  1	  0	 19	  4	  1	  1	  6	  2	  1	  2	  0	0.44985	  0	0.70000	  0	 11	 40	 41	  1	
20-Apr-2013	sub2320	2320	  1	  0	 20	  4	  1	  5	  4	  1	  1	  2	  0	0.45416	  0	0.70000	  0	 15	 45	 46	  1	
20-Apr-2013	sub2320	2320	  1	  0	 21	  4	  1	  1	  6	  2	  1	  1	  1	0.46719	  1	0.60000	  0	 11	 30	 31	  1	
20-Apr-2013	sub2320	2320	  1	  0	 22	  4	  1	  2	  3	  5	  1	  1	  0	0.51507	  0	0.60000	  0	 12	 40	 41	  0	
20-Apr-2013	sub2320	2320	  1	  0	 23	  4	  1	  4	  2	  3	  0	  1	  1	0.34741	  0	0.60000	  0	 14	 44	 39	  1	
20-Apr-2013	sub2320	2320	  1	  0	 24	  4	  1	  6	  1	  2	  1	  1	  0	0.31805	  0	0.60000	  0	 16	 45	 46	  1	
20-Apr-2013	sub2320	2320	  1	  0	 25	  4	  1	  2	  3	  5	  1	  1	  0	0.35304	  0	0.60000	  0	 12	 40	 41	  1	
20-Apr-2013	sub2320	2320	  1	  0	 26	  4	  1	  2	  3	  5	  1	  2	  1	0.34363	  1	0.50000	  0	 12	 30	 31	  1	
20-Apr-2013	sub2320	2320	  1	  0	 27	  4	  1	  5	  4	  1	  1	  2	  0	0.44157	  0	0.50000	  0	 15	 45	 46	  1	
20-Apr-2013	sub2320	2320	  1	  0	 28	  4	  1	  6	  1	  2	  0	  1	  1	0.40683	  0	0.50000	  0	 16	 47	 38	  1	
20-Apr-2013	sub2320	2320	  1	  0	 29	  4	  1	  4	  2	  3	  1	  2	  1	0.29757	  1	0.50000	  0	 14	 32	 33	  1	
20-Apr-2013	sub2320	2320	  1	  0	 30	  4	  1	  3	  5	  1	  1	  1	  1	0.53320	  1	0.50000	  1	 13	 32	 51	  0	
20-Apr-2013	sub2320	2320	  1	  0	 31	  4	  1	  5	  4	  1	  0	  2	  1	0.47333	  0	0.80000	  0	 15	 47	 38	  1	
20-Apr-2013	sub2320	2320	  1	  0	 32	  4	  1	  4	  2	  3	  0	  2	  0	0.47464	  1	0.80000	  0	 14	 34	 49	  1	
20-Apr-2013	sub2320	2320	  1	  0	 33	  4	  1	  3	  5	  1	  1	  1	  1	0.53968	  1	0.80000	  0	 13	 32	 33	  0	
20-Apr-2013	sub2320	2320	  1	  0	 34	  4	  1	  4	  2	  3	  1	  1	  0	0.40751	  0	0.80000	  0	 14	 42	 43	  1	
20-Apr-2013	sub2320	2320	  1	  0	 35	  4	  1	  1	  6	  2	  1	  1	  1	0.41574	  1	0.70000	  0	 11	 30	 31	  1	
20-Apr-2013	sub2320	2320	  1	  0	 36	  4	  1	  1	  6	  2	  1	  1	  1	0.34623	  1	0.70000	  0	 11	 30	 31	  1	
20-Apr-2013	sub2320	2320	  1	  0	 37	  4	  1	  2	  3	  5	  1	  2	  1	0.39246	  1	0.70000	  0	 12	 30	 31	  1	
20-Apr-2013	sub2320	2320	  1	  0	 38	  4	  1	  4	  2	  3	  1	  2	  1	0.52321	  1	0.70000	  0	 14	 32	 33	  0	
20-Apr-2013	sub2320	2320	  1	  0	 39	  4	  1	  2	  3	  5	  1	  2	  1	0.43655	  1	0.70000	  0	 12	 30	 31	  1	
20-Apr-2013	sub2320	2320	  1	  0	 40	  4	  1	  4	  2	  3	  1	  2	  1	0.35355	  1	0.70000	  0	 14	 32	 33	  1	
20-Apr-2013	sub2320	2320	  1	  0	 41	  4	  1	  1	  6	  2	  1	  1	  1	0.57443	  1	0.60000	  0	 11	 30	 31	  0	
20-Apr-2013	sub2320	2320	  1	  0	 42	  4	  1	  3	  5	  1	  1	  1	  1	0.32107	  1	0.60000	  0	 13	 32	 33	  1	
20-Apr-2013	sub2320	2320	  1	  0	 43	  4	  1	  1	  6	  2	  1	  1	  1	0.36996	  1	0.60000	  0	 11	 30	 31	  1	
20-Apr-2013	sub2320	2320	  1	  0	 44	  4	  1	  4	  2	  3	  1	  1	  0	0.46030	  0	0.60000	  0	 14	 42	 43	  1	
20-Apr-2013	sub2320	2320	  1	  0	 45	  4	  1	  2	  3	  5	  1	  2	  1	0.41267	  1	0.60000	  0	 12	 30	 31	  1	
20-Apr-2013	sub2320	2320	  1	  0	 46	  4	  1	  2	  3	  5	  1	  2	  1	0.37444	  1	0.60000	  0	 12	 30	 31	  1	
20-Apr-2013	sub2320	2320	  1	  0	 47	  4	  1	  4	  2	  3	  1	  2	  1	0.33733	  1	0.60000	  0	 14	 32	 33	  1	
20-Apr-2013	sub2320	2320	  1	  0	 48	  4	  1	  5	  4	  1	  0	  2	  1	0.59145	  0	0.60000	  0	 15	 47	 38	  0	
20-Apr-2013	sub2320	2320	  1	  0	 49	  4	  1	  2	  3	  5	  1	  2	  1	0.34761	  1	0.60000	  0	 12	 30	 31	  1	
20-Apr-2013	sub2320	2320	  1	  0	 50	  4	  1	  4	  2	  3	  1	  2	  1	0.33623	  1	0.60000	  0	 14	 32	 33	  1	
20-Apr-2013	sub2320	2320	  1	  0	 51	  4	  1	  6	  1	  2	  1	  2	  1	0.36171	  1	0.50000	  0	 16	 35	 36	  1	
20-Apr-2013	sub2320	2320	  1	  0	 52	  4	  1	  3	  5	  1	  0	  2	  1	0.27887	  0	0.50000	  0	 13	 44	 39	  1	
20-Apr-2013	sub2320	2320	  1	  0	 53	  4	  1	  2	  3	  5	  1	  2	  1	0.46886	  1	0.50000	  0	 12	 30	 31	  1	
20-Apr-2013	sub2320	2320	  1	  0	 54	  4	  1	  1	  6	  2	  1	  1	  1	0.54624	  1	0.50000	  1	 11	 30	 51	  0	
20-Apr-2013	sub2320	2320	  1	  0	 55	  4	  1	  2	  3	  5	  1	  2	  1	0.48519	  1	0.70000	  0	 12	 30	 31	  1	
20-Apr-2013	sub2320	2320	  1	  0	 56	  4	  1	  4	  2	  3	  1	  2	  1	0.51686	  1	0.70000	  0	 14	 32	 33	  0	
20-Apr-2013	sub2320	2320	  1	  0	 57	  4	  1	  4	  2	  3	  1	  2	  1	0.35182	  1	0.70000	  0	 14	 32	 33	  1	
20-Apr-2013	sub2320	2320	  1	  0	 58	  4	  1	  1	  6	  2	  1	  2	  0	0.38580	  0	0.70000	  0	 11	 40	 41	  1	
20-Apr-2013	sub2320	2320	  1	  0	 59	  4	  1	  6	  1	  2	  0	  2	  0	0.36067	  1	0.70000	  0	 16	 37	 48	  1	
20-Apr-2013	sub2320	2320	  1	  0	 60	  4	  1	  6	  1	  2	  1	  1	  0	0.60499	  0	0.70000	  0	 16	 45	 46	  0	
20-Apr-2013	sub2320	2320	  1	  0	 61	  4	  1	  3	  5	  1	  1	  2	  0	0.40949	  0	0.60000	  0	 13	 42	 43	  1	
20-Apr-2013	sub2320	2320	  1	  0	 62	  4	  1	  5	  4	  1	  1	  2	  0	0.48126	  0	0.60000	  0	 15	 45	 46	  1	
20-Apr-2013	sub2320	2320	  1	  0	 63	  4	  1	  1	  6	  2	  1	  2	  0	0.37710	  0	0.60000	  0	 11	 40	 41	  1	
20-Apr-2013	sub2320	2320	  1	  0	 64	  4	  1	  3	  5	  1	  0	  1	  0	0.38553	  1	0.60000	  0	 13	 34	 49	  1	
20-Apr-2013	sub2320	2320	  1	  0	 65	  4	  1	  6	  1	  2	  0	  1	  1	0.42652	  0	0.60000	  0	 16	 47	 38	  1	
20-Apr-2013	sub2320	2320	  1	  0	 66	  4	  1	  5	  4	  1	  1	  1	  1	0.36939	  1	0.60000	  0	 15	 35	 36	  1	
20-Apr-2013	sub2320	2320	  1	  0	 67	  4	  1	  3	  5	  1	  1	  1	  1	0.36452	  1	0.60000	  0	 13	 32	 33	  1	
20-Apr-2013	sub2320	2320	  1	  0	 68	  4	  1	  2	  3	  5	  1	  1	  0	0.39039	  0	0.60000	  0	 12	 40	 41	  1	
20-Apr-2013	sub2320	2320	  1	  0	 69	  4	  1	  1	  6	  2	  1	  2	  0	0.37295	  0	0.60000	  0	 11	 40	 41	  1	
20-Apr-2013	sub2320	2320	  1	  0	 70	  4	  1	  5	  4	  1	  0	  1	  0	0.36867	  1	0.60000	  0	 15	 37	 48	  1	
20-Apr-2013	sub2320	2320	  1	  0	 71	  4	  1	  3	  5	  1	  1	  2	  0	0.35815	  0	0.60000	  0	 13	 42	 43	  1	
20-Apr-2013	sub2320	2320	  1	  0	 72	  4	  1	  6	  1	  2	  0	  2	  0	0.43412	  1	0.60000	  0	 16	 37	 48	  1	
20-Apr-2013	sub2320	2320	  1	  0	 73	  4	  1	  6	  1	  2	  1	  1	  0	0.38948	  0	0.60000	  0	 16	 45	 46	  1	
20-Apr-2013	sub2320	2320	  1	  0	 74	  4	  1	  2	  3	  5	  1	  2	  1	0.50776	  1	0.60000	  0	 12	 30	 31	  0	
20-Apr-2013	sub2320	2320	  1	  0	 75	  4	  1	  5	  4	  1	  1	  2	  0	0.53618	  0	0.60000	  0	 15	 45	 46	  0	
20-Apr-2013	sub2320	2320	  1	  0	 76	  4	  2	  5	  4	  1	  0	  2	  1	0.34343	  0	0.50000	  0	 25	 87	 68	  1	
20-Apr-2013	sub2320	2320	  1	  0	 77	  4	  2	  3	  5	  1	  1	  2	  0	0.38209	  0	0.50000	  0	 23	 82	 83	  1	
20-Apr-2013	sub2320	2320	  1	  0	 78	  4	  2	  2	  3	  5	  1	  2	  1	0.43939	  1	0.50000	  0	 22	 60	 61	  1	
20-Apr-2013	sub2320	2320	  1	  0	 79	  4	  2	  1	  6	  2	  1	  1	  1	0.52082	  1	0.50000	  1	 21	 60	 51	  0	
20-Apr-2013	sub2320	2320	  1	  0	 80	  4	  2	  4	  2	  3	  1	  2	  1	0.43631	  1	0.70000	  0	 24	 62	 63	  1	
20-Apr-2013	sub2320	2320	  1	  0	 81	  4	  2	  5	  4	  1	  0	  2	  1	0.42934	  0	0.60000	  0	 25	 87	 68	  1	
20-Apr-2013	sub2320	2320	  1	  0	 82	  4	  2	  3	  5	  1	  1	  1	  1	0.46869	  1	0.60000	  0	 23	 62	 63	  1	
20-Apr-2013	sub2320	2320	  1	  0	 83	  4	  2	  6	  1	  2	  0	  2	  0	0.48250	  1	0.60000	  0	 26	 67	 88	  1	
20-Apr-2013	sub2320	2320	  1	  0	 84	  4	  2	  1	  6	  2	  1	  1	  1	0.39801	  1	0.60000	  0	 21	 60	 61	  1	
20-Apr-2013	sub2320	2320	  1	  0	 85	  4	  2	  3	  5	  1	  1	  1	  1	0.35407	  1	0.60000	  0	 23	 62	 63	  1	
20-Apr-2013	sub2320	2320	  1	  0	 86	  4	  2	  6	  1	  2	  0	  1	  1	0.48586	  0	0.60000	  0	 26	 87	 68	  1	
20-Apr-2013	sub2320	2320	  1	  0	 87	  4	  2	  3	  5	  1	  1	  1	  1	0.39781	  1	0.60000	  0	 23	 62	 63	  1	
20-Apr-2013	sub2320	2320	  1	  0	 88	  4	  2	  2	  3	  5	  1	  1	  0	0.40874	  0	0.60000	  0	 22	 80	 81	  1	
20-Apr-2013	sub2320	2320	  1	  0	 89	  4	  2	  6	  1	  2	  1	  1	  0	0.35499	  0	0.60000	  0	 26	 85	 86	  1	
20-Apr-2013	sub2320	2320	  1	  0	 90	  4	  2	  1	  6	  2	  1	  1	  1	0.36349	  1	0.60000	  0	 21	 60	 61	  1	
20-Apr-2013	sub2320	2320	  1	  0	 91	  4	  2	  6	  1	  2	  0	  2	  0	0.48122	  1	0.60000	  0	 26	 67	 88	  1	
20-Apr-2013	sub2320	2320	  1	  0	 92	  4	  2	  4	  2	  3	  1	  2	  1	0.54386	  1	0.60000	  0	 24	 62	 63	  0	
20-Apr-2013	sub2320	2320	  1	  0	 93	  4	  2	  4	  2	  3	  1	  2	  1	0.45935	  1	0.60000	  0	 24	 62	 63	  1	
20-Apr-2013	sub2320	2320	  1	  0	 94	  4	  2	  3	  5	  1	  1	  1	  1	0.52611	  1	0.60000	  0	 23	 62	 63	  0	
20-Apr-2013	sub2320	2320	  1	  0	 95	  4	  2	  6	  1	  2	  1	  1	  0	0.56368	  0	0.60000	  0	 26	 85	 86	  0	
20-Apr-2013	sub2320	2320	  1	  0	 96	  4	  2	  2	  3	  5	  1	  2	  1	0.53655	  1	0.60000	  0	 22	 60	 61	  0	
20-Apr-2013	sub2320	2320	  1	  0	 97	  4	  2	  2	  3	  5	  1	  2	  1	0.49394	  1	0.60000	  0	 22	 60	 61	  1	
20-Apr-2013	sub2320	2320	  1	  0	 98	  4	  2	  1	  6	  2	  1	  1	  1	0.50250	  1	0.60000	  0	 21	 60	 61	  0	
20-Apr-2013	sub2320	2320	  1	  0	 99	  4	  2	  3	  5	  1	  0	  2	  1	0.43672	  0	0.60000	  0	 23	 84	 69	  1	
20-Apr-2013	sub2320	2320	  1	  0	100	  4	  2	  3	  5	  1	  0	  1	  0	0.44182	  1	0.60000	  0	 23	 64	 89	  1	
20-Apr-2013	sub2320	2320	  1	  0	101	  4	  2	  5	  4	  1	  0	  2	  1	0.51938	  0	0.50000	  1	 25	 87	 51	  0	
20-Apr-2013	sub2320	2320	  1	  0	102	  4	  2	  2	  3	  5	  1	  1	  0	0.35907	  0	0.60000	  0	 22	 80	 81	  1	
20-Apr-2013	sub2320	2320	  1	  0	103	  4	  2	  1	  6	  2	  1	  1	  1	0.36542	  1	0.60000	  0	 21	 60	 61	  1	
20-Apr-2013	sub2320	2320	  1	  0	104	  4	  2	  5	  4	  1	  0	  2	  1	0.54124	  0	0.60000	  0	 25	 87	 68	  0	
20-Apr-2013	sub2320	2320	  1	  0	105	  4	  2	  2	  3	  5	  1	  2	  1	0.49652	  1	0.60000	  0	 22	 60	 61	  1	
20-Apr-2013	sub2320	2320	  1	  0	106	  4	  2	  5	  4	  1	  0	  2	  1	0.43591	  0	0.60000	  0	 25	 87	 68	  1	
20-Apr-2013	sub2320	2320	  1	  0	107	  4	  2	  2	  3	  5	  1	  1	  0	0.39143	  0	0.60000	  0	 22	 80	 81	  1	
20-Apr-2013	sub2320	2320	  1	  0	108	  4	  2	  5	  4	  1	  0	  2	  1	0.44649	  0	0.60000	  0	 25	 87	 68	  1	
20-Apr-2013	sub2320	2320	  1	  0	109	  4	  2	  2	  3	  5	  1	  2	  1	0.37697	  1	0.60000	  0	 22	 60	 61	  1	
20-Apr-2013	sub2320	2320	  1	  0	110	  4	  2	  5	  4	  1	  0	  2	  1	0.38720	  0	0.60000	  0	 25	 87	 68	  1	
20-Apr-2013	sub2320	2320	  1	  0	111	  4	  2	  6	  1	  2	  1	  2	  1	0.55030	  1	0.60000	  0	 26	 65	 66	  0	
20-Apr-2013	sub2320	2320	  1	  0	112	  4	  2	  3	  5	  1	  1	  2	  0	0.34128	  0	0.60000	  0	 23	 82	 83	  1	
20-Apr-2013	sub2320	2320	  1	  0	113	  4	  2	  6	  1	  2	  1	  1	  0	2.35675	  0	0.60000	  1	 26	 85	 51	  0	
20-Apr-2013	sub2320	2320	  1	  0	114	  4	  2	  3	  5	  1	  1	  1	  1	0.49075	  1	0.70000	  0	 23	 62	 63	  1	
20-Apr-2013	sub2320	2320	  1	  0	115	  4	  2	  4	  2	  3	  1	  1	  0	0.44686	  0	0.70000	  0	 24	 82	 83	  1	
20-Apr-2013	sub2320	2320	  1	  0	116	  4	  2	  1	  6	  2	  1	  1	  1	0.47775	  1	0.70000	  0	 21	 60	 61	  1	
20-Apr-2013	sub2320	2320	  1	  0	117	  4	  2	  1	  6	  2	  1	  1	  1	0.42281	  1	0.70000	  0	 21	 60	 61	  1	
20-Apr-2013	sub2320	2320	  1	  0	118	  4	  2	  4	  2	  3	  0	  2	  0	0.46601	  1	0.70000	  0	 24	 64	 89	  1	
20-Apr-2013	sub2320	2320	  1	  0	119	  4	  2	  5	  4	  1	  0	  2	  1	0.46675	  0	0.70000	  0	 25	 87	 68	  1	
20-Apr-2013	sub2320	2320	  1	  0	120	  4	  2	  3	  5	  1	  1	  2	  0	0.40072	  0	0.70000	  0	 23	 82	 83	  1	
20-Apr-2013	sub2320	2320	  1	  0	121	  4	  2	  6	  1	  2	  1	  2	  1	0.41152	  1	0.60000	  0	 26	 65	 66	  1	
20-Apr-2013	sub2320	2320	  1	  0	122	  4	  2	  2	  3	  5	  1	  2	  1	0.38424	  1	0.60000	  0	 22	 60	 61	  1	
20-Apr-2013	sub2320	2320	  1	  0	123	  4	  2	  5	  4	  1	  0	  2	  1	0.32870	  0	0.60000	  0	 25	 87	 68	  1	
20-Apr-2013	sub2320	2320	  1	  0	124	  4	  2	  3	  5	  1	  1	  2	  0	0.39911	  0	0.60000	  0	 23	 82	 83	  1	
20-Apr-2013	sub2320	2320	  1	  0	125	  4	  2	  5	  4	  1	  0	  1	  0	0.41151	  1	0.60000	  0	 25	 67	 88	  1	
20-Apr-2013	sub2320	2320	  1	  0	126	  4	  2	  6	  1	  2	  0	  1	  1	0.52737	  0	0.60000	  0	 26	 87	 68	  0	
20-Apr-2013	sub2320	2320	  1	  0	127	  4	  2	  3	  5	  1	  1	  1	  1	0.36980	  1	0.60000	  0	 23	 62	 63	  1	
20-Apr-2013	sub2320	2320	  1	  0	128	  4	  2	  1	  6	  2	  1	  1	  1	0.40936	  1	0.60000	  0	 21	 60	 61	  1	
20-Apr-2013	sub2320	2320	  1	  0	129	  4	  2	  1	  6	  2	  1	  1	  1	0.40937	  1	0.60000	  0	 21	 60	 61	  1	
20-Apr-2013	sub2320	2320	  1	  0	130	  4	  2	  1	  6	  2	  1	  1	  1	0.36632	  1	0.60000	  0	 21	 60	 61	  1	
20-Apr-2013	sub2320	2320	  1	  0	131	  4	  2	  2	  3	  5	  1	  2	  1	0.47552	  1	0.60000	  0	 22	 60	 61	  1	
20-Apr-2013	sub2320	2320	  1	  0	132	  4	  2	  5	  4	  1	  0	  2	  1	0.47193	  0	0.60000	  0	 25	 87	 68	  1	
20-Apr-2013	sub2320	2320	  1	  0	133	  4	  2	  4	  2	  3	  0	  2	  0	0.39607	  1	0.60000	  0	 24	 64	 89	  1	
20-Apr-2013	sub2320	2320	  1	  0	134	  4	  2	  5	  4	  1	  0	  2	  1	0.39457	  0	0.60000	  0	 25	 87	 68	  1	
20-Apr-2013	sub2320	2320	  1	  0	135	  4	  2	  2	  3	  5	  1	  2	  1	0.38681	  1	0.60000	  0	 22	 60	 61	  1	
20-Apr-2013	sub2320	2320	  1	  0	136	  4	  2	  1	  6	  2	  1	  2	  0	0.27088	  0	0.60000	  0	 21	 80	 81	  1	
20-Apr-2013	sub2320	2320	  1	  0	137	  4	  2	  1	  6	  2	  1	  1	  1	0.40210	  1	0.60000	  0	 21	 60	 61	  1	
20-Apr-2013	sub2320	2320	  1	  0	138	  4	  2	  4	  2	  3	  1	  2	  1	0.53731	  1	0.60000	  0	 24	 62	 63	  0	
20-Apr-2013	sub2320	2320	  1	  0	139	  4	  2	  6	  1	  2	  0	  1	  1	0.56058	  0	0.60000	  0	 26	 87	 68	  0	
20-Apr-2013	sub2320	2320	  1	  0	140	  4	  2	  4	  2	  3	  1	  2	  1	0.40886	  1	0.60000	  0	 24	 62	 63	  1	
20-Apr-2013	sub2320	2320	  1	  0	141	  4	  2	  5	  4	  1	  0	  2	  1	0.50361	  0	0.60000	  0	 25	 87	 68	  0	
20-Apr-2013	sub2320	2320	  1	  0	142	  4	  2	  6	  1	  2	  0	  1	  1	0.50695	  0	0.60000	  0	 26	 87	 68	  0	
20-Apr-2013	sub2320	2320	  1	  0	143	  4	  2	  4	  2	  3	  1	  2	  1	0.34416	  1	0.60000	  0	 24	 62	 63	  1	
20-Apr-2013	sub2320	2320	  1	  0	144	  4	  2	  1	  6	  2	  1	  1	  1	0.39519	  1	0.60000	  0	 21	 60	 61	  1	
20-Apr-2013	sub2320	2320	  1	  0	145	  4	  2	  4	  2	  3	  0	  2	  0	0.48078	  1	0.60000	  0	 24	 64	 89	  1	
20-Apr-2013	sub2320	2320	  1	  0	146	  4	  2	  4	  2	  3	  1	  2	  1	0.39028	  1	0.60000	  0	 24	 62	 63	  1	
20-Apr-2013	sub2320	2320	  1	  0	147	  4	  2	  4	  2	  3	  1	  2	  1	0.38176	  1	0.60000	  0	 24	 62	 63	  1	
20-Apr-2013	sub2320	2320	  1	  0	148	  4	  2	  4	  2	  3	  1	  2	  1	0.40377	  1	0.60000	  0	 24	 62	 63	  1	
20-Apr-2013	sub2320	2320	  1	  0	149	  4	  2	  2	  3	  5	  1	  2	  1	0.46320	  1	0.60000	  0	 22	 60	 61	  1	
20-Apr-2013	sub2320	2320	  1	  0	150	  4	  2	  6	  1	  2	  1	  2	  1	0.39870	  1	0.60000	  0	 26	 65	 66	  1	
20-Apr-2013	sub2320	2320	  1	  0	  1	  5	  1	  4	  6	  3	  1	  1	  0	0.64262	  0	0.60000	  1	 14	 42	 51	  0	
20-Apr-2013	sub2320	2320	  1	  0	  2	  5	  1	  4	  6	  3	  1	  1	  0	0.24772	  0	0.90000	  0	 14	 42	 43	  1	
20-Apr-2013	sub2320	2320	  1	  0	  3	  5	  1	  2	  4	  5	  1	  1	  0	0.21748	  0	0.90000	  0	 12	 40	 41	  1	
20-Apr-2013	sub2320	2320	  1	  0	  4	  5	  1	  1	  2	  5	  1	  1	  1	0.33836	  1	0.90000	  0	 11	 30	 31	  1	
20-Apr-2013	sub2320	2320	  1	  0	  5	  5	  1	  2	  4	  5	  1	  2	  1	0.46484	  1	0.90000	  0	 12	 30	 31	  1	
20-Apr-2013	sub2320	2320	  1	  0	  6	  5	  1	  6	  3	  2	  1	  2	  1	0.38961	  1	0.90000	  0	 16	 35	 36	  1	
20-Apr-2013	sub2320	2320	  1	  0	  7	  5	  1	  3	  5	  5	  0	  2	  1	0.43996	  0	0.90000	  0	 13	 44	 39	  1	
20-Apr-2013	sub2320	2320	  1	  0	  8	  5	  1	  3	  5	  5	  1	  2	  0	0.36224	  0	0.90000	  0	 13	 42	 43	  1	
20-Apr-2013	sub2320	2320	  1	  0	  9	  5	  1	  5	  1	  3	  0	  2	  1	0.35302	  0	0.90000	  0	 15	 47	 38	  1	
20-Apr-2013	sub2320	2320	  1	  0	 10	  5	  1	  3	  5	  5	  1	  2	  0	0.35807	  0	0.90000	  0	 13	 42	 43	  1	
20-Apr-2013	sub2320	2320	  1	  0	 11	  5	  1	  2	  4	  5	  1	  2	  1	0.47455	  1	0.90000	  0	 12	 30	 31	  1	
20-Apr-2013	sub2320	2320	  1	  0	 12	  5	  1	  2	  4	  5	  1	  2	  1	0.35727	  1	0.90000	  0	 12	 30	 31	  1	
20-Apr-2013	sub2320	2320	  1	  0	 13	  5	  1	  5	  1	  3	  0	  1	  0	0.40595	  1	0.90000	  0	 15	 37	 48	  1	
20-Apr-2013	sub2320	2320	  1	  0	 14	  5	  1	  1	  2	  5	  1	  2	  0	0.41844	  0	0.90000	  0	 11	 40	 41	  1	
20-Apr-2013	sub2320	2320	  1	  0	 15	  5	  1	  6	  3	  2	  1	  2	  1	0.34879	  1	0.90000	  0	 16	 35	 36	  1	
20-Apr-2013	sub2320	2320	  1	  0	 16	  5	  1	  6	  3	  2	  0	  2	  0	0.34031	  1	0.80000	  0	 16	 37	 48	  1	
20-Apr-2013	sub2320	2320	  1	  0	 17	  5	  1	  4	  6	  3	  1	  2	  1	0.37215	  1	0.80000	  0	 14	 32	 33	  1	
20-Apr-2013	sub2320	2320	  1	  0	 18	  5	  1	  1	  2	  5	  1	  2	  0	0.36281	  0	0.70000	  0	 11	 40	 41	  1	
20-Apr-2013	sub2320	2320	  1	  0	 19	  5	  1	  5	  1	  3	  1	  2	  0	0.47628	  0	0.70000	  0	 15	 45	 46	  1	
20-Apr-2013	sub2320	2320	  1	  0	 20	  5	  1	  3	  5	  5	  1	  2	  0	0.35623	  0	0.70000	  0	 13	 42	 43	  1	
20-Apr-2013	sub2320	2320	  1	  0	 21	  5	  1	  5	  1	  3	  1	  2	  0	0.47776	  0	0.60000	  0	 15	 45	 46	  1	
20-Apr-2013	sub2320	2320	  1	  0	 22	  5	  1	  6	  3	  2	  1	  2	  1	0.37969	  1	0.60000	  0	 16	 35	 36	  1	
20-Apr-2013	sub2320	2320	  1	  0	 23	  5	  1	  3	  5	  5	  1	  1	  1	0.45186	  1	0.60000	  0	 13	 32	 33	  1	
20-Apr-2013	sub2320	2320	  1	  0	 24	  5	  1	  3	  5	  5	  1	  1	  1	0.45547	  1	0.60000	  0	 13	 32	 33	  1	
20-Apr-2013	sub2320	2320	  1	  0	 25	  5	  1	  5	  1	  3	  0	  2	  1	0.46774	  0	0.60000	  0	 15	 47	 38	  1	
20-Apr-2013	sub2320	2320	  1	  0	 26	  5	  1	  6	  3	  2	  1	  2	  1	0.45612	  1	0.50000	  0	 16	 35	 36	  1	
20-Apr-2013	sub2320	2320	  1	  0	 27	  5	  1	  1	  2	  5	  1	  1	  1	0.47030	  1	0.50000	  0	 11	 30	 31	  1	
20-Apr-2013	sub2320	2320	  1	  0	 28	  5	  1	  1	  2	  5	  1	  1	  1	0.37330	  1	0.50000	  0	 11	 30	 31	  1	
20-Apr-2013	sub2320	2320	  1	  0	 29	  5	  1	  4	  6	  3	  1	  1	  0	0.66528	  0	0.50000	  1	 14	 42	 51	  0	
20-Apr-2013	sub2320	2320	  1	  0	 30	  5	  1	  4	  6	  3	  0	  2	  0	0.39241	  1	0.80000	  0	 14	 34	 49	  1	
20-Apr-2013	sub2320	2320	  1	  0	 31	  5	  1	  4	  6	  3	  1	  2	  1	0.34770	  1	0.80000	  0	 14	 32	 33	  1	
20-Apr-2013	sub2320	2320	  1	  0	 32	  5	  1	  1	  2	  5	  1	  2	  0	0.42245	  0	0.80000	  0	 11	 40	 41	  1	
20-Apr-2013	sub2320	2320	  1	  0	 33	  5	  1	  4	  6	  3	  1	  1	  0	0.40504	  0	0.80000	  0	 14	 42	 43	  1	
20-Apr-2013	sub2320	2320	  1	  0	 34	  5	  1	  4	  6	  3	  1	  1	  0	0.29169	  0	0.80000	  0	 14	 42	 43	  1	
20-Apr-2013	sub2320	2320	  1	  0	 35	  5	  1	  2	  4	  5	  1	  1	  0	0.51123	  0	0.70000	  0	 12	 40	 41	  0	
20-Apr-2013	sub2320	2320	  1	  0	 36	  5	  1	  1	  2	  5	  1	  1	  1	0.45642	  1	0.70000	  0	 11	 30	 31	  1	
20-Apr-2013	sub2320	2320	  1	  0	 37	  5	  1	  6	  3	  2	  0	  2	  0	0.43439	  1	0.70000	  0	 16	 37	 48	  1	
20-Apr-2013	sub2320	2320	  1	  0	 38	  5	  1	  2	  4	  5	  1	  2	  1	0.41400	  1	0.70000	  0	 12	 30	 31	  1	
20-Apr-2013	sub2320	2320	  1	  0	 39	  5	  1	  3	  5	  5	  1	  2	  0	0.36865	  0	0.70000	  0	 13	 42	 43	  1	
20-Apr-2013	sub2320	2320	  1	  0	 40	  5	  1	  2	  4	  5	  1	  2	  1	0.48763	  1	0.70000	  0	 12	 30	 31	  1	
20-Apr-2013	sub2320	2320	  1	  0	 41	  5	  1	  5	  1	  3	  0	  1	  0	0.49811	  1	0.60000	  0	 15	 37	 48	  1	
20-Apr-2013	sub2320	2320	  1	  0	 42	  5	  1	  2	  4	  5	  1	  2	  1	0.48389	  1	0.60000	  0	 12	 30	 31	  1	
20-Apr-2013	sub2320	2320	  1	  0	 43	  5	  1	  3	  5	  5	  0	  2	  1	0.35429	  0	0.60000	  0	 13	 44	 39	  1	
20-Apr-2013	sub2320	2320	  1	  0	 44	  5	  1	  3	  5	  5	  0	  1	  0	0.48289	  1	0.60000	  0	 13	 34	 49	  1	
20-Apr-2013	sub2320	2320	  1	  0	 45	  5	  1	  1	  2	  5	  1	  1	  1	0.43745	  1	0.60000	  0	 11	 30	 31	  1	
20-Apr-2013	sub2320	2320	  1	  0	 46	  5	  1	  1	  2	  5	  1	  1	  1	0.38443	  1	0.60000	  0	 11	 30	 31	  1	
20-Apr-2013	sub2320	2320	  1	  0	 47	  5	  1	  6	  3	  2	  0	  2	  0	0.39935	  1	0.60000	  0	 16	 37	 48	  1	
20-Apr-2013	sub2320	2320	  1	  0	 48	  5	  1	  6	  3	  2	  1	  2	  1	0.30736	  1	0.60000	  0	 16	 35	 36	  1	
20-Apr-2013	sub2320	2320	  1	  0	 49	  5	  1	  1	  2	  5	  1	  2	  0	0.39843	  0	0.60000	  0	 11	 40	 41	  1	
20-Apr-2013	sub2320	2320	  1	  0	 50	  5	  1	  6	  3	  2	  0	  2	  0	0.35094	  1	0.60000	  0	 16	 37	 48	  1	
20-Apr-2013	sub2320	2320	  1	  0	 51	  5	  1	  3	  5	  5	  1	  1	  1	0.45909	  1	0.50000	  0	 13	 32	 33	  1	
20-Apr-2013	sub2320	2320	  1	  0	 52	  5	  1	  2	  4	  5	  1	  2	  1	0.38622	  1	0.50000	  0	 12	 30	 31	  1	
20-Apr-2013	sub2320	2320	  1	  0	 53	  5	  1	  6	  3	  2	  1	  2	  1	0.28198	  1	0.50000	  0	 16	 35	 36	  1	
20-Apr-2013	sub2320	2320	  1	  0	 54	  5	  1	  3	  5	  5	  1	  1	  1	0.53332	  1	0.50000	  1	 13	 32	 51	  0	
20-Apr-2013	sub2320	2320	  1	  0	 55	  5	  1	  4	  6	  3	  1	  2	  1	0.54563	  1	0.70000	  0	 14	 32	 33	  0	
20-Apr-2013	sub2320	2320	  1	  0	 56	  5	  1	  4	  6	  3	  1	  2	  1	0.39719	  1	0.70000	  0	 14	 32	 33	  1	
20-Apr-2013	sub2320	2320	  1	  0	 57	  5	  1	  3	  5	  5	  1	  2	  0	0.44930	  0	0.70000	  0	 13	 42	 43	  1	
20-Apr-2013	sub2320	2320	  1	  0	 58	  5	  1	  5	  1	  3	  0	  2	  1	0.47814	  0	0.70000	  0	 15	 47	 38	  1	
20-Apr-2013	sub2320	2320	  1	  0	 59	  5	  1	  4	  6	  3	  0	  2	  0	0.40139	  1	0.70000	  0	 14	 34	 49	  1	
20-Apr-2013	sub2320	2320	  1	  0	 60	  5	  1	  1	  2	  5	  1	  2	  0	0.54557	  0	0.70000	  0	 11	 40	 41	  0	
20-Apr-2013	sub2320	2320	  1	  0	 61	  5	  1	  3	  5	  5	  1	  2	  0	0.41237	  0	0.60000	  0	 13	 42	 43	  1	
20-Apr-2013	sub2320	2320	  1	  0	 62	  5	  1	  2	  4	  5	  1	  2	  1	0.46718	  1	0.60000	  0	 12	 30	 31	  1	
20-Apr-2013	sub2320	2320	  1	  0	 63	  5	  1	  6	  3	  2	  0	  2	  0	0.38258	  1	0.60000	  0	 16	 37	 48	  1	
20-Apr-2013	sub2320	2320	  1	  0	 64	  5	  1	  6	  3	  2	  0	  2	  0	0.36734	  1	0.60000	  0	 16	 37	 48	  1	
20-Apr-2013	sub2320	2320	  1	  0	 65	  5	  1	  2	  4	  5	  1	  2	  1	0.38331	  1	0.60000	  0	 12	 30	 31	  1	
20-Apr-2013	sub2320	2320	  1	  0	 66	  5	  1	  5	  1	  3	  1	  1	  1	0.53234	  1	0.60000	  0	 15	 35	 36	  0	
20-Apr-2013	sub2320	2320	  1	  0	 67	  5	  1	  4	  6	  3	  1	  2	  1	0.39173	  1	0.60000	  0	 14	 32	 33	  1	
20-Apr-2013	sub2320	2320	  1	  0	 68	  5	  1	  5	  1	  3	  1	  2	  0	0.34649	  0	0.60000	  0	 15	 45	 46	  1	
20-Apr-2013	sub2320	2320	  1	  0	 69	  5	  1	  5	  1	  3	  0	  1	  0	0.41096	  1	0.60000	  0	 15	 37	 48	  1	
20-Apr-2013	sub2320	2320	  1	  0	 70	  5	  1	  5	  1	  3	  1	  1	  1	0.49704	  1	0.60000	  0	 15	 35	 36	  1	
20-Apr-2013	sub2320	2320	  1	  0	 71	  5	  1	  1	  2	  5	  1	  2	  0	0.45119	  0	0.60000	  0	 11	 40	 41	  1	
20-Apr-2013	sub2320	2320	  1	  0	 72	  5	  1	  2	  4	  5	  1	  2	  1	0.48939	  1	0.60000	  0	 12	 30	 31	  1	
20-Apr-2013	sub2320	2320	  1	  0	 73	  5	  1	  2	  4	  5	  1	  2	  1	0.40136	  1	0.60000	  0	 12	 30	 31	  1	
20-Apr-2013	sub2320	2320	  1	  0	 74	  5	  1	  5	  1	  3	  1	  1	  1	0.39751	  1	0.60000	  0	 15	 35	 36	  1	
20-Apr-2013	sub2320	2320	  1	  0	 75	  5	  1	  6	  3	  2	  1	  2	  1	0.41624	  1	0.60000	  0	 16	 35	 36	  1	
20-Apr-2013	sub2320	2320	  1	  0	 76	  5	  2	  3	  5	  5	  0	  1	  0	0.67219	  1	0.50000	  1	 23	 64	 51	  0	
20-Apr-2013	sub2320	2320	  1	  0	 77	  5	  2	  4	  6	  3	  0	  2	  0	0.58617	  1	0.70000	  0	 24	 64	 89	  0	
20-Apr-2013	sub2320	2320	  1	  0	 78	  5	  2	  3	  5	  5	  1	  1	  1	0.53823	  1	0.70000	  0	 23	 62	 63	  0	
20-Apr-2013	sub2320	2320	  1	  0	 79	  5	  2	  5	  1	  3	  0	  1	  0	0.38939	  1	0.70000	  0	 25	 67	 88	  1	
20-Apr-2013	sub2320	2320	  1	  0	 80	  5	  2	  6	  3	  2	  1	  2	  1	0.41992	  1	0.70000	  0	 26	 65	 66	  1	
20-Apr-2013	sub2320	2320	  1	  0	 81	  5	  2	  2	  4	  5	  1	  1	  0	0.33468	  0	0.60000	  0	 22	 80	 81	  1	
20-Apr-2013	sub2320	2320	  1	  0	 82	  5	  2	  5	  1	  3	  0	  1	  0	0.43879	  1	0.60000	  0	 25	 67	 88	  1	
20-Apr-2013	sub2320	2320	  1	  0	 83	  5	  2	  1	  2	  5	  1	  1	  1	0.58856	  1	0.60000	  0	 21	 60	 61	  0	
20-Apr-2013	sub2320	2320	  1	  0	 84	  5	  2	  5	  1	  3	  0	  1	  0	0.36381	  1	0.60000	  0	 25	 67	 88	  1	
20-Apr-2013	sub2320	2320	  1	  0	 85	  5	  2	  1	  2	  5	  1	  1	  1	0.42676	  1	0.60000	  0	 21	 60	 61	  1	
20-Apr-2013	sub2320	2320	  1	  0	 86	  5	  2	  2	  4	  5	  1	  2	  1	0.53079	  1	0.60000	  0	 22	 60	 61	  0	
20-Apr-2013	sub2320	2320	  1	  0	 87	  5	  2	  1	  2	  5	  1	  1	  1	0.43823	  1	0.60000	  0	 21	 60	 61	  1	
20-Apr-2013	sub2320	2320	  1	  0	 88	  5	  2	  1	  2	  5	  1	  1	  1	0.40736	  1	0.60000	  0	 21	 60	 61	  1	
20-Apr-2013	sub2320	2320	  1	  0	 89	  5	  2	  1	  2	  5	  1	  1	  1	0.40703	  1	0.60000	  0	 21	 60	 61	  1	
20-Apr-2013	sub2320	2320	  1	  0	 90	  5	  2	  4	  6	  3	  1	  2	  1	0.56304	  1	0.60000	  0	 24	 62	 63	  0	
20-Apr-2013	sub2320	2320	  1	  0	 91	  5	  2	  5	  1	  3	  0	  1	  0	0.46868	  1	0.60000	  0	 25	 67	 88	  1	
20-Apr-2013	sub2320	2320	  1	  0	 92	  5	  2	  6	  3	  2	  0	  2	  0	0.43631	  1	0.60000	  0	 26	 67	 88	  1	
20-Apr-2013	sub2320	2320	  1	  0	 93	  5	  2	  5	  1	  3	  0	  2	  1	0.33633	  0	0.60000	  0	 25	 87	 68	  1	
20-Apr-2013	sub2320	2320	  1	  0	 94	  5	  2	  3	  5	  5	  1	  2	  0	0.43646	  0	0.60000	  0	 23	 82	 83	  1	
20-Apr-2013	sub2320	2320	  1	  0	 95	  5	  2	  3	  5	  5	  1	  1	  1	0.36769	  1	0.60000	  0	 23	 62	 63	  1	
20-Apr-2013	sub2320	2320	  1	  0	 96	  5	  2	  2	  4	  5	  1	  2	  1	0.50048	  1	0.60000	  0	 22	 60	 61	  0	
20-Apr-2013	sub2320	2320	  1	  0	 97	  5	  2	  5	  1	  3	  0	  1	  0	0.41760	  1	0.60000	  0	 25	 67	 88	  1	
20-Apr-2013	sub2320	2320	  1	  0	 98	  5	  2	  4	  6	  3	  1	  1	  0	0.44361	  0	0.60000	  0	 24	 82	 83	  1	
20-Apr-2013	sub2320	2320	  1	  0	 99	  5	  2	  4	  6	  3	  1	  2	  1	0.41924	  1	0.60000	  0	 24	 62	 63	  1	
20-Apr-2013	sub2320	2320	  1	  0	100	  5	  2	  1	  2	  5	  1	  1	  1	0.47350	  1	0.60000	  0	 21	 60	 61	  1	
20-Apr-2013	sub2320	2320	  1	  0	101	  5	  2	  6	  3	  2	  1	  2	  1	0.38409	  1	0.50000	  0	 26	 65	 66	  1	
20-Apr-2013	sub2320	2320	  1	  0	102	  5	  2	  6	  3	  2	  0	  2	  0	0.31550	  1	0.50000	  0	 26	 67	 88	  1	
20-Apr-2013	sub2320	2320	  1	  0	103	  5	  2	  1	  2	  5	  1	  2	  0	0.36928	  0	0.50000	  0	 21	 80	 81	  1	
20-Apr-2013	sub2320	2320	  1	  0	104	  5	  2	  1	  2	  5	  1	  1	  1	0.36229	  1	0.50000	  0	 21	 60	 61	  1	
20-Apr-2013	sub2320	2320	  1	  0	105	  5	  2	  6	  3	  2	  1	  2	  1	0.40511	  1	0.50000	  0	 26	 65	 66	  1	
20-Apr-2013	sub2320	2320	  1	  0	106	  5	  2	  5	  1	  3	  0	  1	  0	0.42286	  1	0.50000	  0	 25	 67	 88	  1	
20-Apr-2013	sub2320	2320	  1	  0	107	  5	  2	  3	  5	  5	  1	  2	  0	0.54977	  0	0.50000	  1	 23	 82	 51	  0	
20-Apr-2013	sub2320	2320	  1	  0	108	  5	  2	  5	  1	  3	  0	  2	  1	0.50828	  0	0.60000	  0	 25	 87	 68	  0	
20-Apr-2013	sub2320	2320	  1	  0	109	  5	  2	  2	  4	  5	  1	  2	  1	0.43816	  1	0.60000	  0	 22	 60	 61	  1	
20-Apr-2013	sub2320	2320	  1	  0	110	  5	  2	  4	  6	  3	  1	  2	  1	0.42892	  1	0.60000	  0	 24	 62	 63	  1	
20-Apr-2013	sub2320	2320	  1	  0	111	  5	  2	  6	  3	  2	  0	  2	  0	0.28568	  1	0.60000	  0	 26	 67	 88	  1	
20-Apr-2013	sub2320	2320	  1	  0	112	  5	  2	  4	  6	  3	  1	  2	  1	0.36273	  1	0.60000	  0	 24	 62	 63	  1	
20-Apr-2013	sub2320	2320	  1	  0	113	  5	  2	  5	  1	  3	  0	  2	  1	0.34442	  0	0.60000	  0	 25	 87	 68	  1	
20-Apr-2013	sub2320	2320	  1	  0	114	  5	  2	  6	  3	  2	  1	  2	  1	0.33967	  1	0.60000	  0	 26	 65	 66	  1	
20-Apr-2013	sub2320	2320	  1	  0	115	  5	  2	  5	  1	  3	  0	  2	  1	0.33334	  0	0.60000	  0	 25	 87	 68	  1	
20-Apr-2013	sub2320	2320	  1	  0	116	  5	  2	  3	  5	  5	  1	  2	  0	0.34983	  0	0.60000	  0	 23	 82	 83	  1	
20-Apr-2013	sub2320	2320	  1	  0	117	  5	  2	  6	  3	  2	  1	  2	  1	0.29537	  1	0.60000	  0	 26	 65	 66	  1	
20-Apr-2013	sub2320	2320	  1	  0	118	  5	  2	  2	  4	  5	  1	  2	  1	0.52928	  1	0.60000	  0	 22	 60	 61	  0	
20-Apr-2013	sub2320	2320	  1	  0	119	  5	  2	  4	  6	  3	  1	  2	  1	0.37866	  1	0.60000	  0	 24	 62	 63	  1	
20-Apr-2013	sub2320	2320	  1	  0	120	  5	  2	  1	  2	  5	  1	  1	  1	0.34713	  1	0.60000	  0	 21	 60	 61	  1	
20-Apr-2013	sub2320	2320	  1	  0	121	  5	  2	  1	  2	  5	  1	  1	  1	0.36055	  1	0.60000	  0	 21	 60	 61	  1	
20-Apr-2013	sub2320	2320	  1	  0	122	  5	  2	  3	  5	  5	  1	  1	  1	0.40691	  1	0.60000	  0	 23	 62	 63	  1	
20-Apr-2013	sub2320	2320	  1	  0	123	  5	  2	  6	  3	  2	  0	  2	  0	0.44097	  1	0.60000	  0	 26	 67	 88	  1	
20-Apr-2013	sub2320	2320	  1	  0	124	  5	  2	  1	  2	  5	  1	  1	  1	0.45533	  1	0.60000	  0	 21	 60	 61	  1	
20-Apr-2013	sub2320	2320	  1	  0	125	  5	  2	  2	  4	  5	  1	  1	  0	0.32941	  0	0.60000	  0	 22	 80	 81	  1	
20-Apr-2013	sub2320	2320	  1	  0	126	  5	  2	  4	  6	  3	  1	  2	  1	0.35065	  1	0.50000	  0	 24	 62	 63	  1	
20-Apr-2013	sub2320	2320	  1	  0	127	  5	  2	  6	  3	  2	  1	  2	  1	0.32443	  1	0.50000	  0	 26	 65	 66	  1	
20-Apr-2013	sub2320	2320	  1	  0	128	  5	  2	  2	  4	  5	  1	  2	  1	0.23483	  1	0.50000	  0	 22	 60	 61	  1	
20-Apr-2013	sub2320	2320	  1	  0	129	  5	  2	  1	  2	  5	  1	  2	  0	0.24321	  0	0.50000	  0	 21	 80	 81	  1	
20-Apr-2013	sub2320	2320	  1	  0	130	  5	  2	  4	  6	  3	  1	  2	  1	0.34083	  1	0.50000	  0	 24	 62	 63	  1	
20-Apr-2013	sub2320	2320	  1	  0	131	  5	  2	  5	  1	  3	  0	  2	  1	0.25073	  0	0.50000	  0	 25	 87	 68	  1	
20-Apr-2013	sub2320	2320	  1	  0	132	  5	  2	  2	  4	  5	  1	  2	  1	0.33554	  1	0.50000	  0	 22	 60	 61	  1	
20-Apr-2013	sub2320	2320	  1	  0	133	  5	  2	  2	  4	  5	  1	  2	  1	0.32573	  1	0.50000	  0	 22	 60	 61	  1	
20-Apr-2013	sub2320	2320	  1	  0	134	  5	  2	  5	  1	  3	  0	  2	  1	0.44547	  0	0.50000	  0	 25	 87	 68	  1	
20-Apr-2013	sub2320	2320	  1	  0	135	  5	  2	  3	  5	  5	  0	  1	  0	0.47854	  1	0.50000	  0	 23	 64	 89	  1	
20-Apr-2013	sub2320	2320	  1	  0	136	  5	  2	  2	  4	  5	  1	  2	  1	0.37096	  1	0.50000	  0	 22	 60	 61	  1	
20-Apr-2013	sub2320	2320	  1	  0	137	  5	  2	  4	  6	  3	  1	  1	  0	0.43250	  0	0.50000	  0	 24	 82	 83	  1	
20-Apr-2013	sub2320	2320	  1	  0	138	  5	  2	  3	  5	  5	  1	  2	  0	0.45258	  0	0.50000	  0	 23	 82	 83	  1	
20-Apr-2013	sub2320	2320	  1	  0	139	  5	  2	  4	  6	  3	  1	  2	  1	0.50770	  1	0.50000	  1	 24	 62	 51	  0	
20-Apr-2013	sub2320	2320	  1	  0	140	  5	  2	  3	  5	  5	  1	  1	  1	0.43206	  1	0.60000	  0	 23	 62	 63	  1	
20-Apr-2013	sub2320	2320	  1	  0	141	  5	  2	  4	  6	  3	  0	  2	  0	0.39487	  1	0.60000	  0	 24	 64	 89	  1	
20-Apr-2013	sub2320	2320	  1	  0	142	  5	  2	  6	  3	  2	  0	  2	  0	0.36645	  1	0.60000	  0	 26	 67	 88	  1	
20-Apr-2013	sub2320	2320	  1	  0	143	  5	  2	  3	  5	  5	  1	  2	  0	0.38474	  0	0.60000	  0	 23	 82	 83	  1	
20-Apr-2013	sub2320	2320	  1	  0	144	  5	  2	  2	  4	  5	  1	  2	  1	0.42037	  1	0.60000	  0	 22	 60	 61	  1	
20-Apr-2013	sub2320	2320	  1	  0	145	  5	  2	  6	  3	  2	  0	  1	  1	0.32302	  0	0.60000	  0	 26	 87	 68	  1	
20-Apr-2013	sub2320	2320	  1	  0	146	  5	  2	  1	  2	  5	  1	  1	  1	0.57172	  1	0.60000	  0	 21	 60	 61	  0	
20-Apr-2013	sub2320	2320	  1	  0	147	  5	  2	  2	  4	  5	  1	  2	  1	0.48376	  1	0.60000	  0	 22	 60	 61	  1	
20-Apr-2013	sub2320	2320	  1	  0	148	  5	  2	  4	  6	  3	  0	  2	  0	0.53384	  1	0.60000	  0	 24	 64	 89	  0	
20-Apr-2013	sub2320	2320	  1	  0	149	  5	  2	  3	  5	  5	  1	  1	  1	0.43384	  1	0.60000	  0	 23	 62	 63	  1	
20-Apr-2013	sub2320	2320	  1	  0	150	  5	  2	  5	  1	  3	  0	  2	  1	0.38133	  0	0.60000	  0	 25	 87	 68	  1	
20-Apr-2013	sub2320	2320	  1	  0	  1	  6	  1	  3	  3	  6	  1	  1	  1	0.60089	  1	0.60000	  1	 13	 32	 51	  0	
20-Apr-2013	sub2320	2320	  1	  0	  2	  6	  1	  6	  1	  4	  0	  1	  1	0.31466	  0	0.90000	  0	 16	 47	 38	  1	
20-Apr-2013	sub2320	2320	  1	  0	  3	  6	  1	  5	  4	  2	  1	  1	  1	0.35353	  1	0.90000	  0	 15	 35	 36	  1	
20-Apr-2013	sub2320	2320	  1	  0	  4	  6	  1	  2	  2	  2	  1	  1	  0	0.33756	  0	0.90000	  0	 12	 40	 41	  1	
20-Apr-2013	sub2320	2320	  1	  0	  5	  6	  1	  1	  5	  2	  1	  1	  1	0.13878	  1	0.90000	  0	 11	 30	 31	  1	
20-Apr-2013	sub2320	2320	  1	  0	  6	  6	  1	  2	  2	  2	  1	  1	  0	0.29318	  0	0.90000	  0	 12	 40	 41	  1	
20-Apr-2013	sub2320	2320	  1	  0	  7	  6	  1	  4	  6	  5	  1	  2	  1	0.43273	  1	0.90000	  0	 14	 32	 33	  1	
20-Apr-2013	sub2320	2320	  1	  0	  8	  6	  1	  3	  3	  6	  1	  1	  1	0.42489	  1	0.90000	  0	 13	 32	 33	  1	
20-Apr-2013	sub2320	2320	  1	  0	  9	  6	  1	  2	  2	  2	  1	  1	  0	0.39578	  0	0.90000	  0	 12	 40	 41	  1	
20-Apr-2013	sub2320	2320	  1	  0	 10	  6	  1	  5	  4	  2	  1	  1	  1	0.23516	  1	0.90000	  0	 15	 35	 36	  1	
20-Apr-2013	sub2320	2320	  1	  0	 11	  6	  1	  1	  5	  2	  1	  1	  1	0.34117	  1	0.90000	  0	 11	 30	 31	  1	
20-Apr-2013	sub2320	2320	  1	  0	 12	  6	  1	  4	  6	  5	  1	  1	  0	0.37451	  0	0.90000	  0	 14	 42	 43	  1	
20-Apr-2013	sub2320	2320	  1	  0	 13	  6	  1	  6	  1	  4	  1	  1	  0	0.43684	  0	0.90000	  0	 16	 45	 46	  1	
20-Apr-2013	sub2320	2320	  1	  0	 14	  6	  1	  3	  3	  6	  1	  2	  0	0.44593	  0	0.90000	  0	 13	 42	 43	  1	
20-Apr-2013	sub2320	2320	  1	  0	 15	  6	  1	  4	  6	  5	  1	  2	  1	0.36073	  1	0.90000	  0	 14	 32	 33	  1	
20-Apr-2013	sub2320	2320	  1	  0	 16	  6	  1	  2	  2	  2	  1	  1	  0	0.53800	  0	0.80000	  0	 12	 40	 41	  0	
20-Apr-2013	sub2320	2320	  1	  0	 17	  6	  1	  4	  6	  5	  0	  2	  0	0.38797	  1	0.80000	  0	 14	 34	 49	  1	
20-Apr-2013	sub2320	2320	  1	  0	 18	  6	  1	  3	  3	  6	  1	  1	  1	0.50724	  1	0.70000	  0	 13	 32	 33	  0	
20-Apr-2013	sub2320	2320	  1	  0	 19	  6	  1	  6	  1	  4	  0	  2	  0	0.47483	  1	0.70000	  0	 16	 37	 48	  1	
20-Apr-2013	sub2320	2320	  1	  0	 20	  6	  1	  2	  2	  2	  1	  2	  1	0.48597	  1	0.70000	  0	 12	 30	 31	  1	
20-Apr-2013	sub2320	2320	  1	  0	 21	  6	  1	  5	  4	  2	  0	  2	  1	0.35353	  0	0.60000	  0	 15	 47	 38	  1	
20-Apr-2013	sub2320	2320	  1	  0	 22	  6	  1	  4	  6	  5	  1	  2	  1	0.43935	  1	0.60000	  0	 14	 32	 33	  1	
20-Apr-2013	sub2320	2320	  1	  0	 23	  6	  1	  5	  4	  2	  1	  1	  1	0.49561	  1	0.60000	  0	 15	 35	 36	  1	
20-Apr-2013	sub2320	2320	  1	  0	 24	  6	  1	  2	  2	  2	  1	  2	  1	0.47656	  1	0.60000	  0	 12	 30	 31	  1	
20-Apr-2013	sub2320	2320	  1	  0	 25	  6	  1	  2	  2	  2	  1	  2	  1	0.39707	  1	0.60000	  0	 12	 30	 31	  1	
20-Apr-2013	sub2320	2320	  1	  0	 26	  6	  1	  3	  3	  6	  1	  1	  1	0.49264	  1	0.50000	  0	 13	 32	 33	  1	
20-Apr-2013	sub2320	2320	  1	  0	 27	  6	  1	  6	  1	  4	  0	  1	  1	0.49031	  0	0.50000	  0	 16	 47	 38	  1	
20-Apr-2013	sub2320	2320	  1	  0	 28	  6	  1	  5	  4	  2	  1	  1	  1	0.52909	  1	0.50000	  1	 15	 35	 51	  0	
20-Apr-2013	sub2320	2320	  1	  0	 29	  6	  1	  5	  4	  2	  1	  1	  1	0.40663	  1	0.90000	  0	 15	 35	 36	  1	
20-Apr-2013	sub2320	2320	  1	  0	 30	  6	  1	  3	  3	  6	  1	  1	  1	0.42877	  1	0.80000	  0	 13	 32	 33	  1	
20-Apr-2013	sub2320	2320	  1	  0	 31	  6	  1	  5	  4	  2	  1	  1	  1	0.35136	  1	0.80000	  0	 15	 35	 36	  1	
20-Apr-2013	sub2320	2320	  1	  0	 32	  6	  1	  2	  2	  2	  1	  1	  0	0.32209	  0	0.80000	  0	 12	 40	 41	  1	
20-Apr-2013	sub2320	2320	  1	  0	 33	  6	  1	  3	  3	  6	  1	  1	  1	0.34818	  1	0.80000	  0	 13	 32	 33	  1	
20-Apr-2013	sub2320	2320	  1	  0	 34	  6	  1	  4	  6	  5	  1	  1	  0	0.50055	  0	0.80000	  0	 14	 42	 43	  0	
20-Apr-2013	sub2320	2320	  1	  0	 35	  6	  1	  1	  5	  2	  1	  1	  1	0.48340	  1	0.70000	  0	 11	 30	 31	  1	
20-Apr-2013	sub2320	2320	  1	  0	 36	  6	  1	  6	  1	  4	  1	  1	  0	0.56578	  0	0.70000	  0	 16	 45	 46	  0	
20-Apr-2013	sub2320	2320	  1	  0	 37	  6	  1	  4	  6	  5	  0	  1	  1	0.44748	  0	0.70000	  0	 14	 44	 39	  1	
20-Apr-2013	sub2320	2320	  1	  0	 38	  6	  1	  5	  4	  2	  0	  1	  0	0.41709	  1	0.70000	  0	 15	 37	 48	  1	
20-Apr-2013	sub2320	2320	  1	  0	 39	  6	  1	  6	  1	  4	  0	  1	  1	0.40686	  0	0.70000	  0	 16	 47	 38	  1	
20-Apr-2013	sub2320	2320	  1	  0	 40	  6	  1	  1	  5	  2	  1	  1	  1	0.39229	  1	0.70000	  0	 11	 30	 31	  1	
20-Apr-2013	sub2320	2320	  1	  0	 41	  6	  1	  2	  2	  2	  1	  1	  0	0.40894	  0	0.60000	  0	 12	 40	 41	  1	
20-Apr-2013	sub2320	2320	  1	  0	 42	  6	  1	  5	  4	  2	  0	  2	  1	0.38222	  0	0.60000	  0	 15	 47	 38	  1	
20-Apr-2013	sub2320	2320	  1	  0	 43	  6	  1	  3	  3	  6	  1	  1	  1	0.50813	  1	0.60000	  0	 13	 32	 33	  0	
20-Apr-2013	sub2320	2320	  1	  0	 44	  6	  1	  5	  4	  2	  0	  2	  1	0.46751	  0	0.60000	  0	 15	 47	 38	  1	
20-Apr-2013	sub2320	2320	  1	  0	 45	  6	  1	  4	  6	  5	  1	  1	  0	0.52658	  0	0.60000	  0	 14	 42	 43	  0	
20-Apr-2013	sub2320	2320	  1	  0	 46	  6	  1	  1	  5	  2	  1	  1	  1	0.50021	  1	0.60000	  0	 11	 30	 31	  1	
20-Apr-2013	sub2320	2320	  1	  0	 47	  6	  1	  1	  5	  2	  1	  1	  1	0.35088	  1	0.60000	  0	 11	 30	 31	  1	
20-Apr-2013	sub2320	2320	  1	  0	 48	  6	  1	  1	  5	  2	  1	  1	  1	0.38686	  1	0.60000	  0	 11	 30	 31	  1	
20-Apr-2013	sub2320	2320	  1	  0	 49	  6	  1	  1	  5	  2	  1	  1	  1	0.31517	  1	0.60000	  0	 11	 30	 31	  1	
20-Apr-2013	sub2320	2320	  1	  0	 50	  6	  1	  6	  1	  4	  1	  1	  0	0.39060	  0	0.60000	  0	 16	 45	 46	  1	
20-Apr-2013	sub2320	2320	  1	  0	 51	  6	  1	  3	  3	  6	  0	  1	  0	0.43149	  1	0.50000	  0	 13	 34	 49	  1	
20-Apr-2013	sub2320	2320	  1	  0	 52	  6	  1	  6	  1	  4	  1	  1	  0	0.40010	  0	0.50000	  0	 16	 45	 46	  1	
20-Apr-2013	sub2320	2320	  1	  0	 53	  6	  1	  6	  1	  4	  1	  2	  1	0.36311	  1	0.50000	  0	 16	 35	 36	  1	
20-Apr-2013	sub2320	2320	  1	  0	 54	  6	  1	  5	  4	  2	  1	  2	  0	0.46512	  0	0.50000	  0	 15	 45	 46	  1	
20-Apr-2013	sub2320	2320	  1	  0	 55	  6	  1	  5	  4	  2	  0	  1	  0	0.36484	  1	0.50000	  0	 15	 37	 48	  1	
20-Apr-2013	sub2320	2320	  1	  0	 56	  6	  1	  4	  6	  5	  1	  1	  0	0.34639	  0	0.50000	  0	 14	 42	 43	  1	
20-Apr-2013	sub2320	2320	  1	  0	 57	  6	  1	  2	  2	  2	  1	  2	  1	0.55557	  1	0.50000	  1	 12	 30	 51	  0	
20-Apr-2013	sub2320	2320	  1	  0	 58	  6	  1	  4	  6	  5	  1	  2	  1	0.43146	  1	0.70000	  0	 14	 32	 33	  1	
20-Apr-2013	sub2320	2320	  1	  0	 59	  6	  1	  3	  3	  6	  1	  2	  0	0.67049	  0	0.70000	  0	 13	 42	 43	  0	
20-Apr-2013	sub2320	2320	  1	  0	 60	  6	  1	  6	  1	  4	  0	  2	  0	0.49815	  1	0.70000	  0	 16	 37	 48	  1	
20-Apr-2013	sub2320	2320	  1	  0	 61	  6	  1	  3	  3	  6	  0	  1	  0	0.40540	  1	0.60000	  0	 13	 34	 49	  1	
20-Apr-2013	sub2320	2320	  1	  0	 62	  6	  1	  2	  2	  2	  1	  2	  1	0.54775	  1	0.60000	  0	 12	 30	 31	  0	
20-Apr-2013	sub2320	2320	  1	  0	 63	  6	  1	  1	  5	  2	  1	  1	  1	0.51255	  1	0.60000	  0	 11	 30	 31	  0	
20-Apr-2013	sub2320	2320	  1	  0	 64	  6	  1	  2	  2	  2	  1	  2	  1	0.38657	  1	0.60000	  0	 12	 30	 31	  1	
20-Apr-2013	sub2320	2320	  1	  0	 65	  6	  1	  2	  2	  2	  1	  2	  1	0.36018	  1	0.60000	  0	 12	 30	 31	  1	
20-Apr-2013	sub2320	2320	  1	  0	 66	  6	  1	  1	  5	  2	  1	  1	  1	0.36313	  1	0.60000	  0	 11	 30	 31	  1	
20-Apr-2013	sub2320	2320	  1	  0	 67	  6	  1	  6	  1	  4	  0	  2	  0	0.39712	  1	0.60000	  0	 16	 37	 48	  1	
20-Apr-2013	sub2320	2320	  1	  0	 68	  6	  1	  3	  3	  6	  0	  1	  0	0.46684	  1	0.60000	  0	 13	 34	 49	  1	
20-Apr-2013	sub2320	2320	  1	  0	 69	  6	  1	  3	  3	  6	  1	  1	  1	0.39799	  1	0.60000	  0	 13	 32	 33	  1	
20-Apr-2013	sub2320	2320	  1	  0	 70	  6	  1	  6	  1	  4	  1	  1	  0	0.45716	  0	0.60000	  0	 16	 45	 46	  1	
20-Apr-2013	sub2320	2320	  1	  0	 71	  6	  1	  1	  5	  2	  1	  1	  1	0.46842	  1	0.60000	  0	 11	 30	 31	  1	
20-Apr-2013	sub2320	2320	  1	  0	 72	  6	  1	  4	  6	  5	  1	  1	  0	0.40326	  0	0.60000	  0	 14	 42	 43	  1	
20-Apr-2013	sub2320	2320	  1	  0	 73	  6	  1	  4	  6	  5	  1	  2	  1	0.42270	  1	0.60000	  0	 14	 32	 33	  1	
20-Apr-2013	sub2320	2320	  1	  0	 74	  6	  1	  1	  5	  2	  1	  1	  1	0.46637	  1	0.60000	  0	 11	 30	 31	  1	
20-Apr-2013	sub2320	2320	  1	  0	 75	  6	  1	  6	  1	  4	  0	  2	  0	0.36572	  1	0.60000	  0	 16	 37	 48	  1	
20-Apr-2013	sub2320	2320	  1	  0	 76	  6	  2	  6	  1	  4	  0	  1	  1	0.32634	  0	0.50000	  0	 26	 87	 68	  1	
20-Apr-2013	sub2320	2320	  1	  0	 77	  6	  2	  2	  2	  2	  1	  1	  0	0.47830	  0	0.50000	  0	 22	 80	 81	  1	
20-Apr-2013	sub2320	2320	  1	  0	 78	  6	  2	  4	  6	  5	  1	  2	  1	0.34101	  1	0.50000	  0	 24	 62	 63	  1	
20-Apr-2013	sub2320	2320	  1	  0	 79	  6	  2	  6	  1	  4	  0	  2	  0	0.52544	  1	0.50000	  1	 26	 67	 51	  0	
20-Apr-2013	sub2320	2320	  1	  0	 80	  6	  2	  5	  4	  2	  0	  2	  1	0.32907	  0	0.70000	  0	 25	 87	 68	  1	
20-Apr-2013	sub2320	2320	  1	  0	 81	  6	  2	  1	  5	  2	  1	  1	  1	0.50584	  1	0.60000	  0	 21	 60	 61	  0	
20-Apr-2013	sub2320	2320	  1	  0	 82	  6	  2	  2	  2	  2	  1	  2	  1	0.33623	  1	0.60000	  0	 22	 60	 61	  1	
20-Apr-2013	sub2320	2320	  1	  0	 83	  6	  2	  3	  3	  6	  1	  1	  1	0.63526	  1	0.60000	  1	 23	 62	 51	  0	
20-Apr-2013	sub2320	2320	  1	  0	 84	  6	  2	  1	  5	  2	  1	  1	  1	0.44637	  1	0.80000	  0	 21	 60	 61	  1	
20-Apr-2013	sub2320	2320	  1	  0	 85	  6	  2	  2	  2	  2	  1	  1	  0	0.43815	  0	0.70000	  0	 22	 80	 81	  1	
20-Apr-2013	sub2320	2320	  1	  0	 86	  6	  2	  4	  6	  5	  1	  2	  1	0.34548	  1	0.70000	  0	 24	 62	 63	  1	
20-Apr-2013	sub2320	2320	  1	  0	 87	  6	  2	  3	  3	  6	  1	  1	  1	2.06833	  1	0.70000	  1	 23	 62	 51	  0	
20-Apr-2013	sub2320	2320	  1	  0	 88	  6	  2	  5	  4	  2	  0	  1	  0	0.37403	  1	0.80000	  0	 25	 67	 88	  1	
20-Apr-2013	sub2320	2320	  1	  0	 89	  6	  2	  3	  3	  6	  1	  1	  1	0.35635	  1	0.80000	  0	 23	 62	 63	  1	
20-Apr-2013	sub2320	2320	  1	  0	 90	  6	  2	  4	  6	  5	  1	  1	  0	0.35144	  0	0.80000	  0	 24	 82	 83	  1	
20-Apr-2013	sub2320	2320	  1	  0	 91	  6	  2	  1	  5	  2	  1	  1	  1	0.44837	  1	0.80000	  0	 21	 60	 61	  1	
20-Apr-2013	sub2320	2320	  1	  0	 92	  6	  2	  6	  1	  4	  1	  2	  1	0.33433	  1	0.80000	  0	 26	 65	 66	  1	
20-Apr-2013	sub2320	2320	  1	  0	 93	  6	  2	  2	  2	  2	  1	  2	  1	0.43402	  1	0.80000	  0	 22	 60	 61	  1	
20-Apr-2013	sub2320	2320	  1	  0	 94	  6	  2	  3	  3	  6	  1	  1	  1	0.51610	  1	0.80000	  0	 23	 62	 63	  0	
20-Apr-2013	sub2320	2320	  1	  0	 95	  6	  2	  1	  5	  2	  1	  1	  1	0.53793	  1	0.80000	  0	 21	 60	 61	  0	
20-Apr-2013	sub2320	2320	  1	  0	 96	  6	  2	  4	  6	  5	  0	  2	  0	0.45942	  1	0.80000	  0	 24	 64	 89	  1	
20-Apr-2013	sub2320	2320	  1	  0	 97	  6	  2	  1	  5	  2	  1	  1	  1	0.46613	  1	0.80000	  0	 21	 60	 61	  1	
20-Apr-2013	sub2320	2320	  1	  0	 98	  6	  2	  4	  6	  5	  1	  2	  1	0.31783	  1	0.80000	  0	 24	 62	 63	  1	
20-Apr-2013	sub2320	2320	  1	  0	 99	  6	  2	  2	  2	  2	  1	  2	  1	0.52425	  1	0.80000	  0	 22	 60	 61	  0	
20-Apr-2013	sub2320	2320	  1	  0	100	  6	  2	  3	  3	  6	  1	  1	  1	0.38937	  1	0.80000	  0	 23	 62	 63	  1	
20-Apr-2013	sub2320	2320	  1	  0	101	  6	  2	  2	  2	  2	  1	  2	  1	0.32146	  1	0.70000	  0	 22	 60	 61	  1	
20-Apr-2013	sub2320	2320	  1	  0	102	  6	  2	  6	  1	  4	  1	  1	  0	0.45833	  0	0.70000	  0	 26	 85	 86	  1	
20-Apr-2013	sub2320	2320	  1	  0	103	  6	  2	  4	  6	  5	  1	  2	  1	0.42739	  1	0.70000	  0	 24	 62	 63	  1	
20-Apr-2013	sub2320	2320	  1	  0	104	  6	  2	  6	  1	  4	  0	  2	  0	0.54915	  1	0.70000	  0	 26	 67	 88	  0	
20-Apr-2013	sub2320	2320	  1	  0	105	  6	  2	  1	  5	  2	  1	  1	  1	0.49330	  1	0.70000	  0	 21	 60	 61	  1	
20-Apr-2013	sub2320	2320	  1	  0	106	  6	  2	  1	  5	  2	  1	  1	  1	0.40824	  1	0.70000	  0	 21	 60	 61	  1	
20-Apr-2013	sub2320	2320	  1	  0	107	  6	  2	  1	  5	  2	  1	  1	  1	0.39457	  1	0.70000	  0	 21	 60	 61	  1	
20-Apr-2013	sub2320	2320	  1	  0	108	  6	  2	  1	  5	  2	  1	  1	  1	0.35643	  1	0.70000	  0	 21	 60	 61	  1	
20-Apr-2013	sub2320	2320	  1	  0	109	  6	  2	  6	  1	  4	  1	  2	  1	0.51977	  1	0.70000	  0	 26	 65	 66	  0	
20-Apr-2013	sub2320	2320	  1	  0	110	  6	  2	  3	  3	  6	  1	  1	  1	0.44861	  1	0.70000	  0	 23	 62	 63	  1	
20-Apr-2013	sub2320	2320	  1	  0	111	  6	  2	  5	  4	  2	  0	  1	  0	0.41783	  1	0.70000	  0	 25	 67	 88	  1	
20-Apr-2013	sub2320	2320	  1	  0	112	  6	  2	  2	  2	  2	  1	  2	  1	0.50548	  1	0.70000	  0	 22	 60	 61	  0	
20-Apr-2013	sub2320	2320	  1	  0	113	  6	  2	  5	  4	  2	  0	  2	  1	0.35625	  0	0.70000	  0	 25	 87	 68	  1	
20-Apr-2013	sub2320	2320	  1	  0	114	  6	  2	  5	  4	  2	  0	  2	  1	0.39163	  0	0.70000	  0	 25	 87	 68	  1	
20-Apr-2013	sub2320	2320	  1	  0	115	  6	  2	  4	  6	  5	  1	  2	  1	0.38880	  1	0.70000	  0	 24	 62	 63	  1	
20-Apr-2013	sub2320	2320	  1	  0	116	  6	  2	  3	  3	  6	  1	  2	  0	0.42473	  0	0.70000	  0	 23	 82	 83	  1	
20-Apr-2013	sub2320	2320	  1	  0	117	  6	  2	  3	  3	  6	  1	  1	  1	0.34050	  1	0.70000	  0	 23	 62	 63	  1	
20-Apr-2013	sub2320	2320	  1	  0	118	  6	  2	  4	  6	  5	  1	  2	  1	0.50000	  1	0.70000	  0	 24	 62	 63	  1	
20-Apr-2013	sub2320	2320	  1	  0	119	  6	  2	  2	  2	  2	  1	  2	  1	0.35756	  1	0.70000	  0	 22	 60	 61	  1	
20-Apr-2013	sub2320	2320	  1	  0	120	  6	  2	  5	  4	  2	  0	  2	  1	0.39264	  0	0.70000	  0	 25	 87	 68	  1	
20-Apr-2013	sub2320	2320	  1	  0	121	  6	  2	  6	  1	  4	  0	  2	  0	0.49926	  1	0.60000	  0	 26	 67	 88	  1	
20-Apr-2013	sub2320	2320	  1	  0	122	  6	  2	  6	  1	  4	  1	  1	  0	0.36953	  0	0.60000	  0	 26	 85	 86	  1	
20-Apr-2013	sub2320	2320	  1	  0	123	  6	  2	  5	  4	  2	  0	  2	  1	0.45617	  0	0.60000	  0	 25	 87	 68	  1	
20-Apr-2013	sub2320	2320	  1	  0	124	  6	  2	  1	  5	  2	  1	  1	  1	0.51790	  1	0.60000	  0	 21	 60	 61	  0	
20-Apr-2013	sub2320	2320	  1	  0	125	  6	  2	  6	  1	  4	  0	  2	  0	0.46274	  1	0.60000	  0	 26	 67	 88	  1	
20-Apr-2013	sub2320	2320	  1	  0	126	  6	  2	  4	  6	  5	  0	  2	  0	0.44436	  1	0.60000	  0	 24	 64	 89	  1	
20-Apr-2013	sub2320	2320	  1	  0	127	  6	  2	  6	  1	  4	  0	  1	  1	0.48121	  0	0.60000	  0	 26	 87	 68	  1	
20-Apr-2013	sub2320	2320	  1	  0	128	  6	  2	  5	  4	  2	  0	  2	  1	0.45098	  0	0.60000	  0	 25	 87	 68	  1	
20-Apr-2013	sub2320	2320	  1	  0	129	  6	  2	  6	  1	  4	  1	  1	  0	0.40785	  0	0.60000	  0	 26	 85	 86	  1	
20-Apr-2013	sub2320	2320	  1	  0	130	  6	  2	  3	  3	  6	  1	  2	  0	0.35522	  0	0.60000	  0	 23	 82	 83	  1	
20-Apr-2013	sub2320	2320	  1	  0	131	  6	  2	  1	  5	  2	  1	  2	  0	0.42055	  0	0.60000	  0	 21	 80	 81	  1	
20-Apr-2013	sub2320	2320	  1	  0	132	  6	  2	  1	  5	  2	  1	  1	  1	0.37121	  1	0.60000	  0	 21	 60	 61	  1	
20-Apr-2013	sub2320	2320	  1	  0	133	  6	  2	  5	  4	  2	  0	  2	  1	0.39087	  0	0.60000	  0	 25	 87	 68	  1	
20-Apr-2013	sub2320	2320	  1	  0	134	  6	  2	  6	  1	  4	  1	  1	  0	0.40549	  0	0.60000	  0	 26	 85	 86	  1	
20-Apr-2013	sub2320	2320	  1	  0	135	  6	  2	  2	  2	  2	  1	  2	  1	0.49601	  1	0.60000	  0	 22	 60	 61	  1	
20-Apr-2013	sub2320	2320	  1	  0	136	  6	  2	  3	  3	  6	  0	  1	  0	0.37750	  1	0.60000	  0	 23	 64	 89	  1	
20-Apr-2013	sub2320	2320	  1	  0	137	  6	  2	  1	  5	  2	  1	  1	  1	0.46618	  1	0.60000	  0	 21	 60	 61	  1	
20-Apr-2013	sub2320	2320	  1	  0	138	  6	  2	  5	  4	  2	  0	  2	  1	0.52537	  0	0.60000	  0	 25	 87	 68	  0	
20-Apr-2013	sub2320	2320	  1	  0	139	  6	  2	  4	  6	  5	  1	  1	  0	0.47570	  0	0.60000	  0	 24	 82	 83	  1	
20-Apr-2013	sub2320	2320	  1	  0	140	  6	  2	  4	  6	  5	  0	  2	  0	0.47547	  1	0.60000	  0	 24	 64	 89	  1	
20-Apr-2013	sub2320	2320	  1	  0	141	  6	  2	  4	  6	  5	  1	  2	  1	0.34586	  1	0.60000	  0	 24	 62	 63	  1	
20-Apr-2013	sub2320	2320	  1	  0	142	  6	  2	  3	  3	  6	  0	  1	  0	0.44087	  1	0.60000	  0	 23	 64	 89	  1	
20-Apr-2013	sub2320	2320	  1	  0	143	  6	  2	  5	  4	  2	  0	  2	  1	0.41052	  0	0.60000	  0	 25	 87	 68	  1	
20-Apr-2013	sub2320	2320	  1	  0	144	  6	  2	  5	  4	  2	  0	  2	  1	0.44118	  0	0.60000	  0	 25	 87	 68	  1	
20-Apr-2013	sub2320	2320	  1	  0	145	  6	  2	  2	  2	  2	  1	  2	  1	2.44332	  1	0.60000	  1	 22	 60	 51	  0	
20-Apr-2013	sub2320	2320	  1	  0	146	  6	  2	  2	  2	  2	  1	  2	  1	0.40434	  1	0.60000	  0	 22	 60	 61	  1	
20-Apr-2013	sub2320	2320	  1	  0	147	  6	  2	  4	  6	  5	  1	  2	  1	0.53616	  1	0.60000	  0	 24	 62	 63	  0	
20-Apr-2013	sub2320	2320	  1	  0	148	  6	  2	  3	  3	  6	  1	  1	  1	0.49115	  1	0.60000	  0	 23	 62	 63	  1	
20-Apr-2013	sub2320	2320	  1	  0	149	  6	  2	  5	  4	  2	  0	  2	  1	0.42092	  0	0.60000	  0	 25	 87	 68	  1	
20-Apr-2013	sub2320	2320	  1	  0	150	  6	  2	  2	  2	  2	  1	  2	  1	0.40067	  1	0.60000	  0	 22	 60	 61	  1	
