Date 	 Name 	 ID 	 Gender 	 Appearance 	 Trial 	 Block 	 Bin 	 Condition 	 Category 	 Number 	 Valid 	 Keypress 	 Correct 	 RT 	 Realcorrect 	 Deadline 	 Timeout 	 Stimtrigger 	 Resptrigger 	 Fedtrigger 	 WithinTime 	 
20-Apr-2013	sub2321	2321	  2	  1	  1	  1	  1	  2	  1	  4	  1	  2	  1	1.38353	  1	0.60000	  1	 12	 30	 51	  0	
20-Apr-2013	sub2321	2321	  2	  1	  2	  1	  1	  6	  6	  4	  1	  1	  0	0.54245	  0	0.90000	  0	 16	 45	 46	  0	
20-Apr-2013	sub2321	2321	  2	  1	  3	  1	  1	  5	  5	  5	  1	  2	  0	0.58167	  0	0.90000	  0	 15	 45	 46	  0	
20-Apr-2013	sub2321	2321	  2	  1	  4	  1	  1	  2	  1	  4	  1	  2	  1	0.61891	  1	0.90000	  0	 12	 30	 31	  0	
20-Apr-2013	sub2321	2321	  2	  1	  5	  1	  1	  1	  4	  5	  1	  2	  0	0.47061	  0	0.90000	  0	 11	 40	 41	  1	
20-Apr-2013	sub2321	2321	  2	  1	  6	  1	  1	  1	  4	  5	  1	  2	  0	0.68735	  0	0.90000	  0	 11	 40	 41	  0	
20-Apr-2013	sub2321	2321	  2	  1	  7	  1	  1	  4	  3	  1	  1	  1	  0	0.65781	  0	0.90000	  0	 14	 42	 43	  0	
20-Apr-2013	sub2321	2321	  2	  1	  8	  1	  1	  3	  2	  1	  0	  2	  1	0.36982	  0	0.90000	  0	 13	 44	 39	  1	
20-Apr-2013	sub2321	2321	  2	  1	  9	  1	  1	  6	  6	  4	  1	  2	  1	0.79276	  1	0.90000	  0	 16	 35	 36	  0	
20-Apr-2013	sub2321	2321	  2	  1	 10	  1	  1	  6	  6	  4	  1	  2	  1	0.56074	  1	0.90000	  0	 16	 35	 36	  0	
20-Apr-2013	sub2321	2321	  2	  1	 11	  1	  1	  4	  3	  1	  1	  2	  1	0.59868	  1	0.90000	  0	 14	 32	 33	  0	
20-Apr-2013	sub2321	2321	  2	  1	 12	  1	  1	  5	  5	  5	  0	  2	  1	0.67821	  0	0.90000	  0	 15	 47	 38	  0	
20-Apr-2013	sub2321	2321	  2	  1	 13	  1	  1	  5	  5	  5	  1	  2	  0	0.46055	  0	0.90000	  0	 15	 45	 46	  1	
20-Apr-2013	sub2321	2321	  2	  1	 14	  1	  1	  2	  1	  4	  1	  2	  1	0.40156	  1	0.90000	  0	 12	 30	 31	  1	
20-Apr-2013	sub2321	2321	  2	  1	 15	  1	  1	  2	  1	  4	  1	  2	  1	0.44923	  1	0.90000	  0	 12	 30	 31	  1	
20-Apr-2013	sub2321	2321	  2	  1	 16	  1	  1	  6	  6	  4	  0	  2	  0	0.53756	  1	0.80000	  0	 16	 37	 48	  0	
20-Apr-2013	sub2321	2321	  2	  1	 17	  1	  1	  5	  5	  5	  0	  1	  0	0.54980	  1	0.80000	  0	 15	 37	 48	  0	
20-Apr-2013	sub2321	2321	  2	  1	 18	  1	  1	  6	  6	  4	  0	  2	  0	0.31471	  1	0.70000	  0	 16	 37	 48	  1	
20-Apr-2013	sub2321	2321	  2	  1	 19	  1	  1	  5	  5	  5	  1	  2	  0	0.63151	  0	0.70000	  0	 15	 45	 46	  0	
20-Apr-2013	sub2321	2321	  2	  1	 20	  1	  1	  3	  2	  1	  0	  1	  0	0.54991	  1	0.70000	  0	 13	 34	 49	  0	
20-Apr-2013	sub2321	2321	  2	  1	 21	  1	  1	  6	  6	  4	  0	  2	  0	0.61965	  1	0.60000	  1	 16	 37	 51	  0	
20-Apr-2013	sub2321	2321	  2	  1	 22	  1	  1	  6	  6	  4	  1	  1	  0	0.36001	  0	0.90000	  0	 16	 45	 46	  1	
20-Apr-2013	sub2321	2321	  2	  1	 23	  1	  1	  3	  2	  1	  1	  1	  1	0.47550	  1	0.90000	  0	 13	 32	 33	  1	
20-Apr-2013	sub2321	2321	  2	  1	 24	  1	  1	  1	  4	  5	  1	  2	  0	0.68568	  0	0.90000	  0	 11	 40	 41	  0	
20-Apr-2013	sub2321	2321	  2	  1	 25	  1	  1	  3	  2	  1	  1	  1	  1	0.89785	  1	0.90000	  0	 13	 32	 33	  0	
20-Apr-2013	sub2321	2321	  2	  1	 26	  1	  1	  6	  6	  4	  1	  1	  0	0.51052	  0	0.90000	  0	 16	 45	 46	  0	
20-Apr-2013	sub2321	2321	  2	  1	 27	  1	  1	  1	  4	  5	  1	  2	  0	0.49459	  0	0.90000	  0	 11	 40	 41	  1	
20-Apr-2013	sub2321	2321	  2	  1	 28	  1	  1	  3	  2	  1	  1	  1	  1	0.62725	  1	0.90000	  0	 13	 32	 33	  0	
20-Apr-2013	sub2321	2321	  2	  1	 29	  1	  1	  2	  1	  4	  1	  2	  1	0.58059	  1	0.90000	  0	 12	 30	 31	  0	
20-Apr-2013	sub2321	2321	  2	  1	 30	  1	  1	  6	  6	  4	  1	  1	  0	0.56884	  0	0.80000	  0	 16	 45	 46	  0	
20-Apr-2013	sub2321	2321	  2	  1	 31	  1	  1	  2	  1	  4	  1	  2	  1	0.51622	  1	0.80000	  0	 12	 30	 31	  0	
20-Apr-2013	sub2321	2321	  2	  1	 32	  1	  1	  4	  3	  1	  0	  1	  1	0.65988	  0	0.80000	  0	 14	 44	 39	  0	
20-Apr-2013	sub2321	2321	  2	  1	 33	  1	  1	  5	  5	  5	  1	  2	  0	0.53591	  0	0.80000	  0	 15	 45	 46	  0	
20-Apr-2013	sub2321	2321	  2	  1	 34	  1	  1	  1	  4	  5	  1	  1	  1	0.47555	  1	0.80000	  0	 11	 30	 31	  1	
20-Apr-2013	sub2321	2321	  2	  1	 35	  1	  1	  4	  3	  1	  1	  2	  1	0.56644	  1	0.70000	  0	 14	 32	 33	  0	
20-Apr-2013	sub2321	2321	  2	  1	 36	  1	  1	  5	  5	  5	  0	  2	  1	0.53369	  0	0.70000	  0	 15	 47	 38	  0	
20-Apr-2013	sub2321	2321	  2	  1	 37	  1	  1	  2	  1	  4	  1	  2	  1	0.46566	  1	0.70000	  0	 12	 30	 31	  1	
20-Apr-2013	sub2321	2321	  2	  1	 38	  1	  1	  6	  6	  4	  0	  1	  1	0.54674	  0	0.70000	  0	 16	 47	 38	  0	
20-Apr-2013	sub2321	2321	  2	  1	 39	  1	  1	  4	  3	  1	  1	  1	  0	0.52935	  0	0.70000	  0	 14	 42	 43	  0	
20-Apr-2013	sub2321	2321	  2	  1	 40	  1	  1	  4	  3	  1	  1	  1	  0	0.43456	  0	0.70000	  0	 14	 42	 43	  1	
20-Apr-2013	sub2321	2321	  2	  1	 41	  1	  1	  3	  2	  1	  1	  2	  0	0.48674	  0	0.60000	  0	 13	 42	 43	  1	
20-Apr-2013	sub2321	2321	  2	  1	 42	  1	  1	  5	  5	  5	  1	  2	  0	0.56412	  0	0.60000	  0	 15	 45	 46	  0	
20-Apr-2013	sub2321	2321	  2	  1	 43	  1	  1	  4	  3	  1	  1	  1	  0	0.57938	  0	0.60000	  0	 14	 42	 43	  0	
20-Apr-2013	sub2321	2321	  2	  1	 44	  1	  1	  4	  3	  1	  1	  2	  1	0.37634	  1	0.60000	  0	 14	 32	 33	  1	
20-Apr-2013	sub2321	2321	  2	  1	 45	  1	  1	  2	  1	  4	  1	  2	  1	0.52081	  1	0.60000	  0	 12	 30	 31	  0	
20-Apr-2013	sub2321	2321	  2	  1	 46	  1	  1	  3	  2	  1	  1	  2	  0	0.69299	  0	0.60000	  1	 13	 42	 51	  0	
20-Apr-2013	sub2321	2321	  2	  1	 47	  1	  1	  2	  1	  4	  1	  2	  1	0.45539	  1	0.80000	  0	 12	 30	 31	  1	
20-Apr-2013	sub2321	2321	  2	  1	 48	  1	  1	  3	  2	  1	  1	  1	  1	0.43439	  1	0.80000	  0	 13	 32	 33	  1	
20-Apr-2013	sub2321	2321	  2	  1	 49	  1	  1	  4	  3	  1	  1	  1	  0	0.55895	  0	0.80000	  0	 14	 42	 43	  0	
20-Apr-2013	sub2321	2321	  2	  1	 50	  1	  1	  5	  5	  5	  1	  1	  1	0.88586	  1	0.80000	  1	 15	 35	 51	  0	
20-Apr-2013	sub2321	2321	  2	  1	 51	  1	  1	  5	  5	  5	  0	  2	  1	0.59569	  0	0.90000	  0	 15	 47	 38	  0	
20-Apr-2013	sub2321	2321	  2	  1	 52	  1	  1	  1	  4	  5	  1	  1	  1	0.82746	  1	0.90000	  0	 11	 30	 31	  0	
20-Apr-2013	sub2321	2321	  2	  1	 53	  1	  1	  1	  4	  5	  1	  1	  1	0.70697	  1	0.90000	  0	 11	 30	 31	  0	
20-Apr-2013	sub2321	2321	  2	  1	 54	  1	  1	  2	  1	  4	  1	  2	  1	0.61134	  1	0.90000	  0	 12	 30	 31	  0	
20-Apr-2013	sub2321	2321	  2	  1	 55	  1	  1	  6	  6	  4	  0	  1	  1	0.57030	  0	0.90000	  0	 16	 47	 38	  0	
20-Apr-2013	sub2321	2321	  2	  1	 56	  1	  1	  5	  5	  5	  1	  2	  0	0.51498	  0	0.90000	  0	 15	 45	 46	  0	
20-Apr-2013	sub2321	2321	  2	  1	 57	  1	  1	  2	  1	  4	  1	  2	  1	0.48707	  1	0.90000	  0	 12	 30	 31	  1	
20-Apr-2013	sub2321	2321	  2	  1	 58	  1	  1	  6	  6	  4	  0	  1	  1	0.65532	  0	0.90000	  0	 16	 47	 38	  0	
20-Apr-2013	sub2321	2321	  2	  1	 59	  1	  1	  1	  4	  5	  1	  1	  1	0.68741	  1	0.80000	  0	 11	 30	 31	  0	
20-Apr-2013	sub2321	2321	  2	  1	 60	  1	  1	  6	  6	  4	  0	  1	  1	0.76879	  0	0.80000	  0	 16	 47	 38	  0	
20-Apr-2013	sub2321	2321	  2	  1	 61	  1	  1	  1	  4	  5	  1	  1	  1	0.49824	  1	0.80000	  0	 11	 30	 31	  1	
20-Apr-2013	sub2321	2321	  2	  1	 62	  1	  1	  4	  3	  1	  0	  1	  1	0.28872	  0	0.80000	  0	 14	 44	 39	  1	
20-Apr-2013	sub2321	2321	  2	  1	 63	  1	  1	  2	  1	  4	  1	  2	  1	0.49600	  1	0.80000	  0	 12	 30	 31	  1	
20-Apr-2013	sub2321	2321	  2	  1	 64	  1	  1	  2	  1	  4	  1	  2	  1	0.53225	  1	0.80000	  0	 12	 30	 31	  0	
20-Apr-2013	sub2321	2321	  2	  1	 65	  1	  1	  3	  2	  1	  1	  2	  0	0.60772	  0	0.80000	  0	 13	 42	 43	  0	
20-Apr-2013	sub2321	2321	  2	  1	 66	  1	  1	  4	  3	  1	  1	  1	  0	0.55679	  0	0.80000	  0	 14	 42	 43	  0	
20-Apr-2013	sub2321	2321	  2	  1	 67	  1	  1	  3	  2	  1	  1	  2	  0	0.37865	  0	0.80000	  0	 13	 42	 43	  1	
20-Apr-2013	sub2321	2321	  2	  1	 68	  1	  1	  1	  4	  5	  1	  2	  0	0.50832	  0	0.70000	  0	 11	 40	 41	  0	
20-Apr-2013	sub2321	2321	  2	  1	 69	  1	  1	  3	  2	  1	  1	  2	  0	0.54396	  0	0.70000	  0	 13	 42	 43	  0	
20-Apr-2013	sub2321	2321	  2	  1	 70	  1	  1	  3	  2	  1	  0	  1	  0	0.46662	  1	0.70000	  0	 13	 34	 49	  1	
20-Apr-2013	sub2321	2321	  2	  1	 71	  1	  1	  4	  3	  1	  1	  1	  0	0.48248	  0	0.70000	  0	 14	 42	 43	  1	
20-Apr-2013	sub2321	2321	  2	  1	 72	  1	  1	  3	  2	  1	  1	  2	  0	0.53691	  0	0.70000	  0	 13	 42	 43	  0	
20-Apr-2013	sub2321	2321	  2	  1	 73	  1	  1	  1	  4	  5	  1	  1	  1	0.73411	  1	0.70000	  1	 11	 30	 51	  0	
20-Apr-2013	sub2321	2321	  2	  1	 74	  1	  1	  1	  4	  5	  1	  1	  1	0.44862	  1	0.80000	  0	 11	 30	 31	  1	
20-Apr-2013	sub2321	2321	  2	  1	 75	  1	  1	  5	  5	  5	  0	  2	  1	0.64702	  0	0.80000	  0	 15	 47	 38	  0	
20-Apr-2013	sub2321	2321	  2	  1	  1	  2	  1	  5	  4	  3	  1	  2	  0	0.65119	  0	0.60000	  1	 15	 45	 51	  0	
20-Apr-2013	sub2321	2321	  2	  1	  2	  2	  1	  5	  4	  3	  0	  2	  1	0.38277	  0	0.90000	  0	 15	 47	 38	  1	
20-Apr-2013	sub2321	2321	  2	  1	  3	  2	  1	  6	  1	  3	  1	  1	  0	0.42113	  0	0.90000	  0	 16	 45	 46	  1	
20-Apr-2013	sub2321	2321	  2	  1	  4	  2	  1	  6	  1	  3	  1	  1	  0	0.61297	  0	0.90000	  0	 16	 45	 46	  0	
20-Apr-2013	sub2321	2321	  2	  1	  5	  2	  1	  4	  6	  2	  1	  2	  1	0.60994	  1	0.90000	  0	 14	 32	 33	  0	
20-Apr-2013	sub2321	2321	  2	  1	  6	  2	  1	  3	  5	  3	  1	  2	  0	0.56426	  0	0.90000	  0	 13	 42	 43	  0	
20-Apr-2013	sub2321	2321	  2	  1	  7	  2	  1	  6	  1	  3	  1	  1	  0	0.97788	  0	0.90000	  1	 16	 45	 51	  0	
20-Apr-2013	sub2321	2321	  2	  1	  8	  2	  1	  6	  1	  3	  0	  1	  1	0.43742	  0	0.90000	  0	 16	 47	 38	  1	
20-Apr-2013	sub2321	2321	  2	  1	  9	  2	  1	  4	  6	  2	  0	  2	  0	0.78173	  1	0.90000	  0	 14	 34	 49	  0	
20-Apr-2013	sub2321	2321	  2	  1	 10	  2	  1	  3	  5	  3	  1	  1	  1	0.33795	  1	0.90000	  0	 13	 32	 33	  1	
20-Apr-2013	sub2321	2321	  2	  1	 11	  2	  1	  4	  6	  2	  1	  2	  1	0.50018	  1	0.90000	  0	 14	 32	 33	  1	
20-Apr-2013	sub2321	2321	  2	  1	 12	  2	  1	  2	  2	  3	  1	  1	  0	0.62143	  0	0.90000	  0	 12	 40	 41	  0	
20-Apr-2013	sub2321	2321	  2	  1	 13	  2	  1	  6	  1	  3	  1	  2	  1	0.41525	  1	0.90000	  0	 16	 35	 36	  1	
20-Apr-2013	sub2321	2321	  2	  1	 14	  2	  1	  6	  1	  3	  1	  2	  1	0.41384	  1	0.90000	  0	 16	 35	 36	  1	
20-Apr-2013	sub2321	2321	  2	  1	 15	  2	  1	  5	  4	  3	  1	  1	  1	0.59120	  1	0.90000	  0	 15	 35	 36	  0	
20-Apr-2013	sub2321	2321	  2	  1	 16	  2	  1	  1	  3	  3	  1	  1	  1	0.52805	  1	0.90000	  0	 11	 30	 31	  0	
20-Apr-2013	sub2321	2321	  2	  1	 17	  2	  1	  2	  2	  3	  1	  2	  1	0.62787	  1	0.90000	  0	 12	 30	 31	  0	
20-Apr-2013	sub2321	2321	  2	  1	 18	  2	  1	  1	  3	  3	  1	  1	  1	0.51423	  1	0.90000	  0	 11	 30	 31	  0	
20-Apr-2013	sub2321	2321	  2	  1	 19	  2	  1	  6	  1	  3	  0	  2	  0	0.57236	  1	0.90000	  0	 16	 37	 48	  0	
20-Apr-2013	sub2321	2321	  2	  1	 20	  2	  1	  1	  3	  3	  1	  1	  1	0.49524	  1	0.90000	  0	 11	 30	 31	  1	
20-Apr-2013	sub2321	2321	  2	  1	 21	  2	  1	  3	  5	  3	  0	  1	  0	0.42456	  1	0.90000	  0	 13	 34	 49	  1	
20-Apr-2013	sub2321	2321	  2	  1	 22	  2	  1	  4	  6	  2	  1	  1	  0	0.45575	  0	0.90000	  0	 14	 42	 43	  1	
20-Apr-2013	sub2321	2321	  2	  1	 23	  2	  1	  4	  6	  2	  0	  2	  0	0.37587	  1	0.90000	  0	 14	 34	 49	  1	
20-Apr-2013	sub2321	2321	  2	  1	 24	  2	  1	  5	  4	  3	  1	  2	  0	0.48320	  0	0.90000	  0	 15	 45	 46	  1	
20-Apr-2013	sub2321	2321	  2	  1	 25	  2	  1	  4	  6	  2	  1	  2	  1	0.42717	  1	0.90000	  0	 14	 32	 33	  1	
20-Apr-2013	sub2321	2321	  2	  1	 26	  2	  1	  6	  1	  3	  0	  2	  0	0.47570	  1	0.90000	  0	 16	 37	 48	  1	
20-Apr-2013	sub2321	2321	  2	  1	 27	  2	  1	  2	  2	  3	  1	  1	  0	0.57623	  0	0.90000	  0	 12	 40	 41	  0	
20-Apr-2013	sub2321	2321	  2	  1	 28	  2	  1	  1	  3	  3	  1	  2	  0	0.33339	  0	0.90000	  0	 11	 40	 41	  1	
20-Apr-2013	sub2321	2321	  2	  1	 29	  2	  1	  4	  6	  2	  1	  2	  1	0.35876	  1	0.90000	  0	 14	 32	 33	  1	
20-Apr-2013	sub2321	2321	  2	  1	 30	  2	  1	  4	  6	  2	  1	  1	  0	0.41673	  0	0.80000	  0	 14	 42	 43	  1	
20-Apr-2013	sub2321	2321	  2	  1	 31	  2	  1	  5	  4	  3	  0	  1	  0	0.65422	  1	0.80000	  0	 15	 37	 48	  0	
20-Apr-2013	sub2321	2321	  2	  1	 32	  2	  1	  2	  2	  3	  1	  2	  1	0.58342	  1	0.80000	  0	 12	 30	 31	  0	
20-Apr-2013	sub2321	2321	  2	  1	 33	  2	  1	  1	  3	  3	  1	  1	  1	0.38191	  1	0.80000	  0	 11	 30	 31	  1	
20-Apr-2013	sub2321	2321	  2	  1	 34	  2	  1	  5	  4	  3	  1	  2	  0	0.54652	  0	0.80000	  0	 15	 45	 46	  0	
20-Apr-2013	sub2321	2321	  2	  1	 35	  2	  1	  2	  2	  3	  1	  1	  0	0.38305	  0	0.70000	  0	 12	 40	 41	  1	
20-Apr-2013	sub2321	2321	  2	  1	 36	  2	  1	  3	  5	  3	  1	  2	  0	0.53241	  0	0.70000	  0	 13	 42	 43	  0	
20-Apr-2013	sub2321	2321	  2	  1	 37	  2	  1	  6	  1	  3	  0	  2	  0	0.46517	  1	0.70000	  0	 16	 37	 48	  1	
20-Apr-2013	sub2321	2321	  2	  1	 38	  2	  1	  4	  6	  2	  1	  2	  1	0.65112	  1	0.70000	  0	 14	 32	 33	  0	
20-Apr-2013	sub2321	2321	  2	  1	 39	  2	  1	  1	  3	  3	  1	  1	  1	0.43584	  1	0.70000	  0	 11	 30	 31	  1	
20-Apr-2013	sub2321	2321	  2	  1	 40	  2	  1	  2	  2	  3	  1	  1	  0	0.80231	  0	0.70000	  1	 12	 40	 51	  0	
20-Apr-2013	sub2321	2321	  2	  1	 41	  2	  1	  3	  5	  3	  1	  1	  1	0.49667	  1	0.90000	  0	 13	 32	 33	  1	
20-Apr-2013	sub2321	2321	  2	  1	 42	  2	  1	  3	  5	  3	  1	  1	  1	0.45542	  1	0.90000	  0	 13	 32	 33	  1	
20-Apr-2013	sub2321	2321	  2	  1	 43	  2	  1	  6	  1	  3	  0	  2	  0	0.45132	  1	0.90000	  0	 16	 37	 48	  1	
20-Apr-2013	sub2321	2321	  2	  1	 44	  2	  1	  4	  6	  2	  1	  2	  1	0.52271	  1	0.80000	  0	 14	 32	 33	  0	
20-Apr-2013	sub2321	2321	  2	  1	 45	  2	  1	  1	  3	  3	  1	  1	  1	0.56405	  1	0.80000	  0	 11	 30	 31	  0	
20-Apr-2013	sub2321	2321	  2	  1	 46	  2	  1	  2	  2	  3	  1	  1	  0	0.76190	  0	0.80000	  0	 12	 40	 41	  0	
20-Apr-2013	sub2321	2321	  2	  1	 47	  2	  1	  5	  4	  3	  0	  2	  1	0.43821	  0	0.80000	  0	 15	 47	 38	  1	
20-Apr-2013	sub2321	2321	  2	  1	 48	  2	  1	  2	  2	  3	  1	  2	  1	0.39733	  1	0.80000	  0	 12	 30	 31	  1	
20-Apr-2013	sub2321	2321	  2	  1	 49	  2	  1	  3	  5	  3	  0	  2	  1	0.52290	  0	0.80000	  0	 13	 44	 39	  0	
20-Apr-2013	sub2321	2321	  2	  1	 50	  2	  1	  4	  6	  2	  1	  2	  1	0.51742	  1	0.80000	  0	 14	 32	 33	  0	
20-Apr-2013	sub2321	2321	  2	  1	 51	  2	  1	  5	  4	  3	  0	  2	  1	0.45075	  0	0.70000	  0	 15	 47	 38	  1	
20-Apr-2013	sub2321	2321	  2	  1	 52	  2	  1	  1	  3	  3	  1	  1	  1	0.44971	  1	0.70000	  0	 11	 30	 31	  1	
20-Apr-2013	sub2321	2321	  2	  1	 53	  2	  1	  1	  3	  3	  1	  2	  0	0.40379	  0	0.70000	  0	 11	 40	 41	  1	
20-Apr-2013	sub2321	2321	  2	  1	 54	  2	  1	  6	  1	  3	  1	  2	  1	0.48612	  1	0.70000	  0	 16	 35	 36	  1	
20-Apr-2013	sub2321	2321	  2	  1	 55	  2	  1	  5	  4	  3	  1	  1	  1	0.43521	  1	0.70000	  0	 15	 35	 36	  1	
20-Apr-2013	sub2321	2321	  2	  1	 56	  2	  1	  2	  2	  3	  1	  2	  1	0.58551	  1	0.70000	  0	 12	 30	 31	  0	
20-Apr-2013	sub2321	2321	  2	  1	 57	  2	  1	  5	  4	  3	  0	  2	  1	0.47495	  0	0.70000	  0	 15	 47	 38	  1	
20-Apr-2013	sub2321	2321	  2	  1	 58	  2	  1	  1	  3	  3	  1	  2	  0	0.40939	  0	0.70000	  0	 11	 40	 41	  1	
20-Apr-2013	sub2321	2321	  2	  1	 59	  2	  1	  5	  4	  3	  1	  1	  1	0.37374	  1	0.70000	  0	 15	 35	 36	  1	
20-Apr-2013	sub2321	2321	  2	  1	 60	  2	  1	  1	  3	  3	  1	  1	  1	0.47672	  1	0.70000	  0	 11	 30	 31	  1	
20-Apr-2013	sub2321	2321	  2	  1	 61	  2	  1	  3	  5	  3	  1	  2	  0	0.60964	  0	0.60000	  1	 13	 42	 51	  0	
20-Apr-2013	sub2321	2321	  2	  1	 62	  2	  1	  2	  2	  3	  1	  2	  1	0.38349	  1	0.80000	  0	 12	 30	 31	  1	
20-Apr-2013	sub2321	2321	  2	  1	 63	  2	  1	  3	  5	  3	  1	  2	  0	0.48203	  0	0.80000	  0	 13	 42	 43	  1	
20-Apr-2013	sub2321	2321	  2	  1	 64	  2	  1	  1	  3	  3	  1	  1	  1	0.55317	  1	0.80000	  0	 11	 30	 31	  0	
20-Apr-2013	sub2321	2321	  2	  1	 65	  2	  1	  3	  5	  3	  1	  2	  0	0.62478	  0	0.80000	  0	 13	 42	 43	  0	
20-Apr-2013	sub2321	2321	  2	  1	 66	  2	  1	  6	  1	  3	  0	  2	  0	0.45485	  1	0.80000	  0	 16	 37	 48	  1	
20-Apr-2013	sub2321	2321	  2	  1	 67	  2	  1	  4	  6	  2	  1	  2	  1	0.42642	  1	0.80000	  0	 14	 32	 33	  1	
20-Apr-2013	sub2321	2321	  2	  1	 68	  2	  1	  3	  5	  3	  1	  2	  0	0.56085	  0	0.70000	  0	 13	 42	 43	  0	
20-Apr-2013	sub2321	2321	  2	  1	 69	  2	  1	  2	  2	  3	  1	  2	  1	0.59655	  1	0.70000	  0	 12	 30	 31	  0	
20-Apr-2013	sub2321	2321	  2	  1	 70	  2	  1	  3	  5	  3	  0	  2	  1	0.40786	  0	0.70000	  0	 13	 44	 39	  1	
20-Apr-2013	sub2321	2321	  2	  1	 71	  2	  1	  6	  1	  3	  1	  2	  1	0.49384	  1	0.70000	  0	 16	 35	 36	  1	
20-Apr-2013	sub2321	2321	  2	  1	 72	  2	  1	  3	  5	  3	  1	  2	  0	0.57502	  0	0.70000	  0	 13	 42	 43	  0	
20-Apr-2013	sub2321	2321	  2	  1	 73	  2	  1	  2	  2	  3	  1	  2	  1	0.48266	  1	0.70000	  0	 12	 30	 31	  1	
20-Apr-2013	sub2321	2321	  2	  1	 74	  2	  1	  5	  4	  3	  0	  2	  1	0.44129	  0	0.70000	  0	 15	 47	 38	  1	
20-Apr-2013	sub2321	2321	  2	  1	 75	  2	  1	  2	  2	  3	  1	  2	  1	0.37100	  1	0.70000	  0	 12	 30	 31	  1	
20-Apr-2013	sub2321	2321	  2	  1	 76	  2	  2	  1	  3	  3	  1	  1	  1	0.41498	  1	0.70000	  0	 21	 60	 61	  1	
20-Apr-2013	sub2321	2321	  2	  1	 77	  2	  2	  4	  6	  2	  1	  2	  1	0.46522	  1	0.70000	  0	 24	 62	 63	  1	
20-Apr-2013	sub2321	2321	  2	  1	 78	  2	  2	  4	  6	  2	  1	  2	  1	0.49414	  1	0.70000	  0	 24	 62	 63	  1	
20-Apr-2013	sub2321	2321	  2	  1	 79	  2	  2	  6	  1	  3	  1	  2	  1	0.46374	  1	0.70000	  0	 26	 65	 66	  1	
20-Apr-2013	sub2321	2321	  2	  1	 80	  2	  2	  1	  3	  3	  1	  1	  1	0.53184	  1	0.70000	  0	 21	 60	 61	  0	
20-Apr-2013	sub2321	2321	  2	  1	 81	  2	  2	  1	  3	  3	  1	  1	  1	0.54308	  1	0.60000	  0	 21	 60	 61	  0	
20-Apr-2013	sub2321	2321	  2	  1	 82	  2	  2	  2	  2	  3	  1	  2	  1	0.62078	  1	0.60000	  1	 22	 60	 51	  0	
20-Apr-2013	sub2321	2321	  2	  1	 83	  2	  2	  2	  2	  3	  1	  2	  1	0.30957	  1	0.80000	  0	 22	 60	 61	  1	
20-Apr-2013	sub2321	2321	  2	  1	 84	  2	  2	  5	  4	  3	  0	  2	  1	0.50319	  0	0.80000	  0	 25	 87	 68	  0	
20-Apr-2013	sub2321	2321	  2	  1	 85	  2	  2	  2	  2	  3	  1	  2	  1	0.40454	  1	0.70000	  0	 22	 60	 61	  1	
20-Apr-2013	sub2321	2321	  2	  1	 86	  2	  2	  6	  1	  3	  0	  1	  1	0.51903	  0	0.70000	  0	 26	 87	 68	  0	
20-Apr-2013	sub2321	2321	  2	  1	 87	  2	  2	  2	  2	  3	  1	  2	  1	0.55116	  1	0.70000	  0	 22	 60	 61	  0	
20-Apr-2013	sub2321	2321	  2	  1	 88	  2	  2	  6	  1	  3	  0	  2	  0	0.52015	  1	0.70000	  0	 26	 67	 88	  0	
20-Apr-2013	sub2321	2321	  2	  1	 89	  2	  2	  5	  4	  3	  0	  2	  1	0.68098	  0	0.70000	  0	 25	 87	 68	  0	
20-Apr-2013	sub2321	2321	  2	  1	 90	  2	  2	  4	  6	  2	  0	  2	  0	0.56859	  1	0.70000	  0	 24	 64	 89	  0	
20-Apr-2013	sub2321	2321	  2	  1	 91	  2	  2	  5	  4	  3	  0	  1	  0	0.56810	  1	0.70000	  0	 25	 67	 88	  0	
20-Apr-2013	sub2321	2321	  2	  1	 92	  2	  2	  3	  5	  3	  1	  2	  0	0.48319	  0	0.70000	  0	 23	 82	 83	  1	
20-Apr-2013	sub2321	2321	  2	  1	 93	  2	  2	  5	  4	  3	  0	  2	  1	0.34310	  0	0.70000	  0	 25	 87	 68	  1	
20-Apr-2013	sub2321	2321	  2	  1	 94	  2	  2	  4	  6	  2	  0	  2	  0	0.65537	  1	0.70000	  0	 24	 64	 89	  0	
20-Apr-2013	sub2321	2321	  2	  1	 95	  2	  2	  3	  5	  3	  0	  2	  1	0.48028	  0	0.70000	  0	 23	 84	 69	  1	
20-Apr-2013	sub2321	2321	  2	  1	 96	  2	  2	  2	  2	  3	  1	  2	  1	0.51619	  1	0.70000	  0	 22	 60	 61	  0	
20-Apr-2013	sub2321	2321	  2	  1	 97	  2	  2	  5	  4	  3	  0	  2	  1	0.50211	  0	0.70000	  0	 25	 87	 68	  0	
20-Apr-2013	sub2321	2321	  2	  1	 98	  2	  2	  4	  6	  2	  1	  2	  1	0.52809	  1	0.70000	  0	 24	 62	 63	  0	
20-Apr-2013	sub2321	2321	  2	  1	 99	  2	  2	  1	  3	  3	  1	  1	  1	0.38438	  1	0.70000	  0	 21	 60	 61	  1	
20-Apr-2013	sub2321	2321	  2	  1	100	  2	  2	  6	  1	  3	  0	  2	  0	0.54049	  1	0.70000	  0	 26	 67	 88	  0	
20-Apr-2013	sub2321	2321	  2	  1	101	  2	  2	  1	  3	  3	  1	  1	  1	0.54821	  1	0.60000	  0	 21	 60	 61	  0	
20-Apr-2013	sub2321	2321	  2	  1	102	  2	  2	  3	  5	  3	  1	  2	  0	0.56205	  0	0.60000	  0	 23	 82	 83	  0	
20-Apr-2013	sub2321	2321	  2	  1	103	  2	  2	  6	  1	  3	  1	  2	  1	0.48756	  1	0.60000	  0	 26	 65	 66	  1	
20-Apr-2013	sub2321	2321	  2	  1	104	  2	  2	  6	  1	  3	  1	  2	  1	0.50287	  1	0.60000	  0	 26	 65	 66	  0	
20-Apr-2013	sub2321	2321	  2	  1	105	  2	  2	  5	  4	  3	  0	  2	  1	0.50925	  0	0.60000	  0	 25	 87	 68	  0	
20-Apr-2013	sub2321	2321	  2	  1	106	  2	  2	  5	  4	  3	  0	  2	  1	0.40686	  0	0.60000	  0	 25	 87	 68	  1	
20-Apr-2013	sub2321	2321	  2	  1	107	  2	  2	  5	  4	  3	  0	  2	  1	0.44698	  0	0.60000	  0	 25	 87	 68	  1	
20-Apr-2013	sub2321	2321	  2	  1	108	  2	  2	  6	  1	  3	  1	  2	  1	0.49285	  1	0.60000	  0	 26	 65	 66	  1	
20-Apr-2013	sub2321	2321	  2	  1	109	  2	  2	  3	  5	  3	  0	  2	  1	0.59365	  0	0.60000	  0	 23	 84	 69	  0	
20-Apr-2013	sub2321	2321	  2	  1	110	  2	  2	  6	  1	  3	  0	  2	  0	0.43451	  1	0.60000	  0	 26	 67	 88	  1	
20-Apr-2013	sub2321	2321	  2	  1	111	  2	  2	  4	  6	  2	  0	  1	  1	0.50629	  0	0.60000	  0	 24	 84	 69	  0	
20-Apr-2013	sub2321	2321	  2	  1	112	  2	  2	  1	  3	  3	  1	  1	  1	0.44332	  1	0.60000	  0	 21	 60	 61	  1	
20-Apr-2013	sub2321	2321	  2	  1	113	  2	  2	  3	  5	  3	  1	  2	  0	0.58674	  0	0.60000	  0	 23	 82	 83	  0	
20-Apr-2013	sub2321	2321	  2	  1	114	  2	  2	  4	  6	  2	  1	  2	  1	0.50499	  1	0.60000	  0	 24	 62	 63	  0	
20-Apr-2013	sub2321	2321	  2	  1	115	  2	  2	  2	  2	  3	  1	  2	  1	0.65805	  1	0.60000	  1	 22	 60	 51	  0	
20-Apr-2013	sub2321	2321	  2	  1	116	  2	  2	  4	  6	  2	  1	  2	  1	0.44304	  1	0.70000	  0	 24	 62	 63	  1	
20-Apr-2013	sub2321	2321	  2	  1	117	  2	  2	  6	  1	  3	  0	  2	  0	0.41070	  1	0.70000	  0	 26	 67	 88	  1	
20-Apr-2013	sub2321	2321	  2	  1	118	  2	  2	  1	  3	  3	  1	  1	  1	0.52757	  1	0.70000	  0	 21	 60	 61	  0	
20-Apr-2013	sub2321	2321	  2	  1	119	  2	  2	  1	  3	  3	  1	  1	  1	0.51179	  1	0.70000	  0	 21	 60	 61	  0	
20-Apr-2013	sub2321	2321	  2	  1	120	  2	  2	  3	  5	  3	  1	  2	  0	0.53570	  0	0.70000	  0	 23	 82	 83	  0	
20-Apr-2013	sub2321	2321	  2	  1	121	  2	  2	  4	  6	  2	  1	  2	  1	0.49251	  1	0.60000	  0	 24	 62	 63	  1	
20-Apr-2013	sub2321	2321	  2	  1	122	  2	  2	  5	  4	  3	  0	  2	  1	0.47577	  0	0.60000	  0	 25	 87	 68	  1	
20-Apr-2013	sub2321	2321	  2	  1	123	  2	  2	  5	  4	  3	  0	  2	  1	0.41674	  0	0.60000	  0	 25	 87	 68	  1	
20-Apr-2013	sub2321	2321	  2	  1	124	  2	  2	  6	  1	  3	  1	  1	  0	0.46438	  0	0.60000	  0	 26	 85	 86	  1	
20-Apr-2013	sub2321	2321	  2	  1	125	  2	  2	  4	  6	  2	  1	  2	  1	0.69621	  1	0.60000	  1	 24	 62	 51	  0	
20-Apr-2013	sub2321	2321	  2	  1	126	  2	  2	  2	  2	  3	  1	  1	  0	0.30796	  0	0.70000	  0	 22	 80	 81	  1	
20-Apr-2013	sub2321	2321	  2	  1	127	  2	  2	  1	  3	  3	  1	  1	  1	0.42079	  1	0.70000	  0	 21	 60	 61	  1	
20-Apr-2013	sub2321	2321	  2	  1	128	  2	  2	  5	  4	  3	  0	  2	  1	0.46794	  0	0.70000	  0	 25	 87	 68	  1	
20-Apr-2013	sub2321	2321	  2	  1	129	  2	  2	  3	  5	  3	  1	  2	  0	0.56588	  0	0.70000	  0	 23	 82	 83	  0	
20-Apr-2013	sub2321	2321	  2	  1	130	  2	  2	  1	  3	  3	  1	  1	  1	0.61387	  1	0.70000	  0	 21	 60	 61	  0	
20-Apr-2013	sub2321	2321	  2	  1	131	  2	  2	  5	  4	  3	  0	  2	  1	0.49395	  0	0.70000	  0	 25	 87	 68	  1	
20-Apr-2013	sub2321	2321	  2	  1	132	  2	  2	  2	  2	  3	  1	  1	  0	0.54853	  0	0.70000	  0	 22	 80	 81	  0	
20-Apr-2013	sub2321	2321	  2	  1	133	  2	  2	  3	  5	  3	  1	  2	  0	0.51756	  0	0.70000	  0	 23	 82	 83	  0	
20-Apr-2013	sub2321	2321	  2	  1	134	  2	  2	  3	  5	  3	  1	  2	  0	0.45562	  0	0.70000	  0	 23	 82	 83	  1	
20-Apr-2013	sub2321	2321	  2	  1	135	  2	  2	  3	  5	  3	  1	  1	  1	0.47059	  1	0.70000	  0	 23	 62	 63	  1	
20-Apr-2013	sub2321	2321	  2	  1	136	  2	  2	  3	  5	  3	  1	  1	  1	0.43332	  1	0.70000	  0	 23	 62	 63	  1	
20-Apr-2013	sub2321	2321	  2	  1	137	  2	  2	  2	  2	  3	  1	  2	  1	0.56500	  1	0.70000	  0	 22	 60	 61	  0	
20-Apr-2013	sub2321	2321	  2	  1	138	  2	  2	  1	  3	  3	  1	  1	  1	0.48689	  1	0.70000	  0	 21	 60	 61	  1	
20-Apr-2013	sub2321	2321	  2	  1	139	  2	  2	  5	  4	  3	  0	  2	  1	0.56941	  0	0.70000	  0	 25	 87	 68	  0	
20-Apr-2013	sub2321	2321	  2	  1	140	  2	  2	  2	  2	  3	  1	  2	  1	0.54396	  1	0.70000	  0	 22	 60	 61	  0	
20-Apr-2013	sub2321	2321	  2	  1	141	  2	  2	  1	  3	  3	  1	  1	  1	0.58684	  1	0.60000	  0	 21	 60	 61	  0	
20-Apr-2013	sub2321	2321	  2	  1	142	  2	  2	  1	  3	  3	  1	  2	  0	0.38716	  0	0.60000	  0	 21	 80	 81	  1	
20-Apr-2013	sub2321	2321	  2	  1	143	  2	  2	  6	  1	  3	  1	  2	  1	0.45750	  1	0.60000	  0	 26	 65	 66	  1	
20-Apr-2013	sub2321	2321	  2	  1	144	  2	  2	  3	  5	  3	  1	  2	  0	0.46951	  0	0.60000	  0	 23	 82	 83	  1	
20-Apr-2013	sub2321	2321	  2	  1	145	  2	  2	  2	  2	  3	  1	  2	  1	0.53145	  1	0.60000	  0	 22	 60	 61	  0	
20-Apr-2013	sub2321	2321	  2	  1	146	  2	  2	  6	  1	  3	  0	  1	  1	0.69296	  0	0.60000	  1	 26	 87	 51	  0	
20-Apr-2013	sub2321	2321	  2	  1	147	  2	  2	  4	  6	  2	  1	  2	  1	0.57016	  1	0.70000	  0	 24	 62	 63	  0	
20-Apr-2013	sub2321	2321	  2	  1	148	  2	  2	  2	  2	  3	  1	  2	  1	0.56294	  1	0.70000	  0	 22	 60	 61	  0	
20-Apr-2013	sub2321	2321	  2	  1	149	  2	  2	  4	  6	  2	  1	  2	  1	0.62353	  1	0.70000	  0	 24	 62	 63	  0	
20-Apr-2013	sub2321	2321	  2	  1	150	  2	  2	  4	  6	  2	  1	  2	  1	0.44910	  1	0.70000	  0	 24	 62	 63	  1	
20-Apr-2013	sub2321	2321	  2	  1	  1	  3	  1	  6	  3	  4	  0	  2	  0	0.50254	  1	0.60000	  0	 16	 37	 48	  0	
20-Apr-2013	sub2321	2321	  2	  1	  2	  3	  1	  3	  5	  2	  1	  2	  0	0.49439	  0	0.30000	  1	 13	 42	 51	  1	
20-Apr-2013	sub2321	2321	  2	  1	  3	  3	  1	  3	  5	  2	  0	  2	  1	0.31499	  0	0.90000	  0	 13	 44	 39	  1	
20-Apr-2013	sub2321	2321	  2	  1	  4	  3	  1	  3	  5	  2	  1	  2	  0	0.40048	  0	0.90000	  0	 13	 42	 43	  1	
20-Apr-2013	sub2321	2321	  2	  1	  5	  3	  1	  2	  4	  2	  1	  2	  1	0.65527	  1	0.90000	  0	 12	 30	 31	  0	
20-Apr-2013	sub2321	2321	  2	  1	  6	  3	  1	  2	  4	  2	  1	  2	  1	0.32912	  1	0.90000	  0	 12	 30	 31	  1	
20-Apr-2013	sub2321	2321	  2	  1	  7	  3	  1	  1	  6	  1	  1	  2	  0	0.43397	  0	0.90000	  0	 11	 40	 41	  1	
20-Apr-2013	sub2321	2321	  2	  1	  8	  3	  1	  6	  3	  4	  1	  1	  0	0.57814	  0	0.90000	  0	 16	 45	 46	  0	
20-Apr-2013	sub2321	2321	  2	  1	  9	  3	  1	  1	  6	  1	  1	  2	  0	0.45740	  0	0.90000	  0	 11	 40	 41	  1	
20-Apr-2013	sub2321	2321	  2	  1	 10	  3	  1	  6	  3	  4	  0	  1	  1	0.46063	  0	0.90000	  0	 16	 47	 38	  1	
20-Apr-2013	sub2321	2321	  2	  1	 11	  3	  1	  4	  2	  4	  1	  2	  1	0.52499	  1	0.90000	  0	 14	 32	 33	  0	
20-Apr-2013	sub2321	2321	  2	  1	 12	  3	  1	  4	  2	  4	  1	  2	  1	0.45278	  1	0.90000	  0	 14	 32	 33	  1	
20-Apr-2013	sub2321	2321	  2	  1	 13	  3	  1	  2	  4	  2	  1	  2	  1	0.53484	  1	0.90000	  0	 12	 30	 31	  0	
20-Apr-2013	sub2321	2321	  2	  1	 14	  3	  1	  3	  5	  2	  1	  2	  0	0.46198	  0	0.90000	  0	 13	 42	 43	  1	
20-Apr-2013	sub2321	2321	  2	  1	 15	  3	  1	  6	  3	  4	  1	  1	  0	0.32638	  0	0.90000	  0	 16	 45	 46	  1	
20-Apr-2013	sub2321	2321	  2	  1	 16	  3	  1	  4	  2	  4	  1	  2	  1	0.50744	  1	0.80000	  0	 14	 32	 33	  0	
20-Apr-2013	sub2321	2321	  2	  1	 17	  3	  1	  5	  1	  2	  1	  1	  1	0.53924	  1	0.80000	  0	 15	 35	 36	  0	
20-Apr-2013	sub2321	2321	  2	  1	 18	  3	  1	  6	  3	  4	  0	  1	  1	0.43552	  0	0.70000	  0	 16	 47	 38	  1	
20-Apr-2013	sub2321	2321	  2	  1	 19	  3	  1	  3	  5	  2	  1	  1	  1	0.50739	  1	0.70000	  0	 13	 32	 33	  0	
20-Apr-2013	sub2321	2321	  2	  1	 20	  3	  1	  3	  5	  2	  1	  1	  1	0.45378	  1	0.70000	  0	 13	 32	 33	  1	
20-Apr-2013	sub2321	2321	  2	  1	 21	  3	  1	  6	  3	  4	  0	  1	  1	0.38567	  0	0.60000	  0	 16	 47	 38	  1	
20-Apr-2013	sub2321	2321	  2	  1	 22	  3	  1	  6	  3	  4	  1	  1	  0	0.28667	  0	0.60000	  0	 16	 45	 46	  1	
20-Apr-2013	sub2321	2321	  2	  1	 23	  3	  1	  4	  2	  4	  1	  2	  1	0.55597	  1	0.60000	  0	 14	 32	 33	  0	
20-Apr-2013	sub2321	2321	  2	  1	 24	  3	  1	  5	  1	  2	  1	  1	  1	0.42662	  1	0.60000	  0	 15	 35	 36	  1	
20-Apr-2013	sub2321	2321	  2	  1	 25	  3	  1	  1	  6	  1	  1	  2	  0	0.54478	  0	0.60000	  0	 11	 40	 41	  0	
20-Apr-2013	sub2321	2321	  2	  1	 26	  3	  1	  1	  6	  1	  1	  1	  1	0.50728	  1	0.50000	  1	 11	 30	 51	  0	
20-Apr-2013	sub2321	2321	  2	  1	 27	  3	  1	  2	  4	  2	  1	  1	  0	0.73052	  0	0.90000	  0	 12	 40	 41	  0	
20-Apr-2013	sub2321	2321	  2	  1	 28	  3	  1	  3	  5	  2	  1	  2	  0	0.34128	  0	0.90000	  0	 13	 42	 43	  1	
20-Apr-2013	sub2321	2321	  2	  1	 29	  3	  1	  4	  2	  4	  1	  2	  1	0.61042	  1	0.90000	  0	 14	 32	 33	  0	
20-Apr-2013	sub2321	2321	  2	  1	 30	  3	  1	  2	  4	  2	  1	  1	  0	0.47336	  0	0.80000	  0	 12	 40	 41	  1	
20-Apr-2013	sub2321	2321	  2	  1	 31	  3	  1	  1	  6	  1	  1	  1	  1	0.53064	  1	0.80000	  0	 11	 30	 31	  0	
20-Apr-2013	sub2321	2321	  2	  1	 32	  3	  1	  5	  1	  2	  1	  1	  1	0.50475	  1	0.80000	  0	 15	 35	 36	  0	
20-Apr-2013	sub2321	2321	  2	  1	 33	  3	  1	  1	  6	  1	  1	  1	  1	0.39806	  1	0.80000	  0	 11	 30	 31	  1	
20-Apr-2013	sub2321	2321	  2	  1	 34	  3	  1	  4	  2	  4	  1	  2	  1	0.62817	  1	0.80000	  0	 14	 32	 33	  0	
20-Apr-2013	sub2321	2321	  2	  1	 35	  3	  1	  4	  2	  4	  1	  2	  1	0.54197	  1	0.70000	  0	 14	 32	 33	  0	
20-Apr-2013	sub2321	2321	  2	  1	 36	  3	  1	  6	  3	  4	  1	  1	  0	0.41849	  0	0.70000	  0	 16	 45	 46	  1	
20-Apr-2013	sub2321	2321	  2	  1	 37	  3	  1	  3	  5	  2	  1	  2	  0	0.45117	  0	0.70000	  0	 13	 42	 43	  1	
20-Apr-2013	sub2321	2321	  2	  1	 38	  3	  1	  1	  6	  1	  1	  1	  1	0.55780	  1	0.70000	  0	 11	 30	 31	  0	
20-Apr-2013	sub2321	2321	  2	  1	 39	  3	  1	  1	  6	  1	  1	  1	  1	0.42574	  1	0.70000	  0	 11	 30	 31	  1	
20-Apr-2013	sub2321	2321	  2	  1	 40	  3	  1	  2	  4	  2	  1	  2	  1	0.45668	  1	0.70000	  0	 12	 30	 31	  1	
20-Apr-2013	sub2321	2321	  2	  1	 41	  3	  1	  5	  1	  2	  0	  1	  0	0.52871	  1	0.60000	  0	 15	 37	 48	  0	
20-Apr-2013	sub2321	2321	  2	  1	 42	  3	  1	  4	  2	  4	  1	  2	  1	0.52133	  1	0.60000	  0	 14	 32	 33	  0	
20-Apr-2013	sub2321	2321	  2	  1	 43	  3	  1	  3	  5	  2	  0	  1	  0	0.38707	  1	0.60000	  0	 13	 34	 49	  1	
20-Apr-2013	sub2321	2321	  2	  1	 44	  3	  1	  3	  5	  2	  0	  1	  0	0.35265	  1	0.60000	  0	 13	 34	 49	  1	
20-Apr-2013	sub2321	2321	  2	  1	 45	  3	  1	  5	  1	  2	  0	  2	  1	0.37011	  0	0.60000	  0	 15	 47	 38	  1	
20-Apr-2013	sub2321	2321	  2	  1	 46	  3	  1	  5	  1	  2	  1	  2	  0	0.41506	  0	0.60000	  0	 15	 45	 46	  1	
20-Apr-2013	sub2321	2321	  2	  1	 47	  3	  1	  2	  4	  2	  1	  1	  0	0.34530	  0	0.60000	  0	 12	 40	 41	  1	
20-Apr-2013	sub2321	2321	  2	  1	 48	  3	  1	  5	  1	  2	  1	  1	  1	0.46297	  1	0.60000	  0	 15	 35	 36	  1	
20-Apr-2013	sub2321	2321	  2	  1	 49	  3	  1	  6	  3	  4	  0	  1	  1	0.55812	  0	0.60000	  0	 16	 47	 38	  0	
20-Apr-2013	sub2321	2321	  2	  1	 50	  3	  1	  2	  4	  2	  1	  1	  0	0.30763	  0	0.60000	  0	 12	 40	 41	  1	
20-Apr-2013	sub2321	2321	  2	  1	 51	  3	  1	  4	  2	  4	  0	  2	  0	0.44563	  1	0.50000	  0	 14	 34	 49	  1	
20-Apr-2013	sub2321	2321	  2	  1	 52	  3	  1	  3	  5	  2	  1	  2	  0	0.64978	  0	0.50000	  1	 13	 42	 51	  0	
20-Apr-2013	sub2321	2321	  2	  1	 53	  3	  1	  6	  3	  4	  0	  2	  0	0.27502	  1	0.70000	  0	 16	 37	 48	  1	
20-Apr-2013	sub2321	2321	  2	  1	 54	  3	  1	  6	  3	  4	  1	  2	  1	0.41187	  1	0.70000	  0	 16	 35	 36	  1	
20-Apr-2013	sub2321	2321	  2	  1	 55	  3	  1	  2	  4	  2	  1	  1	  0	0.50379	  0	0.70000	  0	 12	 40	 41	  0	
20-Apr-2013	sub2321	2321	  2	  1	 56	  3	  1	  5	  1	  2	  0	  2	  1	0.28731	  0	0.70000	  0	 15	 47	 38	  1	
20-Apr-2013	sub2321	2321	  2	  1	 57	  3	  1	  4	  2	  4	  1	  2	  1	0.48551	  1	0.70000	  0	 14	 32	 33	  1	
20-Apr-2013	sub2321	2321	  2	  1	 58	  3	  1	  2	  4	  2	  1	  1	  0	0.47616	  0	0.70000	  0	 12	 40	 41	  1	
20-Apr-2013	sub2321	2321	  2	  1	 59	  3	  1	  6	  3	  4	  0	  1	  1	0.45936	  0	0.70000	  0	 16	 47	 38	  1	
20-Apr-2013	sub2321	2321	  2	  1	 60	  3	  1	  5	  1	  2	  0	  1	  0	0.66024	  1	0.70000	  0	 15	 37	 48	  0	
20-Apr-2013	sub2321	2321	  2	  1	 61	  3	  1	  2	  4	  2	  1	  2	  1	0.43447	  1	0.60000	  0	 12	 30	 31	  1	
20-Apr-2013	sub2321	2321	  2	  1	 62	  3	  1	  3	  5	  2	  1	  2	  0	0.52138	  0	0.60000	  0	 13	 42	 43	  0	
20-Apr-2013	sub2321	2321	  2	  1	 63	  3	  1	  4	  2	  4	  1	  2	  1	0.55065	  1	0.60000	  0	 14	 32	 33	  0	
20-Apr-2013	sub2321	2321	  2	  1	 64	  3	  1	  6	  3	  4	  1	  1	  0	0.46742	  0	0.60000	  0	 16	 45	 46	  1	
20-Apr-2013	sub2321	2321	  2	  1	 65	  3	  1	  1	  6	  1	  1	  1	  1	0.51072	  1	0.60000	  0	 11	 30	 31	  0	
20-Apr-2013	sub2321	2321	  2	  1	 66	  3	  1	  2	  4	  2	  1	  1	  0	0.40482	  0	0.60000	  0	 12	 40	 41	  1	
20-Apr-2013	sub2321	2321	  2	  1	 67	  3	  1	  5	  1	  2	  0	  2	  1	0.47174	  0	0.60000	  0	 15	 47	 38	  1	
20-Apr-2013	sub2321	2321	  2	  1	 68	  3	  1	  3	  5	  2	  1	  2	  0	0.43698	  0	0.60000	  0	 13	 42	 43	  1	
20-Apr-2013	sub2321	2321	  2	  1	 69	  3	  1	  5	  1	  2	  1	  1	  1	0.51258	  1	0.60000	  0	 15	 35	 36	  0	
20-Apr-2013	sub2321	2321	  2	  1	 70	  3	  1	  2	  4	  2	  1	  2	  1	0.48800	  1	0.60000	  0	 12	 30	 31	  1	
20-Apr-2013	sub2321	2321	  2	  1	 71	  3	  1	  1	  6	  1	  1	  2	  0	0.44726	  0	0.60000	  0	 11	 40	 41	  1	
20-Apr-2013	sub2321	2321	  2	  1	 72	  3	  1	  1	  6	  1	  1	  1	  1	0.46619	  1	0.60000	  0	 11	 30	 31	  1	
20-Apr-2013	sub2321	2321	  2	  1	 73	  3	  1	  4	  2	  4	  0	  2	  0	0.52048	  1	0.60000	  0	 14	 34	 49	  0	
20-Apr-2013	sub2321	2321	  2	  1	 74	  3	  1	  5	  1	  2	  0	  1	  0	0.46625	  1	0.60000	  0	 15	 37	 48	  1	
20-Apr-2013	sub2321	2321	  2	  1	 75	  3	  1	  1	  6	  1	  1	  2	  0	0.41773	  0	0.60000	  0	 11	 40	 41	  1	
20-Apr-2013	sub2321	2321	  2	  1	 76	  3	  2	  5	  1	  2	  0	  1	  0	0.43101	  1	0.50000	  0	 25	 67	 88	  1	
20-Apr-2013	sub2321	2321	  2	  1	 77	  3	  2	  6	  3	  4	  0	  1	  1	0.57190	  0	0.50000	  1	 26	 87	 51	  0	
20-Apr-2013	sub2321	2321	  2	  1	 78	  3	  2	  1	  6	  1	  1	  1	  1	0.46689	  1	0.70000	  0	 21	 60	 61	  1	
20-Apr-2013	sub2321	2321	  2	  1	 79	  3	  2	  1	  6	  1	  1	  1	  1	0.46867	  1	0.70000	  0	 21	 60	 61	  1	
20-Apr-2013	sub2321	2321	  2	  1	 80	  3	  2	  1	  6	  1	  1	  1	  1	0.38481	  1	0.70000	  0	 21	 60	 61	  1	
20-Apr-2013	sub2321	2321	  2	  1	 81	  3	  2	  4	  2	  4	  1	  2	  1	0.50342	  1	0.60000	  0	 24	 62	 63	  0	
20-Apr-2013	sub2321	2321	  2	  1	 82	  3	  2	  3	  5	  2	  1	  1	  1	0.47130	  1	0.60000	  0	 23	 62	 63	  1	
20-Apr-2013	sub2321	2321	  2	  1	 83	  3	  2	  5	  1	  2	  0	  1	  0	0.53264	  1	0.60000	  0	 25	 67	 88	  0	
20-Apr-2013	sub2321	2321	  2	  1	 84	  3	  2	  4	  2	  4	  1	  2	  1	0.59917	  1	0.60000	  0	 24	 62	 63	  0	
20-Apr-2013	sub2321	2321	  2	  1	 85	  3	  2	  3	  5	  2	  1	  1	  1	0.39735	  1	0.60000	  0	 23	 62	 63	  1	
20-Apr-2013	sub2321	2321	  2	  1	 86	  3	  2	  5	  1	  2	  0	  1	  0	0.38844	  1	0.60000	  0	 25	 67	 88	  1	
20-Apr-2013	sub2321	2321	  2	  1	 87	  3	  2	  5	  1	  2	  0	  2	  1	0.28423	  0	0.60000	  0	 25	 87	 68	  1	
20-Apr-2013	sub2321	2321	  2	  1	 88	  3	  2	  2	  4	  2	  1	  2	  1	0.37086	  1	0.60000	  0	 22	 60	 61	  1	
20-Apr-2013	sub2321	2321	  2	  1	 89	  3	  2	  6	  3	  4	  0	  1	  1	0.28395	  0	0.60000	  0	 26	 87	 68	  1	
20-Apr-2013	sub2321	2321	  2	  1	 90	  3	  2	  1	  6	  1	  1	  2	  0	0.60814	  0	0.60000	  1	 21	 80	 51	  0	
20-Apr-2013	sub2321	2321	  2	  1	 91	  3	  2	  3	  5	  2	  0	  2	  1	0.39261	  0	0.70000	  0	 23	 84	 69	  1	
20-Apr-2013	sub2321	2321	  2	  1	 92	  3	  2	  5	  1	  2	  0	  1	  0	0.40328	  1	0.70000	  0	 25	 67	 88	  1	
20-Apr-2013	sub2321	2321	  2	  1	 93	  3	  2	  1	  6	  1	  1	  1	  1	0.49496	  1	0.70000	  0	 21	 60	 61	  1	
20-Apr-2013	sub2321	2321	  2	  1	 94	  3	  2	  1	  6	  1	  1	  1	  1	0.38698	  1	0.70000	  0	 21	 60	 61	  1	
20-Apr-2013	sub2321	2321	  2	  1	 95	  3	  2	  2	  4	  2	  1	  2	  1	0.52519	  1	0.70000	  0	 22	 60	 61	  0	
20-Apr-2013	sub2321	2321	  2	  1	 96	  3	  2	  3	  5	  2	  1	  1	  1	0.52774	  1	0.70000	  0	 23	 62	 63	  0	
20-Apr-2013	sub2321	2321	  2	  1	 97	  3	  2	  4	  2	  4	  0	  1	  1	0.43803	  0	0.70000	  0	 24	 84	 69	  1	
20-Apr-2013	sub2321	2321	  2	  1	 98	  3	  2	  1	  6	  1	  1	  1	  1	0.36041	  1	0.70000	  0	 21	 60	 61	  1	
20-Apr-2013	sub2321	2321	  2	  1	 99	  3	  2	  6	  3	  4	  1	  1	  0	0.32958	  0	0.70000	  0	 26	 85	 86	  1	
20-Apr-2013	sub2321	2321	  2	  1	100	  3	  2	  2	  4	  2	  1	  2	  1	0.49832	  1	0.70000	  0	 22	 60	 61	  1	
20-Apr-2013	sub2321	2321	  2	  1	101	  3	  2	  6	  3	  4	  0	  1	  1	0.30870	  0	0.60000	  0	 26	 87	 68	  1	
20-Apr-2013	sub2321	2321	  2	  1	102	  3	  2	  4	  2	  4	  1	  2	  1	0.46558	  1	0.60000	  0	 24	 62	 63	  1	
20-Apr-2013	sub2321	2321	  2	  1	103	  3	  2	  2	  4	  2	  1	  1	  0	0.26554	  0	0.60000	  0	 22	 80	 81	  1	
20-Apr-2013	sub2321	2321	  2	  1	104	  3	  2	  4	  2	  4	  1	  1	  0	0.40777	  0	0.60000	  0	 24	 82	 83	  1	
20-Apr-2013	sub2321	2321	  2	  1	105	  3	  2	  2	  4	  2	  1	  2	  1	0.32415	  1	0.60000	  0	 22	 60	 61	  1	
20-Apr-2013	sub2321	2321	  2	  1	106	  3	  2	  4	  2	  4	  1	  1	  0	0.29174	  0	0.60000	  0	 24	 82	 83	  1	
20-Apr-2013	sub2321	2321	  2	  1	107	  3	  2	  6	  3	  4	  1	  2	  1	0.35474	  1	0.60000	  0	 26	 65	 66	  1	
20-Apr-2013	sub2321	2321	  2	  1	108	  3	  2	  4	  2	  4	  1	  2	  1	0.48428	  1	0.60000	  0	 24	 62	 63	  1	
20-Apr-2013	sub2321	2321	  2	  1	109	  3	  2	  1	  6	  1	  1	  2	  0	0.42315	  0	0.60000	  0	 21	 80	 81	  1	
20-Apr-2013	sub2321	2321	  2	  1	110	  3	  2	  3	  5	  2	  1	  1	  1	0.39586	  1	0.60000	  0	 23	 62	 63	  1	
20-Apr-2013	sub2321	2321	  2	  1	111	  3	  2	  2	  4	  2	  1	  2	  1	0.43715	  1	0.60000	  0	 22	 60	 61	  1	
20-Apr-2013	sub2321	2321	  2	  1	112	  3	  2	  4	  2	  4	  0	  1	  1	0.40594	  0	0.60000	  0	 24	 84	 69	  1	
20-Apr-2013	sub2321	2321	  2	  1	113	  3	  2	  4	  2	  4	  0	  2	  0	0.57184	  1	0.60000	  0	 24	 64	 89	  0	
20-Apr-2013	sub2321	2321	  2	  1	114	  3	  2	  4	  2	  4	  1	  2	  1	0.49614	  1	0.60000	  0	 24	 62	 63	  1	
20-Apr-2013	sub2321	2321	  2	  1	115	  3	  2	  1	  6	  1	  1	  1	  1	0.40931	  1	0.60000	  0	 21	 60	 61	  1	
20-Apr-2013	sub2321	2321	  2	  1	116	  3	  2	  6	  3	  4	  1	  1	  0	0.63570	  0	0.60000	  1	 26	 85	 51	  0	
20-Apr-2013	sub2321	2321	  2	  1	117	  3	  2	  5	  1	  2	  0	  1	  0	0.50160	  1	0.70000	  0	 25	 67	 88	  0	
20-Apr-2013	sub2321	2321	  2	  1	118	  3	  2	  1	  6	  1	  1	  1	  1	0.47843	  1	0.70000	  0	 21	 60	 61	  1	
20-Apr-2013	sub2321	2321	  2	  1	119	  3	  2	  2	  4	  2	  1	  1	  0	0.42381	  0	0.70000	  0	 22	 80	 81	  1	
20-Apr-2013	sub2321	2321	  2	  1	120	  3	  2	  3	  5	  2	  1	  1	  1	0.37607	  1	0.70000	  0	 23	 62	 63	  1	
20-Apr-2013	sub2321	2321	  2	  1	121	  3	  2	  6	  3	  4	  0	  1	  1	0.29498	  0	0.60000	  0	 26	 87	 68	  1	
20-Apr-2013	sub2321	2321	  2	  1	122	  3	  2	  2	  4	  2	  1	  1	  0	0.37012	  0	0.60000	  0	 22	 80	 81	  1	
20-Apr-2013	sub2321	2321	  2	  1	123	  3	  2	  3	  5	  2	  1	  2	  0	0.40829	  0	0.60000	  0	 23	 82	 83	  1	
20-Apr-2013	sub2321	2321	  2	  1	124	  3	  2	  5	  1	  2	  0	  1	  0	0.25192	  1	0.60000	  0	 25	 67	 88	  1	
20-Apr-2013	sub2321	2321	  2	  1	125	  3	  2	  3	  5	  2	  1	  1	  1	0.26307	  1	0.60000	  0	 23	 62	 63	  1	
20-Apr-2013	sub2321	2321	  2	  1	126	  3	  2	  5	  1	  2	  0	  1	  0	0.31712	  1	0.60000	  0	 25	 67	 88	  1	
20-Apr-2013	sub2321	2321	  2	  1	127	  3	  2	  6	  3	  4	  0	  1	  1	0.29254	  0	0.60000	  0	 26	 87	 68	  1	
20-Apr-2013	sub2321	2321	  2	  1	128	  3	  2	  3	  5	  2	  1	  1	  1	0.31504	  1	0.60000	  0	 23	 62	 63	  1	
20-Apr-2013	sub2321	2321	  2	  1	129	  3	  2	  4	  2	  4	  1	  1	  0	0.29189	  0	0.60000	  0	 24	 82	 83	  1	
20-Apr-2013	sub2321	2321	  2	  1	130	  3	  2	  5	  1	  2	  0	  2	  1	0.38555	  0	0.60000	  0	 25	 87	 68	  1	
20-Apr-2013	sub2321	2321	  2	  1	131	  3	  2	  6	  3	  4	  1	  1	  0	0.34975	  0	0.60000	  0	 26	 85	 86	  1	
20-Apr-2013	sub2321	2321	  2	  1	132	  3	  2	  6	  3	  4	  1	  2	  1	0.30821	  1	0.60000	  0	 26	 65	 66	  1	
20-Apr-2013	sub2321	2321	  2	  1	133	  3	  2	  1	  6	  1	  1	  2	  0	0.53885	  0	0.60000	  0	 21	 80	 81	  0	
20-Apr-2013	sub2321	2321	  2	  1	134	  3	  2	  5	  1	  2	  0	  1	  0	0.53054	  1	0.60000	  0	 25	 67	 88	  0	
20-Apr-2013	sub2321	2321	  2	  1	135	  3	  2	  3	  5	  2	  0	  2	  1	0.50726	  0	0.60000	  0	 23	 84	 69	  0	
20-Apr-2013	sub2321	2321	  2	  1	136	  3	  2	  4	  2	  4	  1	  2	  1	0.45830	  1	0.60000	  0	 24	 62	 63	  1	
20-Apr-2013	sub2321	2321	  2	  1	137	  3	  2	  1	  6	  1	  1	  1	  1	0.51037	  1	0.60000	  0	 21	 60	 61	  0	
20-Apr-2013	sub2321	2321	  2	  1	138	  3	  2	  5	  1	  2	  0	  1	  0	0.49372	  1	0.60000	  0	 25	 67	 88	  1	
20-Apr-2013	sub2321	2321	  2	  1	139	  3	  2	  2	  4	  2	  1	  2	  1	0.55885	  1	0.60000	  0	 22	 60	 61	  0	
20-Apr-2013	sub2321	2321	  2	  1	140	  3	  2	  2	  4	  2	  1	  2	  1	0.50363	  1	0.60000	  0	 22	 60	 61	  0	
20-Apr-2013	sub2321	2321	  2	  1	141	  3	  2	  4	  2	  4	  1	  2	  1	0.52464	  1	0.60000	  0	 24	 62	 63	  0	
20-Apr-2013	sub2321	2321	  2	  1	142	  3	  2	  6	  3	  4	  0	  1	  1	0.49857	  0	0.60000	  0	 26	 87	 68	  1	
20-Apr-2013	sub2321	2321	  2	  1	143	  3	  2	  3	  5	  2	  1	  1	  1	0.43236	  1	0.60000	  0	 23	 62	 63	  1	
20-Apr-2013	sub2321	2321	  2	  1	144	  3	  2	  5	  1	  2	  0	  2	  1	0.63208	  0	0.60000	  1	 25	 87	 51	  0	
20-Apr-2013	sub2321	2321	  2	  1	145	  3	  2	  5	  1	  2	  0	  2	  1	0.40793	  0	0.60000	  0	 25	 87	 68	  1	
20-Apr-2013	sub2321	2321	  2	  1	146	  3	  2	  2	  4	  2	  1	  2	  1	0.58074	  1	0.60000	  0	 22	 60	 61	  0	
20-Apr-2013	sub2321	2321	  2	  1	147	  3	  2	  2	  4	  2	  1	  1	  0	0.35028	  0	0.60000	  0	 22	 80	 81	  1	
20-Apr-2013	sub2321	2321	  2	  1	148	  3	  2	  3	  5	  2	  1	  2	  0	0.36881	  0	0.60000	  0	 23	 82	 83	  1	
20-Apr-2013	sub2321	2321	  2	  1	149	  3	  2	  6	  3	  4	  1	  1	  0	0.27983	  0	0.60000	  0	 26	 85	 86	  1	
20-Apr-2013	sub2321	2321	  2	  1	150	  3	  2	  1	  6	  1	  1	  1	  1	0.51294	  1	0.60000	  0	 21	 60	 61	  0	
20-Apr-2013	sub2321	2321	  2	  1	  1	  4	  1	  1	  2	  5	  1	  2	  0	0.40140	  0	0.60000	  0	 11	 40	 41	  1	
20-Apr-2013	sub2321	2321	  2	  1	  2	  4	  1	  5	  3	  5	  0	  1	  0	0.40150	  1	0.30000	  1	 15	 37	 51	  1	
20-Apr-2013	sub2321	2321	  2	  1	  3	  4	  1	  5	  3	  5	  1	  1	  1	0.45847	  1	0.90000	  0	 15	 35	 36	  1	
20-Apr-2013	sub2321	2321	  2	  1	  4	  4	  1	  3	  1	  6	  1	  2	  0	0.51984	  0	0.90000	  0	 13	 42	 43	  0	
20-Apr-2013	sub2321	2321	  2	  1	  5	  4	  1	  5	  3	  5	  1	  1	  1	0.49897	  1	0.90000	  0	 15	 35	 36	  1	
20-Apr-2013	sub2321	2321	  2	  1	  6	  4	  1	  1	  2	  5	  1	  1	  1	0.40900	  1	0.90000	  0	 11	 30	 31	  1	
20-Apr-2013	sub2321	2321	  2	  1	  7	  4	  1	  5	  3	  5	  1	  1	  1	0.51139	  1	0.90000	  0	 15	 35	 36	  0	
20-Apr-2013	sub2321	2321	  2	  1	  8	  4	  1	  2	  6	  6	  1	  2	  1	0.51757	  1	0.90000	  0	 12	 30	 31	  0	
20-Apr-2013	sub2321	2321	  2	  1	  9	  4	  1	  4	  5	  4	  1	  1	  0	0.47662	  0	0.90000	  0	 14	 42	 43	  1	
20-Apr-2013	sub2321	2321	  2	  1	 10	  4	  1	  4	  5	  4	  1	  2	  1	0.52245	  1	0.90000	  0	 14	 32	 33	  0	
20-Apr-2013	sub2321	2321	  2	  1	 11	  4	  1	  3	  1	  6	  1	  2	  0	0.44403	  0	0.90000	  0	 13	 42	 43	  1	
20-Apr-2013	sub2321	2321	  2	  1	 12	  4	  1	  3	  1	  6	  1	  2	  0	0.55302	  0	0.90000	  0	 13	 42	 43	  0	
20-Apr-2013	sub2321	2321	  2	  1	 13	  4	  1	  3	  1	  6	  1	  1	  1	0.41325	  1	0.90000	  0	 13	 32	 33	  1	
20-Apr-2013	sub2321	2321	  2	  1	 14	  4	  1	  4	  5	  4	  1	  2	  1	0.62594	  1	0.90000	  0	 14	 32	 33	  0	
20-Apr-2013	sub2321	2321	  2	  1	 15	  4	  1	  2	  6	  6	  1	  2	  1	0.61849	  1	0.90000	  0	 12	 30	 31	  0	
20-Apr-2013	sub2321	2321	  2	  1	 16	  4	  1	  6	  4	  4	  0	  2	  0	0.46333	  1	0.80000	  0	 16	 37	 48	  1	
20-Apr-2013	sub2321	2321	  2	  1	 17	  4	  1	  5	  3	  5	  0	  1	  0	0.53158	  1	0.80000	  0	 15	 37	 48	  0	
20-Apr-2013	sub2321	2321	  2	  1	 18	  4	  1	  2	  6	  6	  1	  1	  0	0.49045	  0	0.70000	  0	 12	 40	 41	  1	
20-Apr-2013	sub2321	2321	  2	  1	 19	  4	  1	  5	  3	  5	  1	  1	  1	0.42090	  1	0.70000	  0	 15	 35	 36	  1	
20-Apr-2013	sub2321	2321	  2	  1	 20	  4	  1	  4	  5	  4	  0	  1	  1	0.55634	  0	0.70000	  0	 14	 44	 39	  0	
20-Apr-2013	sub2321	2321	  2	  1	 21	  4	  1	  5	  3	  5	  1	  1	  1	0.39570	  1	0.60000	  0	 15	 35	 36	  1	
20-Apr-2013	sub2321	2321	  2	  1	 22	  4	  1	  6	  4	  4	  0	  1	  1	0.31162	  0	0.60000	  0	 16	 47	 38	  1	
20-Apr-2013	sub2321	2321	  2	  1	 23	  4	  1	  3	  1	  6	  1	  1	  1	0.48493	  1	0.60000	  0	 13	 32	 33	  1	
20-Apr-2013	sub2321	2321	  2	  1	 24	  4	  1	  1	  2	  5	  1	  1	  1	0.41708	  1	0.60000	  0	 11	 30	 31	  1	
20-Apr-2013	sub2321	2321	  2	  1	 25	  4	  1	  4	  5	  4	  1	  1	  0	0.41351	  0	0.60000	  0	 14	 42	 43	  1	
20-Apr-2013	sub2321	2321	  2	  1	 26	  4	  1	  2	  6	  6	  1	  2	  1	0.47741	  1	0.50000	  0	 12	 30	 31	  1	
20-Apr-2013	sub2321	2321	  2	  1	 27	  4	  1	  1	  2	  5	  1	  1	  1	0.52909	  1	0.50000	  1	 11	 30	 51	  0	
20-Apr-2013	sub2321	2321	  2	  1	 28	  4	  1	  1	  2	  5	  1	  1	  1	0.48270	  1	0.90000	  0	 11	 30	 31	  1	
20-Apr-2013	sub2321	2321	  2	  1	 29	  4	  1	  1	  2	  5	  1	  1	  1	0.49656	  1	0.90000	  0	 11	 30	 31	  1	
20-Apr-2013	sub2321	2321	  2	  1	 30	  4	  1	  5	  3	  5	  0	  1	  0	0.40750	  1	0.80000	  0	 15	 37	 48	  1	
20-Apr-2013	sub2321	2321	  2	  1	 31	  4	  1	  6	  4	  4	  1	  2	  1	0.48645	  1	0.80000	  0	 16	 35	 36	  1	
20-Apr-2013	sub2321	2321	  2	  1	 32	  4	  1	  4	  5	  4	  1	  1	  0	0.31600	  0	0.80000	  0	 14	 42	 43	  1	
20-Apr-2013	sub2321	2321	  2	  1	 33	  4	  1	  6	  4	  4	  0	  1	  1	0.27340	  0	0.80000	  0	 16	 47	 38	  1	
20-Apr-2013	sub2321	2321	  2	  1	 34	  4	  1	  2	  6	  6	  1	  1	  0	0.28610	  0	0.80000	  0	 12	 40	 41	  1	
20-Apr-2013	sub2321	2321	  2	  1	 35	  4	  1	  1	  2	  5	  1	  2	  0	0.23088	  0	0.70000	  0	 11	 40	 41	  1	
20-Apr-2013	sub2321	2321	  2	  1	 36	  4	  1	  1	  2	  5	  1	  1	  1	0.33009	  1	0.70000	  0	 11	 30	 31	  1	
20-Apr-2013	sub2321	2321	  2	  1	 37	  4	  1	  5	  3	  5	  0	  1	  0	0.48893	  1	0.70000	  0	 15	 37	 48	  1	
20-Apr-2013	sub2321	2321	  2	  1	 38	  4	  1	  6	  4	  4	  0	  1	  1	0.49382	  0	0.70000	  0	 16	 47	 38	  1	
20-Apr-2013	sub2321	2321	  2	  1	 39	  4	  1	  3	  1	  6	  1	  1	  1	0.32689	  1	0.70000	  0	 13	 32	 33	  1	
20-Apr-2013	sub2321	2321	  2	  1	 40	  4	  1	  1	  2	  5	  1	  1	  1	0.38650	  1	0.70000	  0	 11	 30	 31	  1	
20-Apr-2013	sub2321	2321	  2	  1	 41	  4	  1	  4	  5	  4	  1	  1	  0	0.32487	  0	0.60000	  0	 14	 42	 43	  1	
20-Apr-2013	sub2321	2321	  2	  1	 42	  4	  1	  6	  4	  4	  0	  1	  1	0.25694	  0	0.60000	  0	 16	 47	 38	  1	
20-Apr-2013	sub2321	2321	  2	  1	 43	  4	  1	  2	  6	  6	  1	  1	  0	0.27649	  0	0.60000	  0	 12	 40	 41	  1	
20-Apr-2013	sub2321	2321	  2	  1	 44	  4	  1	  1	  2	  5	  1	  2	  0	0.23319	  0	0.60000	  0	 11	 40	 41	  1	
20-Apr-2013	sub2321	2321	  2	  1	 45	  4	  1	  2	  6	  6	  1	  1	  0	0.36469	  0	0.60000	  0	 12	 40	 41	  1	
20-Apr-2013	sub2321	2321	  2	  1	 46	  4	  1	  1	  2	  5	  1	  1	  1	0.30276	  1	0.60000	  0	 11	 30	 31	  1	
20-Apr-2013	sub2321	2321	  2	  1	 47	  4	  1	  6	  4	  4	  0	  1	  1	0.50335	  0	0.60000	  0	 16	 47	 38	  0	
20-Apr-2013	sub2321	2321	  2	  1	 48	  4	  1	  5	  3	  5	  1	  1	  1	0.29536	  1	0.60000	  0	 15	 35	 36	  1	
20-Apr-2013	sub2321	2321	  2	  1	 49	  4	  1	  3	  1	  6	  1	  1	  1	0.28832	  1	0.60000	  0	 13	 32	 33	  1	
20-Apr-2013	sub2321	2321	  2	  1	 50	  4	  1	  5	  3	  5	  0	  1	  0	0.35454	  1	0.60000	  0	 15	 37	 48	  1	
20-Apr-2013	sub2321	2321	  2	  1	 51	  4	  1	  2	  6	  6	  1	  2	  1	0.45078	  1	0.50000	  0	 12	 30	 31	  1	
20-Apr-2013	sub2321	2321	  2	  1	 52	  4	  1	  2	  6	  6	  1	  1	  0	0.29095	  0	0.50000	  0	 12	 40	 41	  1	
20-Apr-2013	sub2321	2321	  2	  1	 53	  4	  1	  3	  1	  6	  0	  1	  0	0.37772	  1	0.50000	  0	 13	 34	 49	  1	
20-Apr-2013	sub2321	2321	  2	  1	 54	  4	  1	  4	  5	  4	  1	  1	  0	0.57799	  0	0.50000	  1	 14	 42	 51	  0	
20-Apr-2013	sub2321	2321	  2	  1	 55	  4	  1	  6	  4	  4	  0	  1	  1	0.29448	  0	0.70000	  0	 16	 47	 38	  1	
20-Apr-2013	sub2321	2321	  2	  1	 56	  4	  1	  6	  4	  4	  1	  1	  0	0.22986	  0	0.70000	  0	 16	 45	 46	  1	
20-Apr-2013	sub2321	2321	  2	  1	 57	  4	  1	  3	  1	  6	  1	  1	  1	0.46881	  1	0.70000	  0	 13	 32	 33	  1	
20-Apr-2013	sub2321	2321	  2	  1	 58	  4	  1	  6	  4	  4	  1	  2	  1	0.53530	  1	0.70000	  0	 16	 35	 36	  0	
20-Apr-2013	sub2321	2321	  2	  1	 59	  4	  1	  1	  2	  5	  1	  1	  1	0.49562	  1	0.70000	  0	 11	 30	 31	  1	
20-Apr-2013	sub2321	2321	  2	  1	 60	  4	  1	  3	  1	  6	  0	  1	  0	0.46176	  1	0.70000	  0	 13	 34	 49	  1	
20-Apr-2013	sub2321	2321	  2	  1	 61	  4	  1	  6	  4	  4	  0	  1	  1	0.37902	  0	0.60000	  0	 16	 47	 38	  1	
20-Apr-2013	sub2321	2321	  2	  1	 62	  4	  1	  2	  6	  6	  1	  1	  0	0.32336	  0	0.60000	  0	 12	 40	 41	  1	
20-Apr-2013	sub2321	2321	  2	  1	 63	  4	  1	  4	  5	  4	  0	  1	  1	0.39761	  0	0.60000	  0	 14	 44	 39	  1	
20-Apr-2013	sub2321	2321	  2	  1	 64	  4	  1	  2	  6	  6	  1	  1	  0	0.30648	  0	0.60000	  0	 12	 40	 41	  1	
20-Apr-2013	sub2321	2321	  2	  1	 65	  4	  1	  4	  5	  4	  1	  1	  0	0.32832	  0	0.60000	  0	 14	 42	 43	  1	
20-Apr-2013	sub2321	2321	  2	  1	 66	  4	  1	  5	  3	  5	  1	  1	  1	0.29015	  1	0.60000	  0	 15	 35	 36	  1	
20-Apr-2013	sub2321	2321	  2	  1	 67	  4	  1	  4	  5	  4	  1	  1	  0	0.41401	  0	0.60000	  0	 14	 42	 43	  1	
20-Apr-2013	sub2321	2321	  2	  1	 68	  4	  1	  6	  4	  4	  1	  1	  0	0.39297	  0	0.60000	  0	 16	 45	 46	  1	
20-Apr-2013	sub2321	2321	  2	  1	 69	  4	  1	  2	  6	  6	  1	  2	  1	0.41357	  1	0.60000	  0	 12	 30	 31	  1	
20-Apr-2013	sub2321	2321	  2	  1	 70	  4	  1	  3	  1	  6	  0	  2	  1	0.30290	  0	0.60000	  0	 13	 44	 39	  1	
20-Apr-2013	sub2321	2321	  2	  1	 71	  4	  1	  4	  5	  4	  1	  2	  1	0.44493	  1	0.60000	  0	 14	 32	 33	  1	
20-Apr-2013	sub2321	2321	  2	  1	 72	  4	  1	  3	  1	  6	  1	  2	  0	0.44252	  0	0.60000	  0	 13	 42	 43	  1	
20-Apr-2013	sub2321	2321	  2	  1	 73	  4	  1	  6	  4	  4	  1	  2	  1	0.34607	  1	0.60000	  0	 16	 35	 36	  1	
20-Apr-2013	sub2321	2321	  2	  1	 74	  4	  1	  2	  6	  6	  1	  2	  1	0.41653	  1	0.60000	  0	 12	 30	 31	  1	
20-Apr-2013	sub2321	2321	  2	  1	 75	  4	  1	  3	  1	  6	  1	  2	  0	0.27022	  0	0.60000	  0	 13	 42	 43	  1	
20-Apr-2013	sub2321	2321	  2	  1	 76	  4	  2	  4	  5	  4	  1	  1	  0	0.37377	  0	0.50000	  0	 24	 82	 83	  1	
20-Apr-2013	sub2321	2321	  2	  1	 77	  4	  2	  2	  6	  6	  1	  1	  0	0.37340	  0	0.50000	  0	 22	 80	 81	  1	
20-Apr-2013	sub2321	2321	  2	  1	 78	  4	  2	  1	  2	  5	  1	  1	  1	0.45180	  1	0.50000	  0	 21	 60	 61	  1	
20-Apr-2013	sub2321	2321	  2	  1	 79	  4	  2	  4	  5	  4	  1	  1	  0	0.36191	  0	0.50000	  0	 24	 82	 83	  1	
20-Apr-2013	sub2321	2321	  2	  1	 80	  4	  2	  6	  4	  4	  0	  1	  1	0.25282	  0	0.50000	  0	 26	 87	 68	  1	
20-Apr-2013	sub2321	2321	  2	  1	 81	  4	  2	  6	  4	  4	  1	  1	  0	0.29009	  0	0.50000	  0	 26	 85	 86	  1	
20-Apr-2013	sub2321	2321	  2	  1	 82	  4	  2	  3	  1	  6	  1	  1	  1	0.40836	  1	0.50000	  0	 23	 62	 63	  1	
20-Apr-2013	sub2321	2321	  2	  1	 83	  4	  2	  5	  3	  5	  0	  1	  0	0.41820	  1	0.50000	  0	 25	 67	 88	  1	
20-Apr-2013	sub2321	2321	  2	  1	 84	  4	  2	  4	  5	  4	  1	  1	  0	0.37713	  0	0.50000	  0	 24	 82	 83	  1	
20-Apr-2013	sub2321	2321	  2	  1	 85	  4	  2	  5	  3	  5	  0	  1	  0	0.49392	  1	0.50000	  0	 25	 67	 88	  1	
20-Apr-2013	sub2321	2321	  2	  1	 86	  4	  2	  3	  1	  6	  1	  2	  0	0.37563	  0	0.50000	  0	 23	 82	 83	  1	
20-Apr-2013	sub2321	2321	  2	  1	 87	  4	  2	  1	  2	  5	  1	  2	  0	0.34746	  0	0.50000	  0	 21	 80	 81	  1	
20-Apr-2013	sub2321	2321	  2	  1	 88	  4	  2	  5	  3	  5	  0	  1	  0	0.32719	  1	0.50000	  0	 25	 67	 88	  1	
20-Apr-2013	sub2321	2321	  2	  1	 89	  4	  2	  6	  4	  4	  1	  2	  1	0.47596	  1	0.50000	  0	 26	 65	 66	  1	
20-Apr-2013	sub2321	2321	  2	  1	 90	  4	  2	  3	  1	  6	  0	  2	  1	0.35921	  0	0.50000	  0	 23	 84	 69	  1	
20-Apr-2013	sub2321	2321	  2	  1	 91	  4	  2	  1	  2	  5	  1	  1	  1	0.39309	  1	0.50000	  0	 21	 60	 61	  1	
20-Apr-2013	sub2321	2321	  2	  1	 92	  4	  2	  5	  3	  5	  0	  1	  0	0.42736	  1	0.50000	  0	 25	 67	 88	  1	
20-Apr-2013	sub2321	2321	  2	  1	 93	  4	  2	  6	  4	  4	  1	  2	  1	0.36953	  1	0.50000	  0	 26	 65	 66	  1	
20-Apr-2013	sub2321	2321	  2	  1	 94	  4	  2	  4	  5	  4	  1	  1	  0	0.38399	  0	0.50000	  0	 24	 82	 83	  1	
20-Apr-2013	sub2321	2321	  2	  1	 95	  4	  2	  1	  2	  5	  1	  2	  0	0.50826	  0	0.50000	  1	 21	 80	 51	  0	
20-Apr-2013	sub2321	2321	  2	  1	 96	  4	  2	  4	  5	  4	  1	  1	  0	0.48557	  0	0.60000	  0	 24	 82	 83	  1	
20-Apr-2013	sub2321	2321	  2	  1	 97	  4	  2	  1	  2	  5	  1	  2	  0	0.37563	  0	0.60000	  0	 21	 80	 81	  1	
20-Apr-2013	sub2321	2321	  2	  1	 98	  4	  2	  3	  1	  6	  1	  1	  1	0.39215	  1	0.60000	  0	 23	 62	 63	  1	
20-Apr-2013	sub2321	2321	  2	  1	 99	  4	  2	  4	  5	  4	  0	  1	  1	0.34196	  0	0.60000	  0	 24	 84	 69	  1	
20-Apr-2013	sub2321	2321	  2	  1	100	  4	  2	  2	  6	  6	  1	  1	  0	0.51925	  0	0.60000	  0	 22	 80	 81	  0	
20-Apr-2013	sub2321	2321	  2	  1	101	  4	  2	  1	  2	  5	  1	  2	  0	0.41932	  0	0.50000	  0	 21	 80	 81	  1	
20-Apr-2013	sub2321	2321	  2	  1	102	  4	  2	  6	  4	  4	  0	  1	  1	0.49122	  0	0.50000	  0	 26	 87	 68	  1	
20-Apr-2013	sub2321	2321	  2	  1	103	  4	  2	  2	  6	  6	  1	  1	  0	0.39313	  0	0.50000	  0	 22	 80	 81	  1	
20-Apr-2013	sub2321	2321	  2	  1	104	  4	  2	  2	  6	  6	  1	  2	  1	0.39121	  1	0.50000	  0	 22	 60	 61	  1	
20-Apr-2013	sub2321	2321	  2	  1	105	  4	  2	  2	  6	  6	  1	  2	  1	0.39681	  1	0.50000	  0	 22	 60	 61	  1	
20-Apr-2013	sub2321	2321	  2	  1	106	  4	  2	  5	  3	  5	  0	  1	  0	0.50636	  1	0.50000	  1	 25	 67	 51	  0	
20-Apr-2013	sub2321	2321	  2	  1	107	  4	  2	  3	  1	  6	  1	  2	  0	0.38587	  0	0.60000	  0	 23	 82	 83	  1	
20-Apr-2013	sub2321	2321	  2	  1	108	  4	  2	  1	  2	  5	  1	  1	  1	0.62396	  1	0.60000	  1	 21	 60	 51	  0	
20-Apr-2013	sub2321	2321	  2	  1	109	  4	  2	  2	  6	  6	  1	  1	  0	0.31584	  0	0.70000	  0	 22	 80	 81	  1	
20-Apr-2013	sub2321	2321	  2	  1	110	  4	  2	  5	  3	  5	  0	  1	  0	0.53649	  1	0.70000	  0	 25	 67	 88	  0	
20-Apr-2013	sub2321	2321	  2	  1	111	  4	  2	  5	  3	  5	  0	  1	  0	0.46907	  1	0.70000	  0	 25	 67	 88	  1	
20-Apr-2013	sub2321	2321	  2	  1	112	  4	  2	  4	  5	  4	  0	  2	  0	0.54815	  1	0.70000	  0	 24	 64	 89	  0	
20-Apr-2013	sub2321	2321	  2	  1	113	  4	  2	  1	  2	  5	  1	  2	  0	0.28014	  0	0.70000	  0	 21	 80	 81	  1	
20-Apr-2013	sub2321	2321	  2	  1	114	  4	  2	  2	  6	  6	  1	  1	  0	0.26329	  0	0.70000	  0	 22	 80	 81	  1	
20-Apr-2013	sub2321	2321	  2	  1	115	  4	  2	  4	  5	  4	  0	  2	  0	0.31896	  1	0.70000	  0	 24	 64	 89	  1	
20-Apr-2013	sub2321	2321	  2	  1	116	  4	  2	  2	  6	  6	  1	  2	  1	0.40860	  1	0.70000	  0	 22	 60	 61	  1	
20-Apr-2013	sub2321	2321	  2	  1	117	  4	  2	  6	  4	  4	  1	  2	  1	0.42389	  1	0.70000	  0	 26	 65	 66	  1	
20-Apr-2013	sub2321	2321	  2	  1	118	  4	  2	  6	  4	  4	  1	  2	  1	0.36011	  1	0.70000	  0	 26	 65	 66	  1	
20-Apr-2013	sub2321	2321	  2	  1	119	  4	  2	  5	  3	  5	  0	  2	  1	0.38971	  0	0.70000	  0	 25	 87	 68	  1	
20-Apr-2013	sub2321	2321	  2	  1	120	  4	  2	  2	  6	  6	  1	  2	  1	0.47268	  1	0.70000	  0	 22	 60	 61	  1	
20-Apr-2013	sub2321	2321	  2	  1	121	  4	  2	  4	  5	  4	  1	  2	  1	0.46095	  1	0.60000	  0	 24	 62	 63	  1	
20-Apr-2013	sub2321	2321	  2	  1	122	  4	  2	  4	  5	  4	  1	  2	  1	0.38439	  1	0.60000	  0	 24	 62	 63	  1	
20-Apr-2013	sub2321	2321	  2	  1	123	  4	  2	  5	  3	  5	  0	  2	  1	0.44531	  0	0.60000	  0	 25	 87	 68	  1	
20-Apr-2013	sub2321	2321	  2	  1	124	  4	  2	  2	  6	  6	  1	  2	  1	0.51643	  1	0.60000	  0	 22	 60	 61	  0	
20-Apr-2013	sub2321	2321	  2	  1	125	  4	  2	  3	  1	  6	  1	  2	  0	0.49791	  0	0.60000	  0	 23	 82	 83	  1	
20-Apr-2013	sub2321	2321	  2	  1	126	  4	  2	  1	  2	  5	  1	  2	  0	0.53713	  0	0.60000	  0	 21	 80	 81	  0	
20-Apr-2013	sub2321	2321	  2	  1	127	  4	  2	  6	  4	  4	  0	  1	  1	0.48633	  0	0.60000	  0	 26	 87	 68	  1	
20-Apr-2013	sub2321	2321	  2	  1	128	  4	  2	  6	  4	  4	  0	  1	  1	0.40139	  0	0.60000	  0	 26	 87	 68	  1	
20-Apr-2013	sub2321	2321	  2	  1	129	  4	  2	  1	  2	  5	  1	  1	  1	0.34739	  1	0.60000	  0	 21	 60	 61	  1	
20-Apr-2013	sub2321	2321	  2	  1	130	  4	  2	  6	  4	  4	  0	  1	  1	0.42497	  0	0.60000	  0	 26	 87	 68	  1	
20-Apr-2013	sub2321	2321	  2	  1	131	  4	  2	  3	  1	  6	  1	  1	  1	0.34528	  1	0.60000	  0	 23	 62	 63	  1	
20-Apr-2013	sub2321	2321	  2	  1	132	  4	  2	  5	  3	  5	  0	  2	  1	0.38614	  0	0.60000	  0	 25	 87	 68	  1	
20-Apr-2013	sub2321	2321	  2	  1	133	  4	  2	  5	  3	  5	  0	  2	  1	0.48648	  0	0.60000	  0	 25	 87	 68	  1	
20-Apr-2013	sub2321	2321	  2	  1	134	  4	  2	  5	  3	  5	  0	  2	  1	0.52391	  0	0.60000	  0	 25	 87	 68	  0	
20-Apr-2013	sub2321	2321	  2	  1	135	  4	  2	  3	  1	  6	  1	  2	  0	0.43136	  0	0.60000	  0	 23	 82	 83	  1	
20-Apr-2013	sub2321	2321	  2	  1	136	  4	  2	  2	  6	  6	  1	  1	  0	0.42511	  0	0.60000	  0	 22	 80	 81	  1	
20-Apr-2013	sub2321	2321	  2	  1	137	  4	  2	  6	  4	  4	  1	  2	  1	0.34590	  1	0.60000	  0	 26	 65	 66	  1	
20-Apr-2013	sub2321	2321	  2	  1	138	  4	  2	  4	  5	  4	  1	  2	  1	0.33016	  1	0.60000	  0	 24	 62	 63	  1	
20-Apr-2013	sub2321	2321	  2	  1	139	  4	  2	  4	  5	  4	  1	  2	  1	0.38793	  1	0.60000	  0	 24	 62	 63	  1	
20-Apr-2013	sub2321	2321	  2	  1	140	  4	  2	  1	  2	  5	  1	  2	  0	0.28189	  0	0.60000	  0	 21	 80	 81	  1	
20-Apr-2013	sub2321	2321	  2	  1	141	  4	  2	  6	  4	  4	  0	  2	  0	0.61701	  1	0.60000	  1	 26	 67	 51	  0	
20-Apr-2013	sub2321	2321	  2	  1	142	  4	  2	  4	  5	  4	  1	  2	  1	0.36410	  1	0.60000	  0	 24	 62	 63	  1	
20-Apr-2013	sub2321	2321	  2	  1	143	  4	  2	  3	  1	  6	  1	  2	  0	0.27284	  0	0.60000	  0	 23	 82	 83	  1	
20-Apr-2013	sub2321	2321	  2	  1	144	  4	  2	  3	  1	  6	  1	  1	  1	0.29420	  1	0.60000	  0	 23	 62	 63	  1	
20-Apr-2013	sub2321	2321	  2	  1	145	  4	  2	  3	  1	  6	  0	  1	  0	0.35666	  1	0.60000	  0	 23	 64	 89	  1	
20-Apr-2013	sub2321	2321	  2	  1	146	  4	  2	  5	  3	  5	  0	  1	  0	0.39586	  1	0.60000	  0	 25	 67	 88	  1	
20-Apr-2013	sub2321	2321	  2	  1	147	  4	  2	  2	  6	  6	  1	  2	  1	0.47415	  1	0.60000	  0	 22	 60	 61	  1	
20-Apr-2013	sub2321	2321	  2	  1	148	  4	  2	  1	  2	  5	  1	  2	  0	0.33467	  0	0.60000	  0	 21	 80	 81	  1	
20-Apr-2013	sub2321	2321	  2	  1	149	  4	  2	  1	  2	  5	  1	  2	  0	0.40041	  0	0.60000	  0	 21	 80	 81	  1	
20-Apr-2013	sub2321	2321	  2	  1	150	  4	  2	  3	  1	  6	  1	  2	  0	0.46390	  0	0.60000	  0	 23	 82	 83	  1	
20-Apr-2013	sub2321	2321	  2	  1	  1	  5	  1	  1	  4	  6	  1	  1	  1	0.45703	  1	0.60000	  0	 11	 30	 31	  1	
20-Apr-2013	sub2321	2321	  2	  1	  2	  5	  1	  4	  1	  1	  1	  2	  1	0.49462	  1	0.30000	  1	 14	 32	 51	  1	
20-Apr-2013	sub2321	2321	  2	  1	  3	  5	  1	  3	  5	  6	  0	  1	  0	0.43448	  1	0.90000	  0	 13	 34	 49	  1	
20-Apr-2013	sub2321	2321	  2	  1	  4	  5	  1	  1	  4	  6	  1	  2	  0	0.43849	  0	0.90000	  0	 11	 40	 41	  1	
20-Apr-2013	sub2321	2321	  2	  1	  5	  5	  1	  3	  5	  6	  1	  1	  1	0.42447	  1	0.90000	  0	 13	 32	 33	  1	
20-Apr-2013	sub2321	2321	  2	  1	  6	  5	  1	  1	  4	  6	  1	  1	  1	0.44685	  1	0.90000	  0	 11	 30	 31	  1	
20-Apr-2013	sub2321	2321	  2	  1	  7	  5	  1	  2	  6	  3	  1	  2	  1	0.42424	  1	0.90000	  0	 12	 30	 31	  1	
20-Apr-2013	sub2321	2321	  2	  1	  8	  5	  1	  3	  5	  6	  1	  2	  0	0.41946	  0	0.90000	  0	 13	 42	 43	  1	
20-Apr-2013	sub2321	2321	  2	  1	  9	  5	  1	  3	  5	  6	  1	  2	  0	0.36998	  0	0.90000	  0	 13	 42	 43	  1	
20-Apr-2013	sub2321	2321	  2	  1	 10	  5	  1	  5	  3	  6	  0	  1	  0	0.38942	  1	0.90000	  0	 15	 37	 48	  1	
20-Apr-2013	sub2321	2321	  2	  1	 11	  5	  1	  5	  3	  6	  0	  1	  0	0.40328	  1	0.90000	  0	 15	 37	 48	  1	
20-Apr-2013	sub2321	2321	  2	  1	 12	  5	  1	  6	  2	  6	  0	  2	  0	0.44376	  1	0.90000	  0	 16	 37	 48	  1	
20-Apr-2013	sub2321	2321	  2	  1	 13	  5	  1	  5	  3	  6	  0	  2	  1	0.33980	  0	0.90000	  0	 15	 47	 38	  1	
20-Apr-2013	sub2321	2321	  2	  1	 14	  5	  1	  5	  3	  6	  1	  2	  0	0.38690	  0	0.90000	  0	 15	 45	 46	  1	
20-Apr-2013	sub2321	2321	  2	  1	 15	  5	  1	  2	  6	  3	  1	  2	  1	0.49403	  1	0.90000	  0	 12	 30	 31	  1	
20-Apr-2013	sub2321	2321	  2	  1	 16	  5	  1	  5	  3	  6	  1	  1	  1	0.55220	  1	0.80000	  0	 15	 35	 36	  0	
20-Apr-2013	sub2321	2321	  2	  1	 17	  5	  1	  5	  3	  6	  1	  1	  1	0.40042	  1	0.80000	  0	 15	 35	 36	  1	
20-Apr-2013	sub2321	2321	  2	  1	 18	  5	  1	  1	  4	  6	  1	  2	  0	0.43762	  0	0.70000	  0	 11	 40	 41	  1	
20-Apr-2013	sub2321	2321	  2	  1	 19	  5	  1	  3	  5	  6	  1	  2	  0	0.44223	  0	0.70000	  0	 13	 42	 43	  1	
20-Apr-2013	sub2321	2321	  2	  1	 20	  5	  1	  6	  2	  6	  1	  2	  1	0.47589	  1	0.70000	  0	 16	 35	 36	  1	
20-Apr-2013	sub2321	2321	  2	  1	 21	  5	  1	  4	  1	  1	  0	  2	  0	0.39807	  1	0.60000	  0	 14	 34	 49	  1	
20-Apr-2013	sub2321	2321	  2	  1	 22	  5	  1	  1	  4	  6	  1	  1	  1	0.50192	  1	0.60000	  0	 11	 30	 31	  0	
20-Apr-2013	sub2321	2321	  2	  1	 23	  5	  1	  3	  5	  6	  0	  2	  1	0.44739	  0	0.60000	  0	 13	 44	 39	  1	
20-Apr-2013	sub2321	2321	  2	  1	 24	  5	  1	  3	  5	  6	  1	  2	  0	0.39033	  0	0.60000	  0	 13	 42	 43	  1	
20-Apr-2013	sub2321	2321	  2	  1	 25	  5	  1	  5	  3	  6	  1	  1	  1	0.30675	  1	0.60000	  0	 15	 35	 36	  1	
20-Apr-2013	sub2321	2321	  2	  1	 26	  5	  1	  6	  2	  6	  1	  2	  1	0.41761	  1	0.50000	  0	 16	 35	 36	  1	
20-Apr-2013	sub2321	2321	  2	  1	 27	  5	  1	  5	  3	  6	  0	  1	  0	0.27300	  1	0.50000	  0	 15	 37	 48	  1	
20-Apr-2013	sub2321	2321	  2	  1	 28	  5	  1	  1	  4	  6	  1	  1	  1	0.64215	  1	0.50000	  1	 11	 30	 51	  0	
20-Apr-2013	sub2321	2321	  2	  1	 29	  5	  1	  4	  1	  1	  1	  1	  0	0.27374	  0	0.90000	  0	 14	 42	 43	  1	
20-Apr-2013	sub2321	2321	  2	  1	 30	  5	  1	  4	  1	  1	  1	  1	  0	0.34288	  0	0.80000	  0	 14	 42	 43	  1	
20-Apr-2013	sub2321	2321	  2	  1	 31	  5	  1	  3	  5	  6	  0	  2	  1	0.42052	  0	0.80000	  0	 13	 44	 39	  1	
20-Apr-2013	sub2321	2321	  2	  1	 32	  5	  1	  2	  6	  3	  1	  2	  1	0.45869	  1	0.80000	  0	 12	 30	 31	  1	
20-Apr-2013	sub2321	2321	  2	  1	 33	  5	  1	  3	  5	  6	  1	  2	  0	0.35492	  0	0.80000	  0	 13	 42	 43	  1	
20-Apr-2013	sub2321	2321	  2	  1	 34	  5	  1	  2	  6	  3	  1	  1	  0	0.29049	  0	0.80000	  0	 12	 40	 41	  1	
20-Apr-2013	sub2321	2321	  2	  1	 35	  5	  1	  2	  6	  3	  1	  2	  1	0.30682	  1	0.70000	  0	 12	 30	 31	  1	
20-Apr-2013	sub2321	2321	  2	  1	 36	  5	  1	  4	  1	  1	  1	  2	  1	0.37235	  1	0.70000	  0	 14	 32	 33	  1	
20-Apr-2013	sub2321	2321	  2	  1	 37	  5	  1	  2	  6	  3	  1	  2	  1	0.39910	  1	0.70000	  0	 12	 30	 31	  1	
20-Apr-2013	sub2321	2321	  2	  1	 38	  5	  1	  1	  4	  6	  1	  2	  0	0.37823	  0	0.70000	  0	 11	 40	 41	  1	
20-Apr-2013	sub2321	2321	  2	  1	 39	  5	  1	  6	  2	  6	  0	  2	  0	0.54871	  1	0.70000	  0	 16	 37	 48	  0	
20-Apr-2013	sub2321	2321	  2	  1	 40	  5	  1	  4	  1	  1	  1	  2	  1	0.41834	  1	0.70000	  0	 14	 32	 33	  1	
20-Apr-2013	sub2321	2321	  2	  1	 41	  5	  1	  2	  6	  3	  1	  2	  1	0.41469	  1	0.60000	  0	 12	 30	 31	  1	
20-Apr-2013	sub2321	2321	  2	  1	 42	  5	  1	  5	  3	  6	  0	  1	  0	0.58225	  1	0.60000	  0	 15	 37	 48	  0	
20-Apr-2013	sub2321	2321	  2	  1	 43	  5	  1	  6	  2	  6	  0	  2	  0	0.42244	  1	0.60000	  0	 16	 37	 48	  1	
20-Apr-2013	sub2321	2321	  2	  1	 44	  5	  1	  4	  1	  1	  1	  2	  1	0.33917	  1	0.60000	  0	 14	 32	 33	  1	
20-Apr-2013	sub2321	2321	  2	  1	 45	  5	  1	  6	  2	  6	  0	  2	  0	0.47325	  1	0.60000	  0	 16	 37	 48	  1	
20-Apr-2013	sub2321	2321	  2	  1	 46	  5	  1	  2	  6	  3	  1	  2	  1	0.49280	  1	0.60000	  0	 12	 30	 31	  1	
20-Apr-2013	sub2321	2321	  2	  1	 47	  5	  1	  5	  3	  6	  1	  1	  1	0.49578	  1	0.60000	  0	 15	 35	 36	  1	
20-Apr-2013	sub2321	2321	  2	  1	 48	  5	  1	  2	  6	  3	  1	  1	  0	0.46999	  0	0.60000	  0	 12	 40	 41	  1	
20-Apr-2013	sub2321	2321	  2	  1	 49	  5	  1	  3	  5	  6	  1	  2	  0	0.43107	  0	0.60000	  0	 13	 42	 43	  1	
20-Apr-2013	sub2321	2321	  2	  1	 50	  5	  1	  2	  6	  3	  1	  2	  1	0.48392	  1	0.60000	  0	 12	 30	 31	  1	
20-Apr-2013	sub2321	2321	  2	  1	 51	  5	  1	  6	  2	  6	  0	  1	  1	0.32864	  0	0.50000	  0	 16	 47	 38	  1	
20-Apr-2013	sub2321	2321	  2	  1	 52	  5	  1	  6	  2	  6	  0	  1	  1	0.25339	  0	0.50000	  0	 16	 47	 38	  1	
20-Apr-2013	sub2321	2321	  2	  1	 53	  5	  1	  1	  4	  6	  1	  1	  1	0.29417	  1	0.50000	  0	 11	 30	 31	  1	
20-Apr-2013	sub2321	2321	  2	  1	 54	  5	  1	  4	  1	  1	  1	  1	  0	0.40521	  0	0.50000	  0	 14	 42	 43	  1	
20-Apr-2013	sub2321	2321	  2	  1	 55	  5	  1	  5	  3	  6	  1	  1	  1	0.39949	  1	0.50000	  0	 15	 35	 36	  1	
20-Apr-2013	sub2321	2321	  2	  1	 56	  5	  1	  4	  1	  1	  0	  1	  1	0.45423	  0	0.50000	  0	 14	 44	 39	  1	
20-Apr-2013	sub2321	2321	  2	  1	 57	  5	  1	  4	  1	  1	  1	  1	  0	0.45239	  0	0.50000	  0	 14	 42	 43	  1	
20-Apr-2013	sub2321	2321	  2	  1	 58	  5	  1	  3	  5	  6	  1	  2	  0	0.42092	  0	0.50000	  0	 13	 42	 43	  1	
20-Apr-2013	sub2321	2321	  2	  1	 59	  5	  1	  6	  2	  6	  1	  2	  1	0.39568	  1	0.50000	  0	 16	 35	 36	  1	
20-Apr-2013	sub2321	2321	  2	  1	 60	  5	  1	  2	  6	  3	  1	  2	  1	0.40587	  1	0.50000	  0	 12	 30	 31	  1	
20-Apr-2013	sub2321	2321	  2	  1	 61	  5	  1	  6	  2	  6	  1	  2	  1	0.43435	  1	0.50000	  0	 16	 35	 36	  1	
20-Apr-2013	sub2321	2321	  2	  1	 62	  5	  1	  6	  2	  6	  0	  2	  0	0.38075	  1	0.50000	  0	 16	 37	 48	  1	
20-Apr-2013	sub2321	2321	  2	  1	 63	  5	  1	  1	  4	  6	  1	  1	  1	0.36914	  1	0.50000	  0	 11	 30	 31	  1	
20-Apr-2013	sub2321	2321	  2	  1	 64	  5	  1	  3	  5	  6	  1	  1	  1	0.40411	  1	0.50000	  0	 13	 32	 33	  1	
20-Apr-2013	sub2321	2321	  2	  1	 65	  5	  1	  3	  5	  6	  1	  1	  1	0.38364	  1	0.50000	  0	 13	 32	 33	  1	
20-Apr-2013	sub2321	2321	  2	  1	 66	  5	  1	  6	  2	  6	  0	  1	  1	0.36636	  0	0.50000	  0	 16	 47	 38	  1	
20-Apr-2013	sub2321	2321	  2	  1	 67	  5	  1	  5	  3	  6	  1	  1	  1	0.46338	  1	0.50000	  0	 15	 35	 36	  1	
20-Apr-2013	sub2321	2321	  2	  1	 68	  5	  1	  2	  6	  3	  1	  1	  0	0.42337	  0	0.40000	  1	 12	 40	 51	  1	
20-Apr-2013	sub2321	2321	  2	  1	 69	  5	  1	  6	  2	  6	  1	  2	  1	0.44459	  1	0.60000	  0	 16	 35	 36	  1	
20-Apr-2013	sub2321	2321	  2	  1	 70	  5	  1	  1	  4	  6	  1	  1	  1	0.36074	  1	0.60000	  0	 11	 30	 31	  1	
20-Apr-2013	sub2321	2321	  2	  1	 71	  5	  1	  1	  4	  6	  1	  1	  1	0.43777	  1	0.60000	  0	 11	 30	 31	  1	
20-Apr-2013	sub2321	2321	  2	  1	 72	  5	  1	  4	  1	  1	  1	  1	  0	0.41070	  0	0.60000	  0	 14	 42	 43	  1	
20-Apr-2013	sub2321	2321	  2	  1	 73	  5	  1	  1	  4	  6	  1	  1	  1	0.37143	  1	0.60000	  0	 11	 30	 31	  1	
20-Apr-2013	sub2321	2321	  2	  1	 74	  5	  1	  4	  1	  1	  1	  2	  1	0.48736	  1	0.60000	  0	 14	 32	 33	  1	
20-Apr-2013	sub2321	2321	  2	  1	 75	  5	  1	  2	  6	  3	  1	  2	  1	0.41638	  1	0.60000	  0	 12	 30	 31	  1	
20-Apr-2013	sub2321	2321	  2	  1	 76	  5	  2	  2	  6	  3	  1	  2	  1	0.38205	  1	0.50000	  0	 22	 60	 61	  1	
20-Apr-2013	sub2321	2321	  2	  1	 77	  5	  2	  3	  5	  6	  0	  1	  0	0.51720	  1	0.50000	  1	 23	 64	 51	  0	
20-Apr-2013	sub2321	2321	  2	  1	 78	  5	  2	  1	  4	  6	  1	  1	  1	0.41613	  1	0.70000	  0	 21	 60	 61	  1	
20-Apr-2013	sub2321	2321	  2	  1	 79	  5	  2	  2	  6	  3	  1	  1	  0	0.37282	  0	0.70000	  0	 22	 80	 81	  1	
20-Apr-2013	sub2321	2321	  2	  1	 80	  5	  2	  4	  1	  1	  1	  2	  1	0.46326	  1	0.70000	  0	 24	 62	 63	  1	
20-Apr-2013	sub2321	2321	  2	  1	 81	  5	  2	  2	  6	  3	  1	  2	  1	0.40467	  1	0.60000	  0	 22	 60	 61	  1	
20-Apr-2013	sub2321	2321	  2	  1	 82	  5	  2	  6	  2	  6	  1	  2	  1	0.59413	  1	0.60000	  0	 26	 65	 66	  0	
20-Apr-2013	sub2321	2321	  2	  1	 83	  5	  2	  4	  1	  1	  0	  1	  1	0.35848	  0	0.60000	  0	 24	 84	 69	  1	
20-Apr-2013	sub2321	2321	  2	  1	 84	  5	  2	  2	  6	  3	  1	  1	  0	0.36652	  0	0.60000	  0	 22	 80	 81	  1	
20-Apr-2013	sub2321	2321	  2	  1	 85	  5	  2	  3	  5	  6	  1	  2	  0	0.46452	  0	0.60000	  0	 23	 82	 83	  1	
20-Apr-2013	sub2321	2321	  2	  1	 86	  5	  2	  2	  6	  3	  1	  2	  1	0.46138	  1	0.60000	  0	 22	 60	 61	  1	
20-Apr-2013	sub2321	2321	  2	  1	 87	  5	  2	  6	  2	  6	  0	  1	  1	0.41502	  0	0.60000	  0	 26	 87	 68	  1	
20-Apr-2013	sub2321	2321	  2	  1	 88	  5	  2	  5	  3	  6	  0	  1	  0	0.50882	  1	0.60000	  0	 25	 67	 88	  0	
20-Apr-2013	sub2321	2321	  2	  1	 89	  5	  2	  4	  1	  1	  1	  2	  1	0.52237	  1	0.60000	  0	 24	 62	 63	  0	
20-Apr-2013	sub2321	2321	  2	  1	 90	  5	  2	  2	  6	  3	  1	  2	  1	0.33752	  1	0.60000	  0	 22	 60	 61	  1	
20-Apr-2013	sub2321	2321	  2	  1	 91	  5	  2	  1	  4	  6	  1	  1	  1	0.38918	  1	0.60000	  0	 21	 60	 61	  1	
20-Apr-2013	sub2321	2321	  2	  1	 92	  5	  2	  5	  3	  6	  0	  1	  0	0.40850	  1	0.60000	  0	 25	 67	 88	  1	
20-Apr-2013	sub2321	2321	  2	  1	 93	  5	  2	  3	  5	  6	  1	  2	  0	0.45576	  0	0.60000	  0	 23	 82	 83	  1	
20-Apr-2013	sub2321	2321	  2	  1	 94	  5	  2	  3	  5	  6	  1	  1	  1	0.34477	  1	0.60000	  0	 23	 62	 63	  1	
20-Apr-2013	sub2321	2321	  2	  1	 95	  5	  2	  3	  5	  6	  1	  1	  1	0.36706	  1	0.60000	  0	 23	 62	 63	  1	
20-Apr-2013	sub2321	2321	  2	  1	 96	  5	  2	  5	  3	  6	  0	  1	  0	0.30051	  1	0.60000	  0	 25	 67	 88	  1	
20-Apr-2013	sub2321	2321	  2	  1	 97	  5	  2	  4	  1	  1	  0	  2	  0	0.50596	  1	0.60000	  0	 24	 64	 89	  0	
20-Apr-2013	sub2321	2321	  2	  1	 98	  5	  2	  2	  6	  3	  1	  2	  1	0.34160	  1	0.60000	  0	 22	 60	 61	  1	
20-Apr-2013	sub2321	2321	  2	  1	 99	  5	  2	  3	  5	  6	  1	  1	  1	0.36669	  1	0.60000	  0	 23	 62	 63	  1	
20-Apr-2013	sub2321	2321	  2	  1	100	  5	  2	  6	  2	  6	  0	  2	  0	0.52546	  1	0.60000	  0	 26	 67	 88	  0	
20-Apr-2013	sub2321	2321	  2	  1	101	  5	  2	  6	  2	  6	  1	  2	  1	0.51170	  1	0.50000	  1	 26	 65	 51	  0	
20-Apr-2013	sub2321	2321	  2	  1	102	  5	  2	  4	  1	  1	  1	  1	  0	0.48672	  0	0.60000	  0	 24	 82	 83	  1	
20-Apr-2013	sub2321	2321	  2	  1	103	  5	  2	  5	  3	  6	  0	  1	  0	0.52390	  1	0.60000	  0	 25	 67	 88	  0	
20-Apr-2013	sub2321	2321	  2	  1	104	  5	  2	  4	  1	  1	  0	  2	  0	0.39785	  1	0.60000	  0	 24	 64	 89	  1	
20-Apr-2013	sub2321	2321	  2	  1	105	  5	  2	  5	  3	  6	  0	  1	  0	0.38193	  1	0.60000	  0	 25	 67	 88	  1	
20-Apr-2013	sub2321	2321	  2	  1	106	  5	  2	  1	  4	  6	  1	  2	  0	0.38105	  0	0.60000	  0	 21	 80	 81	  1	
20-Apr-2013	sub2321	2321	  2	  1	107	  5	  2	  1	  4	  6	  1	  1	  1	0.46105	  1	0.60000	  0	 21	 60	 61	  1	
20-Apr-2013	sub2321	2321	  2	  1	108	  5	  2	  6	  2	  6	  1	  2	  1	0.45883	  1	0.60000	  0	 26	 65	 66	  1	
20-Apr-2013	sub2321	2321	  2	  1	109	  5	  2	  5	  3	  6	  0	  1	  0	0.49535	  1	0.60000	  0	 25	 67	 88	  1	
20-Apr-2013	sub2321	2321	  2	  1	110	  5	  2	  1	  4	  6	  1	  1	  1	0.52642	  1	0.60000	  0	 21	 60	 61	  0	
20-Apr-2013	sub2321	2321	  2	  1	111	  5	  2	  3	  5	  6	  1	  2	  0	0.49675	  0	0.60000	  0	 23	 82	 83	  1	
20-Apr-2013	sub2321	2321	  2	  1	112	  5	  2	  2	  6	  3	  1	  2	  1	0.42907	  1	0.60000	  0	 22	 60	 61	  1	
20-Apr-2013	sub2321	2321	  2	  1	113	  5	  2	  1	  4	  6	  1	  1	  1	0.35017	  1	0.60000	  0	 21	 60	 61	  1	
20-Apr-2013	sub2321	2321	  2	  1	114	  5	  2	  1	  4	  6	  1	  1	  1	0.42468	  1	0.60000	  0	 21	 60	 61	  1	
20-Apr-2013	sub2321	2321	  2	  1	115	  5	  2	  4	  1	  1	  1	  1	  0	0.43438	  0	0.60000	  0	 24	 82	 83	  1	
20-Apr-2013	sub2321	2321	  2	  1	116	  5	  2	  2	  6	  3	  1	  2	  1	0.40514	  1	0.60000	  0	 22	 60	 61	  1	
20-Apr-2013	sub2321	2321	  2	  1	117	  5	  2	  4	  1	  1	  1	  2	  1	0.40314	  1	0.60000	  0	 24	 62	 63	  1	
20-Apr-2013	sub2321	2321	  2	  1	118	  5	  2	  3	  5	  6	  0	  1	  0	0.47832	  1	0.60000	  0	 23	 64	 89	  1	
20-Apr-2013	sub2321	2321	  2	  1	119	  5	  2	  1	  4	  6	  1	  1	  1	0.45467	  1	0.60000	  0	 21	 60	 61	  1	
20-Apr-2013	sub2321	2321	  2	  1	120	  5	  2	  1	  4	  6	  1	  1	  1	0.45512	  1	0.60000	  0	 21	 60	 61	  1	
20-Apr-2013	sub2321	2321	  2	  1	121	  5	  2	  5	  3	  6	  0	  2	  1	0.33511	  0	0.60000	  0	 25	 87	 68	  1	
20-Apr-2013	sub2321	2321	  2	  1	122	  5	  2	  6	  2	  6	  0	  2	  0	0.48379	  1	0.60000	  0	 26	 67	 88	  1	
20-Apr-2013	sub2321	2321	  2	  1	123	  5	  2	  1	  4	  6	  1	  1	  1	0.48665	  1	0.60000	  0	 21	 60	 61	  1	
20-Apr-2013	sub2321	2321	  2	  1	124	  5	  2	  2	  6	  3	  1	  1	  0	0.46490	  0	0.60000	  0	 22	 80	 81	  1	
20-Apr-2013	sub2321	2321	  2	  1	125	  5	  2	  4	  1	  1	  1	  2	  1	0.40373	  1	0.60000	  0	 24	 62	 63	  1	
20-Apr-2013	sub2321	2321	  2	  1	126	  5	  2	  6	  2	  6	  0	  2	  0	0.54602	  1	0.50000	  1	 26	 67	 51	  0	
20-Apr-2013	sub2321	2321	  2	  1	127	  5	  2	  2	  6	  3	  1	  2	  1	0.36377	  1	0.60000	  0	 22	 60	 61	  1	
20-Apr-2013	sub2321	2321	  2	  1	128	  5	  2	  5	  3	  6	  0	  2	  1	0.41035	  0	0.60000	  0	 25	 87	 68	  1	
20-Apr-2013	sub2321	2321	  2	  1	129	  5	  2	  6	  2	  6	  1	  2	  1	0.43127	  1	0.60000	  0	 26	 65	 66	  1	
20-Apr-2013	sub2321	2321	  2	  1	130	  5	  2	  4	  1	  1	  1	  2	  1	0.40198	  1	0.60000	  0	 24	 62	 63	  1	
20-Apr-2013	sub2321	2321	  2	  1	131	  5	  2	  6	  2	  6	  1	  2	  1	0.37153	  1	0.60000	  0	 26	 65	 66	  1	
20-Apr-2013	sub2321	2321	  2	  1	132	  5	  2	  2	  6	  3	  1	  2	  1	0.32840	  1	0.60000	  0	 22	 60	 61	  1	
20-Apr-2013	sub2321	2321	  2	  1	133	  5	  2	  1	  4	  6	  1	  2	  0	0.34178	  0	0.60000	  0	 21	 80	 81	  1	
20-Apr-2013	sub2321	2321	  2	  1	134	  5	  2	  4	  1	  1	  1	  2	  1	0.50364	  1	0.60000	  0	 24	 62	 63	  0	
20-Apr-2013	sub2321	2321	  2	  1	135	  5	  2	  4	  1	  1	  1	  2	  1	0.43188	  1	0.60000	  0	 24	 62	 63	  1	
20-Apr-2013	sub2321	2321	  2	  1	136	  5	  2	  5	  3	  6	  0	  2	  1	0.43766	  0	0.60000	  0	 25	 87	 68	  1	
20-Apr-2013	sub2321	2321	  2	  1	137	  5	  2	  5	  3	  6	  0	  2	  1	0.40937	  0	0.60000	  0	 25	 87	 68	  1	
20-Apr-2013	sub2321	2321	  2	  1	138	  5	  2	  5	  3	  6	  0	  2	  1	0.44623	  0	0.60000	  0	 25	 87	 68	  1	
20-Apr-2013	sub2321	2321	  2	  1	139	  5	  2	  5	  3	  6	  0	  2	  1	0.44393	  0	0.60000	  0	 25	 87	 68	  1	
20-Apr-2013	sub2321	2321	  2	  1	140	  5	  2	  6	  2	  6	  1	  2	  1	0.55322	  1	0.60000	  0	 26	 65	 66	  0	
20-Apr-2013	sub2321	2321	  2	  1	141	  5	  2	  4	  1	  1	  1	  2	  1	0.41450	  1	0.60000	  0	 24	 62	 63	  1	
20-Apr-2013	sub2321	2321	  2	  1	142	  5	  2	  5	  3	  6	  0	  2	  1	0.48465	  0	0.60000	  0	 25	 87	 68	  1	
20-Apr-2013	sub2321	2321	  2	  1	143	  5	  2	  3	  5	  6	  1	  1	  1	0.60040	  1	0.60000	  1	 23	 62	 51	  0	
20-Apr-2013	sub2321	2321	  2	  1	144	  5	  2	  6	  2	  6	  0	  1	  1	0.39465	  0	0.60000	  0	 26	 87	 68	  1	
20-Apr-2013	sub2321	2321	  2	  1	145	  5	  2	  3	  5	  6	  1	  1	  1	0.40060	  1	0.60000	  0	 23	 62	 63	  1	
20-Apr-2013	sub2321	2321	  2	  1	146	  5	  2	  1	  4	  6	  1	  1	  1	0.36633	  1	0.60000	  0	 21	 60	 61	  1	
20-Apr-2013	sub2321	2321	  2	  1	147	  5	  2	  3	  5	  6	  1	  1	  1	0.47125	  1	0.60000	  0	 23	 62	 63	  1	
20-Apr-2013	sub2321	2321	  2	  1	148	  5	  2	  6	  2	  6	  0	  1	  1	0.34278	  0	0.60000	  0	 26	 87	 68	  1	
20-Apr-2013	sub2321	2321	  2	  1	149	  5	  2	  3	  5	  6	  1	  1	  1	0.42176	  1	0.60000	  0	 23	 62	 63	  1	
20-Apr-2013	sub2321	2321	  2	  1	150	  5	  2	  1	  4	  6	  1	  1	  1	0.38928	  1	0.60000	  0	 21	 60	 61	  1	
20-Apr-2013	sub2321	2321	  2	  1	  1	  6	  1	  1	  1	  5	  1	  1	  1	0.43259	  1	0.60000	  0	 11	 30	 31	  1	
20-Apr-2013	sub2321	2321	  2	  1	  2	  6	  1	  5	  6	  5	  0	  2	  1	0.46208	  0	0.30000	  1	 15	 47	 51	  1	
20-Apr-2013	sub2321	2321	  2	  1	  3	  6	  1	  3	  5	  1	  1	  2	  0	0.44939	  0	0.90000	  0	 13	 42	 43	  1	
20-Apr-2013	sub2321	2321	  2	  1	  4	  6	  1	  1	  1	  5	  1	  2	  0	0.36155	  0	0.90000	  0	 11	 40	 41	  1	
20-Apr-2013	sub2321	2321	  2	  1	  5	  6	  1	  6	  3	  2	  0	  2	  0	0.47405	  1	0.90000	  0	 16	 37	 48	  1	
20-Apr-2013	sub2321	2321	  2	  1	  6	  6	  1	  3	  5	  1	  1	  1	  1	0.34000	  1	0.90000	  0	 13	 32	 33	  1	
20-Apr-2013	sub2321	2321	  2	  1	  7	  6	  1	  4	  2	  2	  0	  1	  1	0.37785	  0	0.90000	  0	 14	 44	 39	  1	
20-Apr-2013	sub2321	2321	  2	  1	  8	  6	  1	  5	  6	  5	  1	  1	  1	0.36868	  1	0.90000	  0	 15	 35	 36	  1	
20-Apr-2013	sub2321	2321	  2	  1	  9	  6	  1	  2	  4	  1	  1	  1	  0	0.33015	  0	0.90000	  0	 12	 40	 41	  1	
20-Apr-2013	sub2321	2321	  2	  1	 10	  6	  1	  2	  4	  1	  1	  1	  0	0.26277	  0	0.90000	  0	 12	 40	 41	  1	
20-Apr-2013	sub2321	2321	  2	  1	 11	  6	  1	  4	  2	  2	  1	  1	  0	0.53227	  0	0.90000	  0	 14	 42	 43	  0	
20-Apr-2013	sub2321	2321	  2	  1	 12	  6	  1	  5	  6	  5	  1	  1	  1	0.44159	  1	0.90000	  0	 15	 35	 36	  1	
20-Apr-2013	sub2321	2321	  2	  1	 13	  6	  1	  4	  2	  2	  1	  1	  0	0.37291	  0	0.90000	  0	 14	 42	 43	  1	
20-Apr-2013	sub2321	2321	  2	  1	 14	  6	  1	  3	  5	  1	  0	  2	  1	0.51202	  0	0.90000	  0	 13	 44	 39	  0	
20-Apr-2013	sub2321	2321	  2	  1	 15	  6	  1	  2	  4	  1	  1	  2	  1	0.55647	  1	0.90000	  0	 12	 30	 31	  0	
20-Apr-2013	sub2321	2321	  2	  1	 16	  6	  1	  4	  2	  2	  1	  2	  1	0.50104	  1	0.80000	  0	 14	 32	 33	  0	
20-Apr-2013	sub2321	2321	  2	  1	 17	  6	  1	  2	  4	  1	  1	  2	  1	0.47647	  1	0.80000	  0	 12	 30	 31	  1	
20-Apr-2013	sub2321	2321	  2	  1	 18	  6	  1	  3	  5	  1	  1	  2	  0	0.31272	  0	0.70000	  0	 13	 42	 43	  1	
20-Apr-2013	sub2321	2321	  2	  1	 19	  6	  1	  4	  2	  2	  1	  1	  0	0.42493	  0	0.70000	  0	 14	 42	 43	  1	
20-Apr-2013	sub2321	2321	  2	  1	 20	  6	  1	  1	  1	  5	  1	  2	  0	0.42563	  0	0.70000	  0	 11	 40	 41	  1	
20-Apr-2013	sub2321	2321	  2	  1	 21	  6	  1	  5	  6	  5	  0	  2	  1	0.47805	  0	0.60000	  0	 15	 47	 38	  1	
20-Apr-2013	sub2321	2321	  2	  1	 22	  6	  1	  2	  4	  1	  1	  2	  1	0.46659	  1	0.60000	  0	 12	 30	 31	  1	
20-Apr-2013	sub2321	2321	  2	  1	 23	  6	  1	  2	  4	  1	  1	  2	  1	0.44878	  1	0.60000	  0	 12	 30	 31	  1	
20-Apr-2013	sub2321	2321	  2	  1	 24	  6	  1	  2	  4	  1	  1	  2	  1	0.28673	  1	0.60000	  0	 12	 30	 31	  1	
20-Apr-2013	sub2321	2321	  2	  1	 25	  6	  1	  5	  6	  5	  0	  2	  1	0.43004	  0	0.60000	  0	 15	 47	 38	  1	
20-Apr-2013	sub2321	2321	  2	  1	 26	  6	  1	  1	  1	  5	  1	  1	  1	0.41587	  1	0.50000	  0	 11	 30	 31	  1	
20-Apr-2013	sub2321	2321	  2	  1	 27	  6	  1	  1	  1	  5	  1	  1	  1	0.40323	  1	0.50000	  0	 11	 30	 31	  1	
20-Apr-2013	sub2321	2321	  2	  1	 28	  6	  1	  4	  2	  2	  1	  1	  0	0.40623	  0	0.50000	  0	 14	 42	 43	  1	
20-Apr-2013	sub2321	2321	  2	  1	 29	  6	  1	  5	  6	  5	  1	  2	  0	0.48681	  0	0.50000	  0	 15	 45	 46	  1	
20-Apr-2013	sub2321	2321	  2	  1	 30	  6	  1	  1	  1	  5	  1	  2	  0	0.30990	  0	0.50000	  0	 11	 40	 41	  1	
20-Apr-2013	sub2321	2321	  2	  1	 31	  6	  1	  6	  3	  2	  1	  2	  1	0.40003	  1	0.50000	  0	 16	 35	 36	  1	
20-Apr-2013	sub2321	2321	  2	  1	 32	  6	  1	  3	  5	  1	  0	  2	  1	0.40039	  0	0.50000	  0	 13	 44	 39	  1	
20-Apr-2013	sub2321	2321	  2	  1	 33	  6	  1	  4	  2	  2	  1	  2	  1	0.61581	  1	0.50000	  1	 14	 32	 51	  0	
20-Apr-2013	sub2321	2321	  2	  1	 34	  6	  1	  3	  5	  1	  1	  2	  0	0.39859	  0	0.80000	  0	 13	 42	 43	  1	
20-Apr-2013	sub2321	2321	  2	  1	 35	  6	  1	  3	  5	  1	  1	  2	  0	0.29844	  0	0.70000	  0	 13	 42	 43	  1	
20-Apr-2013	sub2321	2321	  2	  1	 36	  6	  1	  3	  5	  1	  1	  1	  1	0.34490	  1	0.70000	  0	 13	 32	 33	  1	
20-Apr-2013	sub2321	2321	  2	  1	 37	  6	  1	  6	  3	  2	  0	  1	  1	0.42417	  0	0.70000	  0	 16	 47	 38	  1	
20-Apr-2013	sub2321	2321	  2	  1	 38	  6	  1	  3	  5	  1	  1	  1	  1	0.49954	  1	0.70000	  0	 13	 32	 33	  1	
20-Apr-2013	sub2321	2321	  2	  1	 39	  6	  1	  4	  2	  2	  1	  2	  1	0.43850	  1	0.70000	  0	 14	 32	 33	  1	
20-Apr-2013	sub2321	2321	  2	  1	 40	  6	  1	  6	  3	  2	  1	  2	  1	0.57639	  1	0.70000	  0	 16	 35	 36	  0	
20-Apr-2013	sub2321	2321	  2	  1	 41	  6	  1	  4	  2	  2	  1	  2	  1	0.44383	  1	0.60000	  0	 14	 32	 33	  1	
20-Apr-2013	sub2321	2321	  2	  1	 42	  6	  1	  6	  3	  2	  0	  2	  0	0.41059	  1	0.60000	  0	 16	 37	 48	  1	
20-Apr-2013	sub2321	2321	  2	  1	 43	  6	  1	  4	  2	  2	  0	  2	  0	0.52039	  1	0.60000	  0	 14	 34	 49	  0	
20-Apr-2013	sub2321	2321	  2	  1	 44	  6	  1	  2	  4	  1	  1	  2	  1	0.47453	  1	0.60000	  0	 12	 30	 31	  1	
20-Apr-2013	sub2321	2321	  2	  1	 45	  6	  1	  3	  5	  1	  1	  2	  0	0.47552	  0	0.60000	  0	 13	 42	 43	  1	
20-Apr-2013	sub2321	2321	  2	  1	 46	  6	  1	  2	  4	  1	  1	  2	  1	0.55165	  1	0.60000	  0	 12	 30	 31	  0	
20-Apr-2013	sub2321	2321	  2	  1	 47	  6	  1	  2	  4	  1	  1	  2	  1	0.45292	  1	0.60000	  0	 12	 30	 31	  1	
20-Apr-2013	sub2321	2321	  2	  1	 48	  6	  1	  1	  1	  5	  1	  2	  0	0.42023	  0	0.60000	  0	 11	 40	 41	  1	
20-Apr-2013	sub2321	2321	  2	  1	 49	  6	  1	  3	  5	  1	  1	  2	  0	0.54796	  0	0.60000	  0	 13	 42	 43	  0	
20-Apr-2013	sub2321	2321	  2	  1	 50	  6	  1	  6	  3	  2	  0	  1	  1	0.52940	  0	0.60000	  0	 16	 47	 38	  0	
20-Apr-2013	sub2321	2321	  2	  1	 51	  6	  1	  5	  6	  5	  1	  1	  1	0.47307	  1	0.50000	  0	 15	 35	 36	  1	
20-Apr-2013	sub2321	2321	  2	  1	 52	  6	  1	  6	  3	  2	  0	  1	  1	0.51390	  0	0.50000	  1	 16	 47	 51	  0	
20-Apr-2013	sub2321	2321	  2	  1	 53	  6	  1	  2	  4	  1	  1	  1	  0	0.42450	  0	0.70000	  0	 12	 40	 41	  1	
20-Apr-2013	sub2321	2321	  2	  1	 54	  6	  1	  5	  6	  5	  1	  2	  0	0.53319	  0	0.70000	  0	 15	 45	 46	  0	
20-Apr-2013	sub2321	2321	  2	  1	 55	  6	  1	  6	  3	  2	  0	  2	  0	0.49637	  1	0.70000	  0	 16	 37	 48	  1	
20-Apr-2013	sub2321	2321	  2	  1	 56	  6	  1	  4	  2	  2	  1	  1	  0	0.50934	  0	0.70000	  0	 14	 42	 43	  0	
20-Apr-2013	sub2321	2321	  2	  1	 57	  6	  1	  2	  4	  1	  1	  2	  1	0.50887	  1	0.70000	  0	 12	 30	 31	  0	
20-Apr-2013	sub2321	2321	  2	  1	 58	  6	  1	  3	  5	  1	  0	  2	  1	0.39013	  0	0.70000	  0	 13	 44	 39	  1	
20-Apr-2013	sub2321	2321	  2	  1	 59	  6	  1	  2	  4	  1	  1	  2	  1	0.47850	  1	0.70000	  0	 12	 30	 31	  1	
20-Apr-2013	sub2321	2321	  2	  1	 60	  6	  1	  5	  6	  5	  0	  2	  1	0.39337	  0	0.70000	  0	 15	 47	 38	  1	
20-Apr-2013	sub2321	2321	  2	  1	 61	  6	  1	  5	  6	  5	  1	  2	  0	0.49278	  0	0.60000	  0	 15	 45	 46	  1	
20-Apr-2013	sub2321	2321	  2	  1	 62	  6	  1	  6	  3	  2	  1	  2	  1	0.41673	  1	0.60000	  0	 16	 35	 36	  1	
20-Apr-2013	sub2321	2321	  2	  1	 63	  6	  1	  1	  1	  5	  1	  2	  0	0.43245	  0	0.60000	  0	 11	 40	 41	  1	
20-Apr-2013	sub2321	2321	  2	  1	 64	  6	  1	  6	  3	  2	  1	  1	  0	0.39914	  0	0.60000	  0	 16	 45	 46	  1	
20-Apr-2013	sub2321	2321	  2	  1	 65	  6	  1	  5	  6	  5	  0	  2	  1	0.45472	  0	0.60000	  0	 15	 47	 38	  1	
20-Apr-2013	sub2321	2321	  2	  1	 66	  6	  1	  5	  6	  5	  1	  2	  0	0.48118	  0	0.60000	  0	 15	 45	 46	  1	
20-Apr-2013	sub2321	2321	  2	  1	 67	  6	  1	  6	  3	  2	  1	  2	  1	0.43007	  1	0.60000	  0	 16	 35	 36	  1	
20-Apr-2013	sub2321	2321	  2	  1	 68	  6	  1	  4	  2	  2	  1	  2	  1	0.49437	  1	0.60000	  0	 14	 32	 33	  1	
20-Apr-2013	sub2321	2321	  2	  1	 69	  6	  1	  1	  1	  5	  1	  1	  1	0.60456	  1	0.60000	  1	 11	 30	 51	  0	
20-Apr-2013	sub2321	2321	  2	  1	 70	  6	  1	  3	  5	  1	  1	  1	  1	0.38005	  1	0.70000	  0	 13	 32	 33	  1	
20-Apr-2013	sub2321	2321	  2	  1	 71	  6	  1	  1	  1	  5	  1	  1	  1	0.39785	  1	0.70000	  0	 11	 30	 31	  1	
20-Apr-2013	sub2321	2321	  2	  1	 72	  6	  1	  6	  3	  2	  0	  1	  1	0.35696	  0	0.70000	  0	 16	 47	 38	  1	
20-Apr-2013	sub2321	2321	  2	  1	 73	  6	  1	  1	  1	  5	  1	  1	  1	0.40488	  1	0.70000	  0	 11	 30	 31	  1	
20-Apr-2013	sub2321	2321	  2	  1	 74	  6	  1	  1	  1	  5	  1	  1	  1	0.36464	  1	0.70000	  0	 11	 30	 31	  1	
20-Apr-2013	sub2321	2321	  2	  1	 75	  6	  1	  6	  3	  2	  0	  2	  0	0.42783	  1	0.70000	  0	 16	 37	 48	  1	
20-Apr-2013	sub2321	2321	  2	  1	 76	  6	  2	  2	  4	  1	  1	  1	  0	0.45483	  0	0.70000	  0	 22	 80	 81	  1	
20-Apr-2013	sub2321	2321	  2	  1	 77	  6	  2	  4	  2	  2	  0	  2	  0	0.45128	  1	0.70000	  0	 24	 64	 89	  1	
20-Apr-2013	sub2321	2321	  2	  1	 78	  6	  2	  1	  1	  5	  1	  1	  1	0.42979	  1	0.70000	  0	 21	 60	 61	  1	
20-Apr-2013	sub2321	2321	  2	  1	 79	  6	  2	  5	  6	  5	  0	  2	  1	0.40649	  0	0.70000	  0	 25	 87	 68	  1	
20-Apr-2013	sub2321	2321	  2	  1	 80	  6	  2	  4	  2	  2	  1	  1	  0	0.40837	  0	0.70000	  0	 24	 82	 83	  1	
20-Apr-2013	sub2321	2321	  2	  1	 81	  6	  2	  2	  4	  1	  1	  2	  1	0.51344	  1	0.60000	  0	 22	 60	 61	  0	
20-Apr-2013	sub2321	2321	  2	  1	 82	  6	  2	  6	  3	  2	  1	  2	  1	0.45298	  1	0.60000	  0	 26	 65	 66	  1	
20-Apr-2013	sub2321	2321	  2	  1	 83	  6	  2	  3	  5	  1	  1	  2	  0	0.36104	  0	0.60000	  0	 23	 82	 83	  1	
20-Apr-2013	sub2321	2321	  2	  1	 84	  6	  2	  5	  6	  5	  0	  2	  1	0.54902	  0	0.60000	  0	 25	 87	 68	  0	
20-Apr-2013	sub2321	2321	  2	  1	 85	  6	  2	  6	  3	  2	  1	  1	  0	0.35961	  0	0.60000	  0	 26	 85	 86	  1	
20-Apr-2013	sub2321	2321	  2	  1	 86	  6	  2	  1	  1	  5	  1	  2	  0	0.42892	  0	0.60000	  0	 21	 80	 81	  1	
20-Apr-2013	sub2321	2321	  2	  1	 87	  6	  2	  6	  3	  2	  1	  2	  1	0.45956	  1	0.60000	  0	 26	 65	 66	  1	
20-Apr-2013	sub2321	2321	  2	  1	 88	  6	  2	  2	  4	  1	  1	  2	  1	0.44093	  1	0.60000	  0	 22	 60	 61	  1	
20-Apr-2013	sub2321	2321	  2	  1	 89	  6	  2	  3	  5	  1	  1	  1	  1	0.53063	  1	0.60000	  0	 23	 62	 63	  0	
20-Apr-2013	sub2321	2321	  2	  1	 90	  6	  2	  5	  6	  5	  0	  2	  1	0.47709	  0	0.60000	  0	 25	 87	 68	  1	
20-Apr-2013	sub2321	2321	  2	  1	 91	  6	  2	  2	  4	  1	  1	  2	  1	0.41785	  1	0.60000	  0	 22	 60	 61	  1	
20-Apr-2013	sub2321	2321	  2	  1	 92	  6	  2	  3	  5	  1	  1	  2	  0	0.31592	  0	0.60000	  0	 23	 82	 83	  1	
20-Apr-2013	sub2321	2321	  2	  1	 93	  6	  2	  4	  2	  2	  1	  2	  1	0.46923	  1	0.60000	  0	 24	 62	 63	  1	
20-Apr-2013	sub2321	2321	  2	  1	 94	  6	  2	  4	  2	  2	  1	  2	  1	0.43345	  1	0.60000	  0	 24	 62	 63	  1	
20-Apr-2013	sub2321	2321	  2	  1	 95	  6	  2	  5	  6	  5	  0	  2	  1	0.46460	  0	0.60000	  0	 25	 87	 68	  1	
20-Apr-2013	sub2321	2321	  2	  1	 96	  6	  2	  6	  3	  2	  1	  2	  1	0.43106	  1	0.60000	  0	 26	 65	 66	  1	
20-Apr-2013	sub2321	2321	  2	  1	 97	  6	  2	  1	  1	  5	  1	  2	  0	0.41149	  0	0.60000	  0	 21	 80	 81	  1	
20-Apr-2013	sub2321	2321	  2	  1	 98	  6	  2	  6	  3	  2	  0	  2	  0	0.40882	  1	0.60000	  0	 26	 67	 88	  1	
20-Apr-2013	sub2321	2321	  2	  1	 99	  6	  2	  5	  6	  5	  0	  1	  0	0.43248	  1	0.60000	  0	 25	 67	 88	  1	
20-Apr-2013	sub2321	2321	  2	  1	100	  6	  2	  3	  5	  1	  1	  2	  0	0.40596	  0	0.60000	  0	 23	 82	 83	  1	
20-Apr-2013	sub2321	2321	  2	  1	101	  6	  2	  1	  1	  5	  1	  2	  0	0.48528	  0	0.50000	  0	 21	 80	 81	  1	
20-Apr-2013	sub2321	2321	  2	  1	102	  6	  2	  4	  2	  2	  1	  2	  1	0.57090	  1	0.50000	  1	 24	 62	 51	  0	
20-Apr-2013	sub2321	2321	  2	  1	103	  6	  2	  2	  4	  1	  1	  2	  1	0.37536	  1	0.60000	  0	 22	 60	 61	  1	
20-Apr-2013	sub2321	2321	  2	  1	104	  6	  2	  5	  6	  5	  0	  2	  1	0.44620	  0	0.60000	  0	 25	 87	 68	  1	
20-Apr-2013	sub2321	2321	  2	  1	105	  6	  2	  1	  1	  5	  1	  2	  0	0.43815	  0	0.60000	  0	 21	 80	 81	  1	
20-Apr-2013	sub2321	2321	  2	  1	106	  6	  2	  4	  2	  2	  1	  2	  1	0.46738	  1	0.60000	  0	 24	 62	 63	  1	
20-Apr-2013	sub2321	2321	  2	  1	107	  6	  2	  1	  1	  5	  1	  2	  0	0.40011	  0	0.60000	  0	 21	 80	 81	  1	
20-Apr-2013	sub2321	2321	  2	  1	108	  6	  2	  1	  1	  5	  1	  1	  1	0.54172	  1	0.60000	  0	 21	 60	 61	  0	
20-Apr-2013	sub2321	2321	  2	  1	109	  6	  2	  2	  4	  1	  1	  2	  1	0.47816	  1	0.60000	  0	 22	 60	 61	  1	
20-Apr-2013	sub2321	2321	  2	  1	110	  6	  2	  3	  5	  1	  1	  1	  1	0.51406	  1	0.60000	  0	 23	 62	 63	  0	
20-Apr-2013	sub2321	2321	  2	  1	111	  6	  2	  5	  6	  5	  0	  1	  0	0.43650	  1	0.60000	  0	 25	 67	 88	  1	
20-Apr-2013	sub2321	2321	  2	  1	112	  6	  2	  5	  6	  5	  0	  2	  1	0.40365	  0	0.60000	  0	 25	 87	 68	  1	
20-Apr-2013	sub2321	2321	  2	  1	113	  6	  2	  1	  1	  5	  1	  1	  1	0.51781	  1	0.60000	  0	 21	 60	 61	  0	
20-Apr-2013	sub2321	2321	  2	  1	114	  6	  2	  1	  1	  5	  1	  1	  1	0.33730	  1	0.60000	  0	 21	 60	 61	  1	
20-Apr-2013	sub2321	2321	  2	  1	115	  6	  2	  1	  1	  5	  1	  1	  1	0.34735	  1	0.60000	  0	 21	 60	 61	  1	
20-Apr-2013	sub2321	2321	  2	  1	116	  6	  2	  2	  4	  1	  1	  1	  0	0.26875	  0	0.60000	  0	 22	 80	 81	  1	
20-Apr-2013	sub2321	2321	  2	  1	117	  6	  2	  3	  5	  1	  0	  2	  1	0.47077	  0	0.60000	  0	 23	 84	 69	  1	
20-Apr-2013	sub2321	2321	  2	  1	118	  6	  2	  3	  5	  1	  1	  2	  0	0.40258	  0	0.60000	  0	 23	 82	 83	  1	
20-Apr-2013	sub2321	2321	  2	  1	119	  6	  2	  2	  4	  1	  1	  2	  1	0.39163	  1	0.60000	  0	 22	 60	 61	  1	
20-Apr-2013	sub2321	2321	  2	  1	120	  6	  2	  6	  3	  2	  0	  2	  0	0.47442	  1	0.60000	  0	 26	 67	 88	  1	
20-Apr-2013	sub2321	2321	  2	  1	121	  6	  2	  3	  5	  1	  1	  2	  0	0.39600	  0	0.60000	  0	 23	 82	 83	  1	
20-Apr-2013	sub2321	2321	  2	  1	122	  6	  2	  6	  3	  2	  1	  2	  1	0.42552	  1	0.60000	  0	 26	 65	 66	  1	
20-Apr-2013	sub2321	2321	  2	  1	123	  6	  2	  6	  3	  2	  0	  2	  0	0.38695	  1	0.60000	  0	 26	 67	 88	  1	
20-Apr-2013	sub2321	2321	  2	  1	124	  6	  2	  5	  6	  5	  0	  2	  1	0.50637	  0	0.60000	  0	 25	 87	 68	  0	
20-Apr-2013	sub2321	2321	  2	  1	125	  6	  2	  6	  3	  2	  1	  2	  1	0.46562	  1	0.60000	  0	 26	 65	 66	  1	
20-Apr-2013	sub2321	2321	  2	  1	126	  6	  2	  4	  2	  2	  0	  2	  0	0.41672	  1	0.50000	  0	 24	 64	 89	  1	
20-Apr-2013	sub2321	2321	  2	  1	127	  6	  2	  1	  1	  5	  1	  1	  1	0.58118	  1	0.50000	  1	 21	 60	 51	  0	
20-Apr-2013	sub2321	2321	  2	  1	128	  6	  2	  3	  5	  1	  1	  2	  0	0.44716	  0	0.60000	  0	 23	 82	 83	  1	
20-Apr-2013	sub2321	2321	  2	  1	129	  6	  2	  4	  2	  2	  1	  1	  0	0.38499	  0	0.60000	  0	 24	 82	 83	  1	
20-Apr-2013	sub2321	2321	  2	  1	130	  6	  2	  1	  1	  5	  1	  1	  1	0.54472	  1	0.60000	  0	 21	 60	 61	  0	
20-Apr-2013	sub2321	2321	  2	  1	131	  6	  2	  5	  6	  5	  0	  2	  1	0.39288	  0	0.60000	  0	 25	 87	 68	  1	
20-Apr-2013	sub2321	2321	  2	  1	132	  6	  2	  3	  5	  1	  1	  1	  1	0.51473	  1	0.60000	  0	 23	 62	 63	  0	
20-Apr-2013	sub2321	2321	  2	  1	133	  6	  2	  5	  6	  5	  0	  1	  0	0.33243	  1	0.60000	  0	 25	 67	 88	  1	
20-Apr-2013	sub2321	2321	  2	  1	134	  6	  2	  6	  3	  2	  0	  2	  0	0.41219	  1	0.60000	  0	 26	 67	 88	  1	
20-Apr-2013	sub2321	2321	  2	  1	135	  6	  2	  4	  2	  2	  1	  1	  0	0.43786	  0	0.60000	  0	 24	 82	 83	  1	
20-Apr-2013	sub2321	2321	  2	  1	136	  6	  2	  5	  6	  5	  0	  2	  1	0.50463	  0	0.60000	  0	 25	 87	 68	  0	
20-Apr-2013	sub2321	2321	  2	  1	137	  6	  2	  1	  1	  5	  1	  1	  1	0.45273	  1	0.60000	  0	 21	 60	 61	  1	
20-Apr-2013	sub2321	2321	  2	  1	138	  6	  2	  3	  5	  1	  0	  1	  0	0.44472	  1	0.60000	  0	 23	 64	 89	  1	
20-Apr-2013	sub2321	2321	  2	  1	139	  6	  2	  4	  2	  2	  1	  2	  1	0.45514	  1	0.60000	  0	 24	 62	 63	  1	
20-Apr-2013	sub2321	2321	  2	  1	140	  6	  2	  5	  6	  5	  0	  1	  0	0.50997	  1	0.60000	  0	 25	 67	 88	  0	
20-Apr-2013	sub2321	2321	  2	  1	141	  6	  2	  6	  3	  2	  0	  2	  0	0.38780	  1	0.60000	  0	 26	 67	 88	  1	
20-Apr-2013	sub2321	2321	  2	  1	142	  6	  2	  4	  2	  2	  1	  2	  1	0.38956	  1	0.60000	  0	 24	 62	 63	  1	
20-Apr-2013	sub2321	2321	  2	  1	143	  6	  2	  2	  4	  1	  1	  2	  1	0.36758	  1	0.60000	  0	 22	 60	 61	  1	
20-Apr-2013	sub2321	2321	  2	  1	144	  6	  2	  2	  4	  1	  1	  2	  1	0.42427	  1	0.60000	  0	 22	 60	 61	  1	
20-Apr-2013	sub2321	2321	  2	  1	145	  6	  2	  2	  4	  1	  1	  2	  1	0.37586	  1	0.60000	  0	 22	 60	 61	  1	
20-Apr-2013	sub2321	2321	  2	  1	146	  6	  2	  6	  3	  2	  0	  2	  0	0.41303	  1	0.60000	  0	 26	 67	 88	  1	
20-Apr-2013	sub2321	2321	  2	  1	147	  6	  2	  3	  5	  1	  1	  1	  1	0.39639	  1	0.60000	  0	 23	 62	 63	  1	
20-Apr-2013	sub2321	2321	  2	  1	148	  6	  2	  2	  4	  1	  1	  2	  1	0.52740	  1	0.60000	  0	 22	 60	 61	  0	
20-Apr-2013	sub2321	2321	  2	  1	149	  6	  2	  4	  2	  2	  0	  2	  0	0.40269	  1	0.60000	  0	 24	 64	 89	  1	
20-Apr-2013	sub2321	2321	  2	  1	150	  6	  2	  4	  2	  2	  1	  2	  1	0.45312	  1	0.60000	  0	 24	 62	 63	  1	
