Date 	 Name 	 ID 	 Gender 	 Appearance 	 Trial 	 Block 	 Bin 	 Condition 	 Category 	 Number 	 Valid 	 Keypress 	 Correct 	 RT 	 Realcorrect 	 Deadline 	 Timeout 	 Stimtrigger 	 Resptrigger 	 Fedtrigger 	 WithinTime 	 
21-Apr-13	sub2322	2322	2	0	1	1	1	1	5	4	1	1	1	1.18983	1	0.6	1	11	30	51	0	
21-Apr-13	sub2322	2322	2	0	2	1	1	6	4	4	0	2	0	0.39368	1	0.9	0	16	37	48	1	
21-Apr-13	sub2322	2322	2	0	3	1	1	3	6	4	1	1	1	0.62901	1	0.9	0	13	32	33	0	
21-Apr-13	sub2322	2322	2	0	4	1	1	3	6	4	1	1	1	0.72253	1	0.9	0	13	32	33	0	
21-Apr-13	sub2322	2322	2	0	5	1	1	3	6	4	1	1	1	0.57494	1	0.9	0	13	32	33	0	
21-Apr-13	sub2322	2322	2	0	6	1	1	4	3	4	1	2	1	0.60517	1	0.9	0	14	32	33	0	
21-Apr-13	sub2322	2322	2	0	7	1	1	3	6	4	1	2	0	0.96086	0	0.9	1	13	42	51	0	
21-Apr-13	sub2322	2322	2	0	8	1	1	2	1	2	1	1	0	0.52132	0	0.9	0	12	40	41	0	
21-Apr-13	sub2322	2322	2	0	9	1	1	1	5	4	1	1	1	0.75951	1	0.9	0	11	30	31	0	
21-Apr-13	sub2322	2322	2	0	10	1	1	1	5	4	1	1	1	0.78223	1	0.9	0	11	30	31	0	
21-Apr-13	sub2322	2322	2	0	11	1	1	6	4	4	1	1	0	0.5663	0	0.9	0	16	45	46	0	
21-Apr-13	sub2322	2322	2	0	12	1	1	1	5	4	1	2	0	0.48283	0	0.9	0	11	40	41	1	
21-Apr-13	sub2322	2322	2	0	13	1	1	6	4	4	1	1	0	0.4996	0	0.9	0	16	45	46	1	
21-Apr-13	sub2322	2322	2	0	14	1	1	3	6	4	0	2	1	0.47216	0	0.9	0	13	44	39	1	
21-Apr-13	sub2322	2322	2	0	15	1	1	2	1	2	1	1	0	0.79394	0	0.9	0	12	40	41	0	
21-Apr-13	sub2322	2322	2	0	16	1	1	5	2	2	1	2	0	0.74331	0	0.9	0	15	45	46	0	
21-Apr-13	sub2322	2322	2	0	17	1	1	2	1	2	1	1	0	0.7457	0	0.9	0	12	40	41	0	
21-Apr-13	sub2322	2322	2	0	18	1	1	1	5	4	1	2	0	0.42703	0	0.9	0	11	40	41	1	
21-Apr-13	sub2322	2322	2	0	19	1	1	4	3	4	1	2	1	0.50008	1	0.9	0	14	32	33	1	
21-Apr-13	sub2322	2322	2	0	20	1	1	6	4	4	0	2	0	0.58289	1	0.9	0	16	37	48	0	
21-Apr-13	sub2322	2322	2	0	21	1	1	1	5	4	1	1	1	0.44174	1	0.9	0	11	30	31	1	
21-Apr-13	sub2322	2322	2	0	22	1	1	5	2	2	0	1	0	0.70266	1	0.9	0	15	37	48	0	
21-Apr-13	sub2322	2322	2	0	23	1	1	6	4	4	0	2	0	0.5997	1	0.9	0	16	37	48	0	
21-Apr-13	sub2322	2322	2	0	24	1	1	4	3	4	1	2	1	0.72627	1	0.9	0	14	32	33	0	
21-Apr-13	sub2322	2322	2	0	25	1	1	1	5	4	1	1	1	0.7628	1	0.9	0	11	30	31	0	
21-Apr-13	sub2322	2322	2	0	26	1	1	5	2	2	1	1	1	0.50843	1	0.9	0	15	35	36	0	
21-Apr-13	sub2322	2322	2	0	27	1	1	6	4	4	0	1	1	0.48217	0	0.9	0	16	47	38	1	
21-Apr-13	sub2322	2322	2	0	28	1	1	4	3	4	1	1	0	0.4703	0	0.9	0	14	42	43	1	
21-Apr-13	sub2322	2322	2	0	29	1	1	4	3	4	0	2	0	0.56098	1	0.9	0	14	34	49	0	
21-Apr-13	sub2322	2322	2	0	30	1	1	5	2	2	0	1	0	0.60512	1	0.8	0	15	37	48	0	
21-Apr-13	sub2322	2322	2	0	31	1	1	3	6	4	1	2	0	0.30686	0	0.8	0	13	42	43	1	
21-Apr-13	sub2322	2322	2	0	32	1	1	6	4	4	0	1	1	0.56274	0	0.8	0	16	47	38	0	
21-Apr-13	sub2322	2322	2	0	33	1	1	2	1	2	1	1	0	0.51417	0	0.8	0	12	40	41	0	
21-Apr-13	sub2322	2322	2	0	34	1	1	4	3	4	1	2	1	0.56157	1	0.8	0	14	32	33	0	
21-Apr-13	sub2322	2322	2	0	35	1	1	2	1	2	1	2	1	0.51319	1	0.7	0	12	30	31	0	
21-Apr-13	sub2322	2322	2	0	36	1	1	5	2	2	0	1	0	0.51331	1	0.7	0	15	37	48	0	
21-Apr-13	sub2322	2322	2	0	37	1	1	1	5	4	1	1	1	0.52137	1	0.7	0	11	30	31	0	
21-Apr-13	sub2322	2322	2	0	38	1	1	3	6	4	1	1	1	0.4368	1	0.7	0	13	32	33	1	
21-Apr-13	sub2322	2322	2	0	39	1	1	3	6	4	0	1	0	0.63159	1	0.7	0	13	34	49	0	
21-Apr-13	sub2322	2322	2	0	40	1	1	2	1	2	1	2	1	0.55548	1	0.7	0	12	30	31	0	
21-Apr-13	sub2322	2322	2	0	41	1	1	5	2	2	1	1	1	0.44515	1	0.6	0	15	35	36	1	
21-Apr-13	sub2322	2322	2	0	42	1	1	5	2	2	1	1	1	0.43602	1	0.6	0	15	35	36	1	
21-Apr-13	sub2322	2322	2	0	43	1	1	4	3	4	1	1	0	0.53265	0	0.6	0	14	42	43	0	
21-Apr-13	sub2322	2322	2	0	44	1	1	5	2	2	1	1	1	0.61041	1	0.6	1	15	35	51	0	
21-Apr-13	sub2322	2322	2	0	45	1	1	2	1	2	1	1	0	0.51295	0	0.8	0	12	40	41	0	
21-Apr-13	sub2322	2322	2	0	46	1	1	1	5	4	1	1	1	0.43563	1	0.8	0	11	30	31	1	
21-Apr-13	sub2322	2322	2	0	47	1	1	3	6	4	1	1	1	0.38774	1	0.8	0	13	32	33	1	
21-Apr-13	sub2322	2322	2	0	48	1	1	4	3	4	1	1	0	0.52305	0	0.8	0	14	42	43	0	
21-Apr-13	sub2322	2322	2	0	49	1	1	6	4	4	1	1	0	0.49886	0	0.8	0	16	45	46	1	
21-Apr-13	sub2322	2322	2	0	50	1	1	2	1	2	1	2	1	0.53752	1	0.8	0	12	30	31	0	
21-Apr-13	sub2322	2322	2	0	51	1	1	6	4	4	0	1	1	0.49428	0	0.7	0	16	47	38	1	
21-Apr-13	sub2322	2322	2	0	52	1	1	3	6	4	1	1	1	0.38985	1	0.7	0	13	32	33	1	
21-Apr-13	sub2322	2322	2	0	53	1	1	3	6	4	1	1	1	0.54167	1	0.7	0	13	32	33	0	
21-Apr-13	sub2322	2322	2	0	54	1	1	2	1	2	1	1	0	0.62865	0	0.7	0	12	40	41	0	
21-Apr-13	sub2322	2322	2	0	55	1	1	4	3	4	1	2	1	0.59906	1	0.7	0	14	32	33	0	
21-Apr-13	sub2322	2322	2	0	56	1	1	6	4	4	0	2	0	0.67119	1	0.7	0	16	37	48	0	
21-Apr-13	sub2322	2322	2	0	57	1	1	2	1	2	1	1	0	0.46046	0	0.7	0	12	40	41	1	
21-Apr-13	sub2322	2322	2	0	58	1	1	6	4	4	1	1	0	0.59834	0	0.7	0	16	45	46	0	
21-Apr-13	sub2322	2322	2	0	59	1	1	6	4	4	0	1	1	0.47445	0	0.7	0	16	47	38	1	
21-Apr-13	sub2322	2322	2	0	60	1	1	2	1	2	1	1	0	0.69006	0	0.7	0	12	40	41	0	
21-Apr-13	sub2322	2322	2	0	61	1	1	1	5	4	1	1	1	0.56847	1	0.6	0	11	30	31	0	
21-Apr-13	sub2322	2322	2	0	62	1	1	5	2	2	0	2	1	0.63848	0	0.6	1	15	47	51	0	
21-Apr-13	sub2322	2322	2	0	63	1	1	5	2	2	1	1	1	0.39173	1	0.8	0	15	35	36	1	
21-Apr-13	sub2322	2322	2	0	64	1	1	4	3	4	1	1	0	0.4716	0	0.8	0	14	42	43	1	
21-Apr-13	sub2322	2322	2	0	65	1	1	3	6	4	1	1	1	0.58227	1	0.8	0	13	32	33	0	
21-Apr-13	sub2322	2322	2	0	66	1	1	2	1	2	1	2	1	0.64007	1	0.8	0	12	30	31	0	
21-Apr-13	sub2322	2322	2	0	67	1	1	3	6	4	0	1	0	0.53503	1	0.8	0	13	34	49	0	
21-Apr-13	sub2322	2322	2	0	68	1	1	4	3	4	1	2	1	0.42975	1	0.7	0	14	32	33	1	
21-Apr-13	sub2322	2322	2	0	69	1	1	1	5	4	1	1	1	0.5014	1	0.7	0	11	30	31	0	
21-Apr-13	sub2322	2322	2	0	70	1	1	5	2	2	1	2	0	0.53137	0	0.7	0	15	45	46	0	
21-Apr-13	sub2322	2322	2	0	71	1	1	5	2	2	0	2	1	0.50509	0	0.7	0	15	47	38	0	
21-Apr-13	sub2322	2322	2	0	72	1	1	4	3	4	0	1	1	0.45742	0	0.7	0	14	44	39	1	
21-Apr-13	sub2322	2322	2	0	73	1	1	2	1	2	1	1	0	0.52403	0	0.7	0	12	40	41	0	
21-Apr-13	sub2322	2322	2	0	74	1	1	6	4	4	1	1	0	0.99153	0	0.7	1	16	45	51	0	
21-Apr-13	sub2322	2322	2	0	75	1	1	1	5	4	1	1	1	0.42805	1	0.8	0	11	30	31	1	
21-Apr-13	sub2322	2322	2	0	1	2	1	5	6	3	1	2	0	0.39938	0	0.6	0	15	45	46	1	
21-Apr-13	sub2322	2322	2	0	2	2	1	1	4	1	1	1	1	0.48001	1	0.3	1	11	30	51	1	
21-Apr-13	sub2322	2322	2	0	3	2	1	3	5	3	1	2	0	0.34231	0	0.9	0	13	42	43	1	
21-Apr-13	sub2322	2322	2	0	4	2	1	5	6	3	1	2	0	0.53277	0	0.9	0	15	45	46	0	
21-Apr-13	sub2322	2322	2	0	5	2	1	6	3	1	0	2	0	0.62987	1	0.9	0	16	37	48	0	
21-Apr-13	sub2322	2322	2	0	6	2	1	1	4	1	1	2	0	0.52174	0	0.9	0	11	40	41	0	
21-Apr-13	sub2322	2322	2	0	7	2	1	2	1	1	1	1	0	0.72644	0	0.9	0	12	40	41	0	
21-Apr-13	sub2322	2322	2	0	8	2	1	1	4	1	1	1	1	0.5223	1	0.9	0	11	30	31	0	
21-Apr-13	sub2322	2322	2	0	9	2	1	2	1	1	1	1	0	0.50855	0	0.9	0	12	40	41	0	
21-Apr-13	sub2322	2322	2	0	10	2	1	1	4	1	1	1	1	0.44194	1	0.9	0	11	30	31	1	
21-Apr-13	sub2322	2322	2	0	11	2	1	6	3	1	1	1	0	0.46087	0	0.9	0	16	45	46	1	
21-Apr-13	sub2322	2322	2	0	12	2	1	2	1	1	1	1	0	0.4819	0	0.9	0	12	40	41	1	
21-Apr-13	sub2322	2322	2	0	13	2	1	3	5	3	1	2	0	0.63354	0	0.9	0	13	42	43	0	
21-Apr-13	sub2322	2322	2	0	14	2	1	6	3	1	1	1	0	0.40555	0	0.9	0	16	45	46	1	
21-Apr-13	sub2322	2322	2	0	15	2	1	6	3	1	0	2	0	0.39952	1	0.9	0	16	37	48	1	
21-Apr-13	sub2322	2322	2	0	16	2	1	3	5	3	1	1	1	0.55056	1	0.8	0	13	32	33	0	
21-Apr-13	sub2322	2322	2	0	17	2	1	1	4	1	1	1	1	0.51471	1	0.8	0	11	30	31	0	
21-Apr-13	sub2322	2322	2	0	18	2	1	2	1	1	1	2	1	0.66665	1	0.7	0	12	30	31	0	
21-Apr-13	sub2322	2322	2	0	19	2	1	1	4	1	1	1	1	0.54353	1	0.7	0	11	30	31	0	
21-Apr-13	sub2322	2322	2	0	20	2	1	6	3	1	0	2	0	0.61071	1	0.7	0	16	37	48	0	
21-Apr-13	sub2322	2322	2	0	21	2	1	4	2	4	1	1	0	0.3757	0	0.6	0	14	42	43	1	
21-Apr-13	sub2322	2322	2	0	22	2	1	6	3	1	1	2	1	0.51004	1	0.6	0	16	35	36	0	
21-Apr-13	sub2322	2322	2	0	23	2	1	3	5	3	0	1	0	0.55436	1	0.6	0	13	34	49	0	
21-Apr-13	sub2322	2322	2	0	24	2	1	6	3	1	1	1	0	0.48359	0	0.6	0	16	45	46	1	
21-Apr-13	sub2322	2322	2	0	25	2	1	4	2	4	1	2	1	0.53733	1	0.6	0	14	32	33	0	
21-Apr-13	sub2322	2322	2	0	26	2	1	2	1	1	1	1	0	0.64273	0	0.5	1	12	40	51	0	
21-Apr-13	sub2322	2322	2	0	27	2	1	4	2	4	1	2	1	0.4132	1	0.9	0	14	32	33	1	
21-Apr-13	sub2322	2322	2	0	28	2	1	6	3	1	1	2	1	0.54754	1	0.9	0	16	35	36	0	
21-Apr-13	sub2322	2322	2	0	29	2	1	3	5	3	0	2	1	0.59165	0	0.9	0	13	44	39	0	
21-Apr-13	sub2322	2322	2	0	30	2	1	4	2	4	1	1	0	0.54428	0	0.8	0	14	42	43	0	
21-Apr-13	sub2322	2322	2	0	31	2	1	2	1	1	1	2	1	0.50161	1	0.8	0	12	30	31	0	
21-Apr-13	sub2322	2322	2	0	32	2	1	5	6	3	1	1	1	0.45472	1	0.8	0	15	35	36	1	
21-Apr-13	sub2322	2322	2	0	33	2	1	4	2	4	1	2	1	0.46515	1	0.8	0	14	32	33	1	
21-Apr-13	sub2322	2322	2	0	34	2	1	4	2	4	0	2	0	0.4671	1	0.8	0	14	34	49	1	
21-Apr-13	sub2322	2322	2	0	35	2	1	6	3	1	1	2	1	0.58771	1	0.7	0	16	35	36	0	
21-Apr-13	sub2322	2322	2	0	36	2	1	2	1	1	1	2	1	0.60074	1	0.7	0	12	30	31	0	
21-Apr-13	sub2322	2322	2	0	37	2	1	1	4	1	1	1	1	0.44288	1	0.7	0	11	30	31	1	
21-Apr-13	sub2322	2322	2	0	38	2	1	1	4	1	1	1	1	0.70363	1	0.7	1	11	30	51	0	
21-Apr-13	sub2322	2322	2	0	39	2	1	5	6	3	0	1	0	0.50205	1	0.9	0	15	37	48	0	
21-Apr-13	sub2322	2322	2	0	40	2	1	1	4	1	1	2	0	0.47443	0	0.9	0	11	40	41	1	
21-Apr-13	sub2322	2322	2	0	41	2	1	3	5	3	1	1	1	0.53701	1	0.9	0	13	32	33	0	
21-Apr-13	sub2322	2322	2	0	42	2	1	3	5	3	1	1	1	0.47717	1	0.9	0	13	32	33	1	
21-Apr-13	sub2322	2322	2	0	43	2	1	5	6	3	0	1	0	0.55688	1	0.9	0	15	37	48	0	
21-Apr-13	sub2322	2322	2	0	44	2	1	5	6	3	0	1	0	0.37308	1	0.8	0	15	37	48	1	
21-Apr-13	sub2322	2322	2	0	45	2	1	5	6	3	1	2	0	0.57278	0	0.8	0	15	45	46	0	
21-Apr-13	sub2322	2322	2	0	46	2	1	4	2	4	1	1	0	0.49823	0	0.8	0	14	42	43	1	
21-Apr-13	sub2322	2322	2	0	47	2	1	3	5	3	0	2	1	0.4918	0	0.8	0	13	44	39	1	
21-Apr-13	sub2322	2322	2	0	48	2	1	4	2	4	1	2	1	0.58086	1	0.8	0	14	32	33	0	
21-Apr-13	sub2322	2322	2	0	49	2	1	4	2	4	0	2	0	0.51621	1	0.8	0	14	34	49	0	
21-Apr-13	sub2322	2322	2	0	50	2	1	2	1	1	1	1	0	0.52277	0	0.8	0	12	40	41	0	
21-Apr-13	sub2322	2322	2	0	51	2	1	3	5	3	1	1	1	0.58335	1	0.7	0	13	32	33	0	
21-Apr-13	sub2322	2322	2	0	52	2	1	2	1	1	1	2	1	0.66733	1	0.7	0	12	30	31	0	
21-Apr-13	sub2322	2322	2	0	53	2	1	5	6	3	1	1	1	0.46771	1	0.7	0	15	35	36	1	
21-Apr-13	sub2322	2322	2	0	54	2	1	4	2	4	1	2	1	0.57489	1	0.7	0	14	32	33	0	
21-Apr-13	sub2322	2322	2	0	55	2	1	3	5	3	1	1	1	0.55253	1	0.7	0	13	32	33	0	
21-Apr-13	sub2322	2322	2	0	56	2	1	2	1	1	1	2	1	0.5519	1	0.7	0	12	30	31	0	
21-Apr-13	sub2322	2322	2	0	57	2	1	5	6	3	1	1	1	0.64643	1	0.7	0	15	35	36	0	
21-Apr-13	sub2322	2322	2	0	58	2	1	4	2	4	1	2	1	0.59973	1	0.7	0	14	32	33	0	
21-Apr-13	sub2322	2322	2	0	59	2	1	6	3	1	0	2	0	0.36787	1	0.7	0	16	37	48	1	
21-Apr-13	sub2322	2322	2	0	60	2	1	5	6	3	0	1	0	0.57765	1	0.7	0	15	37	48	0	
21-Apr-13	sub2322	2322	2	0	61	2	1	1	4	1	1	1	1	0.60573	1	0.6	1	11	30	51	0	
21-Apr-13	sub2322	2322	2	0	62	2	1	6	3	1	1	1	0	0.61598	0	0.8	0	16	45	46	0	
21-Apr-13	sub2322	2322	2	0	63	2	1	6	3	1	0	2	0	0.60001	1	0.8	0	16	37	48	0	
21-Apr-13	sub2322	2322	2	0	64	2	1	5	6	3	0	1	0	0.53912	1	0.8	0	15	37	48	0	
21-Apr-13	sub2322	2322	2	0	65	2	1	2	1	1	1	2	1	0.48564	1	0.8	0	12	30	31	1	
21-Apr-13	sub2322	2322	2	0	66	2	1	3	5	3	1	1	1	0.66405	1	0.8	0	13	32	33	0	
21-Apr-13	sub2322	2322	2	0	67	2	1	1	4	1	1	2	0	0.55085	0	0.8	0	11	40	41	0	
21-Apr-13	sub2322	2322	2	0	68	2	1	2	1	1	1	2	1	0.55753	1	0.7	0	12	30	31	0	
21-Apr-13	sub2322	2322	2	0	69	2	1	4	2	4	1	1	0	0.43902	0	0.7	0	14	42	43	1	
21-Apr-13	sub2322	2322	2	0	70	2	1	6	3	1	0	2	0	0.46674	1	0.7	0	16	37	48	1	
21-Apr-13	sub2322	2322	2	0	71	2	1	3	5	3	1	2	0	0.45019	0	0.7	0	13	42	43	1	
21-Apr-13	sub2322	2322	2	0	72	2	1	1	4	1	1	1	1	0.37006	1	0.7	0	11	30	31	1	
21-Apr-13	sub2322	2322	2	0	73	2	1	5	6	3	0	2	1	0.53973	0	0.7	0	15	47	38	0	
21-Apr-13	sub2322	2322	2	0	74	2	1	3	5	3	1	1	1	0.44987	1	0.7	0	13	32	33	1	
21-Apr-13	sub2322	2322	2	0	75	2	1	2	1	1	1	2	1	0.58138	1	0.7	0	12	30	31	0	
21-Apr-13	sub2322	2322	2	0	76	2	2	4	2	4	1	2	1	0.47998	1	0.7	0	24	62	63	1	
21-Apr-13	sub2322	2322	2	0	77	2	2	5	6	3	0	1	0	0.80102	1	0.7	1	25	67	51	0	
21-Apr-13	sub2322	2322	2	0	78	2	2	5	6	3	0	2	1	0.3998	0	0.8	0	25	87	68	1	
21-Apr-13	sub2322	2322	2	0	79	2	2	5	6	3	0	2	1	0.48141	0	0.8	0	25	87	68	1	
21-Apr-13	sub2322	2322	2	0	80	2	2	3	5	3	1	1	1	0.59079	1	0.8	0	23	62	63	0	
21-Apr-13	sub2322	2322	2	0	81	2	2	4	2	4	1	2	1	0.6369	1	0.8	0	24	62	63	0	
21-Apr-13	sub2322	2322	2	0	82	2	2	2	1	1	1	2	1	0.56792	1	0.8	0	22	60	61	0	
21-Apr-13	sub2322	2322	2	0	83	2	2	6	3	1	1	2	1	0.47433	1	0.8	0	26	65	66	1	
21-Apr-13	sub2322	2322	2	0	84	2	2	2	1	1	1	2	1	0.55732	1	0.8	0	22	60	61	0	
21-Apr-13	sub2322	2322	2	0	85	2	2	5	6	3	0	2	1	0.50173	0	0.7	0	25	87	68	0	
21-Apr-13	sub2322	2322	2	0	86	2	2	4	2	4	1	1	0	0.41274	0	0.7	0	24	82	83	1	
21-Apr-13	sub2322	2322	2	0	87	2	2	3	5	3	0	1	0	0.66941	1	0.7	0	23	64	89	0	
21-Apr-13	sub2322	2322	2	0	88	2	2	5	6	3	0	2	1	0.69037	0	0.7	0	25	87	68	0	
21-Apr-13	sub2322	2322	2	0	89	2	2	5	6	3	0	2	1	0.46414	0	0.7	0	25	87	68	1	
21-Apr-13	sub2322	2322	2	0	90	2	2	3	5	3	1	1	1	0.54613	1	0.7	0	23	62	63	0	
21-Apr-13	sub2322	2322	2	0	91	2	2	1	4	1	1	1	1	0.43999	1	0.7	0	21	60	61	1	
21-Apr-13	sub2322	2322	2	0	92	2	2	6	3	1	1	2	1	0.47193	1	0.7	0	26	65	66	1	
21-Apr-13	sub2322	2322	2	0	93	2	2	2	1	1	1	2	1	0.40138	1	0.7	0	22	60	61	1	
21-Apr-13	sub2322	2322	2	0	94	2	2	2	1	1	1	2	1	0.54543	1	0.7	0	22	60	61	0	
21-Apr-13	sub2322	2322	2	0	95	2	2	6	3	1	1	2	1	0.53192	1	0.7	0	26	65	66	0	
21-Apr-13	sub2322	2322	2	0	96	2	2	6	3	1	0	2	0	0.51448	1	0.7	0	26	67	88	0	
21-Apr-13	sub2322	2322	2	0	97	2	2	4	2	4	1	2	1	0.592	1	0.7	0	24	62	63	0	
21-Apr-13	sub2322	2322	2	0	98	2	2	6	3	1	0	2	0	0.50856	1	0.7	0	26	67	88	0	
21-Apr-13	sub2322	2322	2	0	99	2	2	5	6	3	0	2	1	0.46891	0	0.7	0	25	87	68	1	
21-Apr-13	sub2322	2322	2	0	100	2	2	6	3	1	0	2	0	0.24683	1	0.7	0	26	67	88	1	
21-Apr-13	sub2322	2322	2	0	101	2	2	3	5	3	1	1	1	0.70267	1	0.6	1	23	62	51	0	
21-Apr-13	sub2322	2322	2	0	102	2	2	5	6	3	0	1	0	0.38449	1	0.7	0	25	67	88	1	
21-Apr-13	sub2322	2322	2	0	103	2	2	3	5	3	1	1	1	0.65794	1	0.7	0	23	62	63	0	
21-Apr-13	sub2322	2322	2	0	104	2	2	1	4	1	1	1	1	0.41969	1	0.7	0	21	60	61	1	
21-Apr-13	sub2322	2322	2	0	105	2	2	6	3	1	1	2	1	0.6456	1	0.7	0	26	65	66	0	
21-Apr-13	sub2322	2322	2	0	106	2	2	3	5	3	1	2	0	0.42211	0	0.7	0	23	82	83	1	
21-Apr-13	sub2322	2322	2	0	107	2	2	1	4	1	1	1	1	0.67119	1	0.7	0	21	60	61	0	
21-Apr-13	sub2322	2322	2	0	108	2	2	2	1	1	1	2	1	0.51258	1	0.7	0	22	60	61	0	
21-Apr-13	sub2322	2322	2	0	109	2	2	1	4	1	1	1	1	0.61215	1	0.7	0	21	60	61	0	
21-Apr-13	sub2322	2322	2	0	110	2	2	3	5	3	1	2	0	0.73731	0	0.7	1	23	82	51	0	
21-Apr-13	sub2322	2322	2	0	111	2	2	1	4	1	1	1	1	0.5962	1	0.8	0	21	60	61	0	
21-Apr-13	sub2322	2322	2	0	112	2	2	5	6	3	0	2	1	0.62226	0	0.8	0	25	87	68	0	
21-Apr-13	sub2322	2322	2	0	113	2	2	2	1	1	1	2	1	0.6679	1	0.8	0	22	60	61	0	
21-Apr-13	sub2322	2322	2	0	114	2	2	4	2	4	1	1	0	0.57722	0	0.8	0	24	82	83	0	
21-Apr-13	sub2322	2322	2	0	115	2	2	1	4	1	1	1	1	0.57506	1	0.8	0	21	60	61	0	
21-Apr-13	sub2322	2322	2	0	116	2	2	2	1	1	1	2	1	0.59758	1	0.8	0	22	60	61	0	
21-Apr-13	sub2322	2322	2	0	117	2	2	4	2	4	1	2	1	0.65129	1	0.8	0	24	62	63	0	
21-Apr-13	sub2322	2322	2	0	118	2	2	5	6	3	0	1	0	0.47306	1	0.7	0	25	67	88	1	
21-Apr-13	sub2322	2322	2	0	119	2	2	4	2	4	0	2	0	0.4574	1	0.7	0	24	64	89	1	
21-Apr-13	sub2322	2322	2	0	120	2	2	3	5	3	1	1	1	1.70912	1	0.7	1	23	62	51	0	
21-Apr-13	sub2322	2322	2	0	121	2	2	3	5	3	0	1	0	0.5479	1	0.8	0	23	64	89	0	
21-Apr-13	sub2322	2322	2	0	122	2	2	1	4	1	1	1	1	0.50709	1	0.8	0	21	60	61	0	
21-Apr-13	sub2322	2322	2	0	123	2	2	1	4	1	1	1	1	0.71378	1	0.8	0	21	60	61	0	
21-Apr-13	sub2322	2322	2	0	124	2	2	5	6	3	0	2	1	0.62159	0	0.8	0	25	87	68	0	
21-Apr-13	sub2322	2322	2	0	125	2	2	4	2	4	1	1	0	0.66578	0	0.8	0	24	82	83	0	
21-Apr-13	sub2322	2322	2	0	126	2	2	1	4	1	1	1	1	0.66272	1	0.8	0	21	60	61	0	
21-Apr-13	sub2322	2322	2	0	127	2	2	2	1	1	1	2	1	0.5049	1	0.8	0	22	60	61	0	
21-Apr-13	sub2322	2322	2	0	128	2	2	1	4	1	1	2	0	0.46938	0	0.8	0	21	80	81	1	
21-Apr-13	sub2322	2322	2	0	129	2	2	6	3	1	0	2	0	0.52836	1	0.8	0	26	67	88	0	
21-Apr-13	sub2322	2322	2	0	130	2	2	2	1	1	1	2	1	0.627	1	0.8	0	22	60	61	0	
21-Apr-13	sub2322	2322	2	0	131	2	2	3	5	3	1	1	1	0.57252	1	0.8	0	23	62	63	0	
21-Apr-13	sub2322	2322	2	0	132	2	2	3	5	3	1	1	1	2.07055	1	0.8	1	23	62	51	0	
21-Apr-13	sub2322	2322	2	0	133	2	2	4	2	4	1	2	1	0.57869	1	0.8	0	24	62	63	0	
21-Apr-13	sub2322	2322	2	0	134	2	2	5	6	3	0	2	1	0.41158	0	0.8	0	25	87	68	1	
21-Apr-13	sub2322	2322	2	0	135	2	2	2	1	1	1	2	1	0.5528	1	0.8	0	22	60	61	0	
21-Apr-13	sub2322	2322	2	0	136	2	2	1	4	1	1	1	1	0.59853	1	0.8	0	21	60	61	0	
21-Apr-13	sub2322	2322	2	0	137	2	2	6	3	1	0	2	0	0.46641	1	0.8	0	26	67	88	1	
21-Apr-13	sub2322	2322	2	0	138	2	2	4	2	4	1	2	1	0.5259	1	0.8	0	24	62	63	0	
21-Apr-13	sub2322	2322	2	0	139	2	2	1	4	1	1	1	1	0.52688	1	0.8	0	21	60	61	0	
21-Apr-13	sub2322	2322	2	0	140	2	2	6	3	1	1	2	1	0.56344	1	0.8	0	26	65	66	0	
21-Apr-13	sub2322	2322	2	0	141	2	2	4	2	4	1	2	1	0.54885	1	0.8	0	24	62	63	0	
21-Apr-13	sub2322	2322	2	0	142	2	2	1	4	1	1	1	1	0.51	1	0.8	0	21	60	61	0	
21-Apr-13	sub2322	2322	2	0	143	2	2	6	3	1	1	2	1	0.55016	1	0.8	0	26	65	66	0	
21-Apr-13	sub2322	2322	2	0	144	2	2	4	2	4	0	2	0	0.46799	1	0.8	0	24	64	89	1	
21-Apr-13	sub2322	2322	2	0	145	2	2	6	3	1	0	2	0	0.57491	1	0.8	0	26	67	88	0	
21-Apr-13	sub2322	2322	2	0	146	2	2	2	1	1	1	2	1	0.5011	1	0.8	0	22	60	61	0	
21-Apr-13	sub2322	2322	2	0	147	2	2	2	1	1	1	2	1	0.71303	1	0.8	0	22	60	61	0	
21-Apr-13	sub2322	2322	2	0	148	2	2	5	6	3	0	2	1	0.54864	0	0.8	0	25	87	68	0	
21-Apr-13	sub2322	2322	2	0	149	2	2	3	5	3	1	1	1	0.46627	1	0.8	0	23	62	63	1	
21-Apr-13	sub2322	2322	2	0	150	2	2	4	2	4	0	2	0	0.53342	1	0.8	0	24	64	89	0	
21-Apr-13	sub2322	2322	2	0	1	3	1	6	4	3	0	2	0	0.42561	1	0.6	0	16	37	48	1	
21-Apr-13	sub2322	2322	2	0	2	3	1	5	6	6	1	2	0	0.38684	0	0.3	1	15	45	51	1	
21-Apr-13	sub2322	2322	2	0	3	3	1	5	6	6	1	2	0	0.43067	0	0.9	0	15	45	46	1	
21-Apr-13	sub2322	2322	2	0	4	3	1	3	5	6	0	2	1	0.42144	0	0.9	0	13	44	39	1	
21-Apr-13	sub2322	2322	2	0	5	3	1	6	4	3	0	2	0	0.46207	1	0.9	0	16	37	48	1	
21-Apr-13	sub2322	2322	2	0	6	3	1	6	4	3	0	2	0	0.69117	1	0.9	0	16	37	48	0	
21-Apr-13	sub2322	2322	2	0	7	3	1	2	2	5	1	2	1	0.60314	1	0.9	0	12	30	31	0	
21-Apr-13	sub2322	2322	2	0	8	3	1	1	1	5	1	2	0	0.53321	0	0.9	0	11	40	41	0	
21-Apr-13	sub2322	2322	2	0	9	3	1	1	1	5	1	1	1	0.59812	1	0.9	0	11	30	31	0	
21-Apr-13	sub2322	2322	2	0	10	3	1	4	3	3	1	1	0	0.55985	0	0.9	0	14	42	43	0	
21-Apr-13	sub2322	2322	2	0	11	3	1	5	6	6	0	2	1	0.56778	0	0.9	0	15	47	38	0	
21-Apr-13	sub2322	2322	2	0	12	3	1	6	4	3	0	2	0	0.55544	1	0.9	0	16	37	48	0	
21-Apr-13	sub2322	2322	2	0	13	3	1	1	1	5	1	2	0	0.55662	0	0.9	0	11	40	41	0	
21-Apr-13	sub2322	2322	2	0	14	3	1	1	1	5	1	1	1	0.7059	1	0.9	0	11	30	31	0	
21-Apr-13	sub2322	2322	2	0	15	3	1	5	6	6	0	2	1	0.72128	0	0.9	0	15	47	38	0	
21-Apr-13	sub2322	2322	2	0	16	3	1	1	1	5	1	1	1	0.89878	1	0.8	1	11	30	51	0	
21-Apr-13	sub2322	2322	2	0	17	3	1	3	5	6	1	2	0	0.59633	0	0.9	0	13	42	43	0	
21-Apr-13	sub2322	2322	2	0	18	3	1	6	4	3	1	1	0	0.6258	0	0.9	0	16	45	46	0	
21-Apr-13	sub2322	2322	2	0	19	3	1	2	2	5	1	2	1	0.59827	1	0.9	0	12	30	31	0	
21-Apr-13	sub2322	2322	2	0	20	3	1	4	3	3	1	2	1	0.61327	1	0.9	0	14	32	33	0	
21-Apr-13	sub2322	2322	2	0	21	3	1	1	1	5	1	2	0	0.65613	0	0.9	0	11	40	41	0	
21-Apr-13	sub2322	2322	2	0	22	3	1	6	4	3	0	1	1	0.74788	0	0.9	0	16	47	38	0	
21-Apr-13	sub2322	2322	2	0	23	3	1	2	2	5	1	2	1	0.4896	1	0.9	0	12	30	31	1	
21-Apr-13	sub2322	2322	2	0	24	3	1	5	6	6	1	2	0	0.77011	0	0.9	0	15	45	46	0	
21-Apr-13	sub2322	2322	2	0	25	3	1	3	5	6	1	1	1	0.58909	1	0.9	0	13	32	33	0	
21-Apr-13	sub2322	2322	2	0	26	3	1	5	6	6	1	2	0	0.31869	0	0.9	0	15	45	46	1	
21-Apr-13	sub2322	2322	2	0	27	3	1	2	2	5	1	2	1	0.66478	1	0.9	0	12	30	31	0	
21-Apr-13	sub2322	2322	2	0	28	3	1	5	6	6	0	1	0	1.43064	1	0.9	1	15	37	51	0	
21-Apr-13	sub2322	2322	2	0	29	3	1	4	3	3	0	2	0	0.43399	1	0.9	0	14	34	49	1	
21-Apr-13	sub2322	2322	2	0	30	3	1	6	4	3	1	2	1	0.61088	1	0.9	0	16	35	36	0	
21-Apr-13	sub2322	2322	2	0	31	3	1	6	4	3	1	2	1	0.49388	1	0.9	0	16	35	36	1	
21-Apr-13	sub2322	2322	2	0	32	3	1	3	5	6	1	2	0	0.61443	0	0.9	0	13	42	43	0	
21-Apr-13	sub2322	2322	2	0	33	3	1	2	2	5	1	2	1	0.596	1	0.9	0	12	30	31	0	
21-Apr-13	sub2322	2322	2	0	34	3	1	3	5	6	0	1	0	0.69563	1	0.9	0	13	34	49	0	
21-Apr-13	sub2322	2322	2	0	35	3	1	3	5	6	1	1	1	0.60197	1	0.9	0	13	32	33	0	
21-Apr-13	sub2322	2322	2	0	36	3	1	3	5	6	1	1	1	0.52681	1	0.9	0	13	32	33	0	
21-Apr-13	sub2322	2322	2	0	37	3	1	6	4	3	1	2	1	0.61603	1	0.9	0	16	35	36	0	
21-Apr-13	sub2322	2322	2	0	38	3	1	1	1	5	1	2	0	0.68317	0	0.9	0	11	40	41	0	
21-Apr-13	sub2322	2322	2	0	39	3	1	3	5	6	0	1	0	0.60834	1	0.9	0	13	34	49	0	
21-Apr-13	sub2322	2322	2	0	40	3	1	4	3	3	1	2	1	0.26506	1	0.9	0	14	32	33	1	
21-Apr-13	sub2322	2322	2	0	41	3	1	2	2	5	1	2	1	0.46299	1	0.9	0	12	30	31	1	
21-Apr-13	sub2322	2322	2	0	42	3	1	3	5	6	1	2	0	0.44326	0	0.9	0	13	42	43	1	
21-Apr-13	sub2322	2322	2	0	43	3	1	4	3	3	1	2	1	0.69926	1	0.9	0	14	32	33	0	
21-Apr-13	sub2322	2322	2	0	44	3	1	4	3	3	1	2	1	0.522	1	0.8	0	14	32	33	0	
21-Apr-13	sub2322	2322	2	0	45	3	1	2	2	5	1	2	1	0.57663	1	0.8	0	12	30	31	0	
21-Apr-13	sub2322	2322	2	0	46	3	1	2	2	5	1	2	1	0.41584	1	0.8	0	12	30	31	1	
21-Apr-13	sub2322	2322	2	0	47	3	1	4	3	3	1	2	1	0.68659	1	0.8	0	14	32	33	0	
21-Apr-13	sub2322	2322	2	0	48	3	1	1	1	5	1	2	0	0.51268	0	0.8	0	11	40	41	0	
21-Apr-13	sub2322	2322	2	0	49	3	1	6	4	3	0	1	1	0.58688	0	0.8	0	16	47	38	0	
21-Apr-13	sub2322	2322	2	0	50	3	1	5	6	6	1	1	1	0.64338	1	0.8	0	15	35	36	0	
21-Apr-13	sub2322	2322	2	0	51	3	1	5	6	6	1	1	1	0.55064	1	0.7	0	15	35	36	0	
21-Apr-13	sub2322	2322	2	0	52	3	1	4	3	3	1	2	1	0.62081	1	0.7	0	14	32	33	0	
21-Apr-13	sub2322	2322	2	0	53	3	1	1	1	5	1	2	0	0.70408	0	0.7	1	11	40	51	0	
21-Apr-13	sub2322	2322	2	0	54	3	1	1	1	5	1	1	1	0.41655	1	0.9	0	11	30	31	1	
21-Apr-13	sub2322	2322	2	0	55	3	1	2	2	5	1	2	1	0.51242	1	0.9	0	12	30	31	0	
21-Apr-13	sub2322	2322	2	0	56	3	1	5	6	6	0	1	0	0.80632	1	0.9	0	15	37	48	0	
21-Apr-13	sub2322	2322	2	0	57	3	1	3	5	6	1	2	0	0.75346	0	0.9	0	13	42	43	0	
21-Apr-13	sub2322	2322	2	0	58	3	1	5	6	6	0	1	0	0.62777	1	0.9	0	15	37	48	0	
21-Apr-13	sub2322	2322	2	0	59	3	1	4	3	3	1	2	1	0.42575	1	0.8	0	14	32	33	1	
21-Apr-13	sub2322	2322	2	0	60	3	1	6	4	3	1	1	0	0.7371	0	0.8	0	16	45	46	0	
21-Apr-13	sub2322	2322	2	0	61	3	1	2	2	5	1	2	1	0.56749	1	0.8	0	12	30	31	0	
21-Apr-13	sub2322	2322	2	0	62	3	1	3	5	6	1	2	0	0.92611	0	0.8	1	13	42	51	0	
21-Apr-13	sub2322	2322	2	0	63	3	1	5	6	6	0	1	0	0.69635	1	0.9	0	15	37	48	0	
21-Apr-13	sub2322	2322	2	0	64	3	1	2	2	5	1	2	1	0.39089	1	0.9	0	12	30	31	1	
21-Apr-13	sub2322	2322	2	0	65	3	1	6	4	3	0	1	1	0.68936	0	0.9	0	16	47	38	0	
21-Apr-13	sub2322	2322	2	0	66	3	1	6	4	3	1	1	0	0.49506	0	0.9	0	16	45	46	1	
21-Apr-13	sub2322	2322	2	0	67	3	1	4	3	3	0	2	0	0.63584	1	0.9	0	14	34	49	0	
21-Apr-13	sub2322	2322	2	0	68	3	1	3	5	6	1	2	0	0.65066	0	0.9	0	13	42	43	0	
21-Apr-13	sub2322	2322	2	0	69	3	1	2	2	5	1	1	0	0.54643	0	0.9	0	12	40	41	0	
21-Apr-13	sub2322	2322	2	0	70	3	1	1	1	5	1	1	1	0.71531	1	0.9	0	11	30	31	0	
21-Apr-13	sub2322	2322	2	0	71	3	1	1	1	5	1	1	1	0.48002	1	0.9	0	11	30	31	1	
21-Apr-13	sub2322	2322	2	0	72	3	1	3	5	6	1	2	0	0.66964	0	0.9	0	13	42	43	0	
21-Apr-13	sub2322	2322	2	0	73	3	1	2	2	5	1	2	1	0.37004	1	0.8	0	12	30	31	1	
21-Apr-13	sub2322	2322	2	0	74	3	1	4	3	3	1	2	1	0.46371	1	0.8	0	14	32	33	1	
21-Apr-13	sub2322	2322	2	0	75	3	1	4	3	3	1	2	1	0.89376	1	0.8	1	14	32	51	0	
21-Apr-13	sub2322	2322	2	0	76	3	2	2	2	5	1	2	1	0.3769	1	0.9	0	22	60	61	1	
21-Apr-13	sub2322	2322	2	0	77	3	2	2	2	5	1	2	1	0.48893	1	0.9	0	22	60	61	1	
21-Apr-13	sub2322	2322	2	0	78	3	2	5	6	6	0	1	0	0.78908	1	0.9	0	25	67	88	0	
21-Apr-13	sub2322	2322	2	0	79	3	2	5	6	6	0	1	0	0.53148	1	0.9	0	25	67	88	0	
21-Apr-13	sub2322	2322	2	0	80	3	2	4	3	3	1	2	1	0.82634	1	0.9	0	24	62	63	0	
21-Apr-13	sub2322	2322	2	0	81	3	2	1	1	5	1	1	1	0.68358	1	0.9	0	21	60	61	0	
21-Apr-13	sub2322	2322	2	0	82	3	2	6	4	3	0	1	1	0.74224	0	0.9	0	26	87	68	0	
21-Apr-13	sub2322	2322	2	0	83	3	2	3	5	6	1	2	0	0.58106	0	0.9	0	23	82	83	0	
21-Apr-13	sub2322	2322	2	0	84	3	2	4	3	3	1	2	1	0.5957	1	0.9	0	24	62	63	0	
21-Apr-13	sub2322	2322	2	0	85	3	2	1	1	5	1	1	1	0.7494	1	0.9	0	21	60	61	0	
21-Apr-13	sub2322	2322	2	0	86	3	2	1	1	5	1	2	0	0.67589	0	0.9	0	21	80	81	0	
21-Apr-13	sub2322	2322	2	0	87	3	2	4	3	3	1	2	1	0.56977	1	0.8	0	24	62	63	0	
21-Apr-13	sub2322	2322	2	0	88	3	2	3	5	6	1	2	0	0.72022	0	0.8	0	23	82	83	0	
21-Apr-13	sub2322	2322	2	0	89	3	2	1	1	5	1	1	1	0.55695	1	0.8	0	21	60	61	0	
21-Apr-13	sub2322	2322	2	0	90	3	2	6	4	3	1	1	0	0.58718	0	0.8	0	26	85	86	0	
21-Apr-13	sub2322	2322	2	0	91	3	2	6	4	3	0	1	1	0.64693	0	0.8	0	26	87	68	0	
21-Apr-13	sub2322	2322	2	0	92	3	2	3	5	6	1	1	1	0.68344	1	0.8	0	23	62	63	0	
21-Apr-13	sub2322	2322	2	0	93	3	2	4	3	3	1	2	1	0.36471	1	0.8	0	24	62	63	1	
21-Apr-13	sub2322	2322	2	0	94	3	2	6	4	3	0	2	0	0.19578	1	0.8	0	26	67	88	1	
21-Apr-13	sub2322	2322	2	0	95	3	2	4	3	3	1	2	1	0.48111	1	0.8	0	24	62	63	1	
21-Apr-13	sub2322	2322	2	0	96	3	2	4	3	3	1	2	1	0.44419	1	0.8	0	24	62	63	1	
21-Apr-13	sub2322	2322	2	0	97	3	2	3	5	6	1	1	1	0.65285	1	0.8	0	23	62	63	0	
21-Apr-13	sub2322	2322	2	0	98	3	2	3	5	6	1	1	1	0.55089	1	0.8	0	23	62	63	0	
21-Apr-13	sub2322	2322	2	0	99	3	2	4	3	3	1	2	1	0.52515	1	0.8	0	24	62	63	0	
21-Apr-13	sub2322	2322	2	0	100	3	2	5	6	6	0	2	1	0.20327	0	0.8	0	25	87	68	1	
21-Apr-13	sub2322	2322	2	0	101	3	2	4	3	3	0	2	0	0.51225	1	0.7	0	24	64	89	0	
21-Apr-13	sub2322	2322	2	0	102	3	2	5	6	6	0	2	1	0.61433	0	0.7	0	25	87	68	0	
21-Apr-13	sub2322	2322	2	0	103	3	2	2	2	5	1	2	1	0.52846	1	0.7	0	22	60	61	0	
21-Apr-13	sub2322	2322	2	0	104	3	2	3	5	6	1	2	0	0.54916	0	0.7	0	23	82	83	0	
21-Apr-13	sub2322	2322	2	0	105	3	2	2	2	5	1	1	0	0.69003	0	0.7	0	22	80	81	0	
21-Apr-13	sub2322	2322	2	0	106	3	2	3	5	6	0	1	0	0.80676	1	0.7	1	23	64	51	0	
21-Apr-13	sub2322	2322	2	0	107	3	2	4	3	3	1	2	1	0.59204	1	0.8	0	24	62	63	0	
21-Apr-13	sub2322	2322	2	0	108	3	2	6	4	3	1	1	0	0.68774	0	0.8	0	26	85	86	0	
21-Apr-13	sub2322	2322	2	0	109	3	2	2	2	5	1	2	1	0.52517	1	0.8	0	22	60	61	0	
21-Apr-13	sub2322	2322	2	0	110	3	2	1	1	5	1	1	1	0.69795	1	0.8	0	21	60	61	0	
21-Apr-13	sub2322	2322	2	0	111	3	2	3	5	6	1	2	0	0.56829	0	0.8	0	23	82	83	0	
21-Apr-13	sub2322	2322	2	0	112	3	2	6	4	3	1	2	1	0.31837	1	0.8	0	26	65	66	1	
21-Apr-13	sub2322	2322	2	0	113	3	2	3	5	6	1	2	0	0.70125	0	0.8	0	23	82	83	0	
21-Apr-13	sub2322	2322	2	0	114	3	2	1	1	5	1	1	1	0.66962	1	0.8	0	21	60	61	0	
21-Apr-13	sub2322	2322	2	0	115	3	2	2	2	5	1	2	1	0.72467	1	0.8	0	22	60	61	0	
21-Apr-13	sub2322	2322	2	0	116	3	2	5	6	6	0	1	0	0.78373	1	0.8	0	25	67	88	0	
21-Apr-13	sub2322	2322	2	0	117	3	2	1	1	5	1	2	0	0.42547	0	0.8	0	21	80	81	1	
21-Apr-13	sub2322	2322	2	0	118	3	2	1	1	5	1	1	1	0.41147	1	0.7	0	21	60	61	1	
21-Apr-13	sub2322	2322	2	0	119	3	2	6	4	3	0	1	1	0.88728	0	0.7	1	26	87	51	0	
21-Apr-13	sub2322	2322	2	0	120	3	2	5	6	6	0	1	0	0.76685	1	0.8	0	25	67	88	0	
21-Apr-13	sub2322	2322	2	0	121	3	2	2	2	5	1	2	1	0.55419	1	0.8	0	22	60	61	0	
21-Apr-13	sub2322	2322	2	0	122	3	2	5	6	6	0	2	1	0.46448	0	0.8	0	25	87	68	1	
21-Apr-13	sub2322	2322	2	0	123	3	2	4	3	3	1	2	1	0.44438	1	0.8	0	24	62	63	1	
21-Apr-13	sub2322	2322	2	0	124	3	2	2	2	5	1	2	1	0.56252	1	0.8	0	22	60	61	0	
21-Apr-13	sub2322	2322	2	0	125	3	2	5	6	6	0	2	1	0.57528	0	0.8	0	25	87	68	0	
21-Apr-13	sub2322	2322	2	0	126	3	2	4	3	3	0	2	0	0.34844	1	0.8	0	24	64	89	1	
21-Apr-13	sub2322	2322	2	0	127	3	2	6	4	3	1	1	0	0.66065	0	0.8	0	26	85	86	0	
21-Apr-13	sub2322	2322	2	0	128	3	2	6	4	3	1	1	0	0.28583	0	0.8	0	26	85	86	1	
21-Apr-13	sub2322	2322	2	0	129	3	2	2	2	5	1	2	1	0.61727	1	0.8	0	22	60	61	0	
21-Apr-13	sub2322	2322	2	0	130	3	2	1	1	5	1	2	0	0.58571	0	0.8	0	21	80	81	0	
21-Apr-13	sub2322	2322	2	0	131	3	2	6	4	3	1	1	0	0.79808	0	0.8	0	26	85	86	0	
21-Apr-13	sub2322	2322	2	0	132	3	2	4	3	3	1	2	1	0.43648	1	0.8	0	24	62	63	1	
21-Apr-13	sub2322	2322	2	0	133	3	2	1	1	5	1	1	1	0.58534	1	0.8	0	21	60	61	0	
21-Apr-13	sub2322	2322	2	0	134	3	2	5	6	6	0	1	0	0.68177	1	0.8	0	25	67	88	0	
21-Apr-13	sub2322	2322	2	0	135	3	2	1	1	5	1	2	0	0.51109	0	0.7	0	21	80	81	0	
21-Apr-13	sub2322	2322	2	0	136	3	2	1	1	5	1	1	1	0.46327	1	0.7	0	21	60	61	1	
21-Apr-13	sub2322	2322	2	0	137	3	2	5	6	6	0	2	1	0.53617	0	0.7	0	25	87	68	0	
21-Apr-13	sub2322	2322	2	0	138	3	2	2	2	5	1	2	1	0.3782	1	0.7	0	22	60	61	1	
21-Apr-13	sub2322	2322	2	0	139	3	2	1	1	5	1	2	0	0.48922	0	0.7	0	21	80	81	1	
21-Apr-13	sub2322	2322	2	0	140	3	2	5	6	6	0	2	1	0.75804	0	0.7	1	25	87	51	0	
21-Apr-13	sub2322	2322	2	0	141	3	2	3	5	6	0	2	1	0.61616	0	0.8	0	23	84	69	0	
21-Apr-13	sub2322	2322	2	0	142	3	2	5	6	6	0	2	1	0.37876	0	0.8	0	25	87	68	1	
21-Apr-13	sub2322	2322	2	0	143	3	2	6	4	3	0	2	0	0.48617	1	0.8	0	26	67	88	1	
21-Apr-13	sub2322	2322	2	0	144	3	2	2	2	5	1	2	1	0.4956	1	0.8	0	22	60	61	1	
21-Apr-13	sub2322	2322	2	0	145	3	2	4	3	3	0	2	0	0.55364	1	0.8	0	24	64	89	0	
21-Apr-13	sub2322	2322	2	0	146	3	2	3	5	6	1	2	0	0.61232	0	0.8	0	23	82	83	0	
21-Apr-13	sub2322	2322	2	0	147	3	2	6	4	3	0	1	1	0.68115	0	0.8	0	26	87	68	0	
21-Apr-13	sub2322	2322	2	0	148	3	2	5	6	6	0	2	1	0.90998	0	0.8	1	25	87	51	0	
21-Apr-13	sub2322	2322	2	0	149	3	2	3	5	6	1	1	1	0.69317	1	0.8	0	23	62	63	0	
21-Apr-13	sub2322	2322	2	0	150	3	2	2	2	5	1	2	1	0.67236	1	0.8	0	22	60	61	0	
21-Apr-13	sub2322	2322	2	0	1	4	1	6	6	1	0	2	0	0.38359	1	0.6	0	16	37	48	1	
21-Apr-13	sub2322	2322	2	0	2	4	1	3	2	6	0	2	1	0.54559	0	0.3	1	13	44	51	0	
21-Apr-13	sub2322	2322	2	0	3	4	1	4	1	3	0	2	0	0.47192	1	0.9	0	14	34	49	1	
21-Apr-13	sub2322	2322	2	0	4	4	1	6	6	1	1	2	1	0.48265	1	0.9	0	16	35	36	1	
21-Apr-13	sub2322	2322	2	0	5	4	1	1	3	2	1	2	0	0.53854	0	0.9	0	11	40	41	0	
21-Apr-13	sub2322	2322	2	0	6	4	1	5	4	2	0	2	1	0.5912	0	0.9	0	15	47	38	0	
21-Apr-13	sub2322	2322	2	0	7	4	1	4	1	3	1	2	1	0.52032	1	0.9	0	14	32	33	0	
21-Apr-13	sub2322	2322	2	0	8	4	1	6	6	1	0	2	0	0.61561	1	0.9	0	16	37	48	0	
21-Apr-13	sub2322	2322	2	0	9	4	1	5	4	2	1	2	0	0.62598	0	0.9	0	15	45	46	0	
21-Apr-13	sub2322	2322	2	0	10	4	1	3	2	6	1	2	0	0.63981	0	0.9	0	13	42	43	0	
21-Apr-13	sub2322	2322	2	0	11	4	1	6	6	1	0	1	1	0.5553	0	0.9	0	16	47	38	0	
21-Apr-13	sub2322	2322	2	0	12	4	1	5	4	2	1	2	0	0.55547	0	0.9	0	15	45	46	0	
21-Apr-13	sub2322	2322	2	0	13	4	1	2	5	1	1	1	0	0.63584	0	0.9	0	12	40	41	0	
21-Apr-13	sub2322	2322	2	0	14	4	1	5	4	2	1	1	1	0.4627	1	0.9	0	15	35	36	1	
21-Apr-13	sub2322	2322	2	0	15	4	1	6	6	1	1	1	0	0.68401	0	0.9	0	16	45	46	0	
21-Apr-13	sub2322	2322	2	0	16	4	1	1	3	2	1	2	0	0.62285	0	0.8	0	11	40	41	0	
21-Apr-13	sub2322	2322	2	0	17	4	1	2	5	1	1	1	0	0.61596	0	0.8	0	12	40	41	0	
21-Apr-13	sub2322	2322	2	0	18	4	1	5	4	2	0	1	0	0.50073	1	0.7	0	15	37	48	0	
21-Apr-13	sub2322	2322	2	0	19	4	1	1	3	2	1	1	1	0.45601	1	0.7	0	11	30	31	1	
21-Apr-13	sub2322	2322	2	0	20	4	1	1	3	2	1	1	1	0.60856	1	0.7	0	11	30	31	0	
21-Apr-13	sub2322	2322	2	0	21	4	1	3	2	6	1	2	0	0.77222	0	0.6	1	13	42	51	0	
21-Apr-13	sub2322	2322	2	0	22	4	1	5	4	2	1	1	1	0.67307	1	0.9	0	15	35	36	0	
21-Apr-13	sub2322	2322	2	0	23	4	1	2	5	1	1	1	0	0.67274	0	0.9	0	12	40	41	0	
21-Apr-13	sub2322	2322	2	0	24	4	1	3	2	6	1	1	1	0.51296	1	0.9	0	13	32	33	0	
21-Apr-13	sub2322	2322	2	0	25	4	1	6	6	1	0	1	1	0.47905	0	0.9	0	16	47	38	1	
21-Apr-13	sub2322	2322	2	0	26	4	1	2	5	1	1	1	0	0.57488	0	0.9	0	12	40	41	0	
21-Apr-13	sub2322	2322	2	0	27	4	1	2	5	1	1	2	1	0.49978	1	0.9	0	12	30	31	1	
21-Apr-13	sub2322	2322	2	0	28	4	1	1	3	2	1	2	0	0.84697	0	0.9	0	11	40	41	0	
21-Apr-13	sub2322	2322	2	0	29	4	1	4	1	3	0	2	0	0.57311	1	0.9	0	14	34	49	0	
21-Apr-13	sub2322	2322	2	0	30	4	1	6	6	1	0	1	1	0.45792	0	0.8	0	16	47	38	1	
21-Apr-13	sub2322	2322	2	0	31	4	1	4	1	3	1	1	0	0.55405	0	0.8	0	14	42	43	0	
21-Apr-13	sub2322	2322	2	0	32	4	1	4	1	3	1	2	1	0.71108	1	0.8	0	14	32	33	0	
21-Apr-13	sub2322	2322	2	0	33	4	1	2	5	1	1	2	1	0.78506	1	0.8	0	12	30	31	0	
21-Apr-13	sub2322	2322	2	0	34	4	1	2	5	1	1	2	1	1.25451	1	0.8	1	12	30	51	0	
21-Apr-13	sub2322	2322	2	0	35	4	1	5	4	2	1	1	1	0.72118	1	0.9	0	15	35	36	0	
21-Apr-13	sub2322	2322	2	0	36	4	1	3	2	6	1	2	0	0.60798	0	0.9	0	13	42	43	0	
21-Apr-13	sub2322	2322	2	0	37	4	1	3	2	6	1	1	1	0.49785	1	0.9	0	13	32	33	1	
21-Apr-13	sub2322	2322	2	0	38	4	1	1	3	2	1	2	0	0.65498	0	0.9	0	11	40	41	0	
21-Apr-13	sub2322	2322	2	0	39	4	1	3	2	6	0	1	0	0.68074	1	0.9	0	13	34	49	0	
21-Apr-13	sub2322	2322	2	0	40	4	1	4	1	3	1	1	0	0.43863	0	0.9	0	14	42	43	1	
21-Apr-13	sub2322	2322	2	0	41	4	1	4	1	3	1	1	0	0.57364	0	0.9	0	14	42	43	0	
21-Apr-13	sub2322	2322	2	0	42	4	1	2	5	1	1	2	1	0.59622	1	0.9	0	12	30	31	0	
21-Apr-13	sub2322	2322	2	0	43	4	1	6	6	1	1	1	0	0.46881	0	0.9	0	16	45	46	1	
21-Apr-13	sub2322	2322	2	0	44	4	1	4	1	3	1	1	0	0.48746	0	0.8	0	14	42	43	1	
21-Apr-13	sub2322	2322	2	0	45	4	1	6	6	1	1	1	0	0.50869	0	0.8	0	16	45	46	0	
21-Apr-13	sub2322	2322	2	0	46	4	1	6	6	1	0	2	0	0.62919	1	0.8	0	16	37	48	0	
21-Apr-13	sub2322	2322	2	0	47	4	1	4	1	3	1	2	1	0.58158	1	0.8	0	14	32	33	0	
21-Apr-13	sub2322	2322	2	0	48	4	1	2	5	1	1	2	1	0.54036	1	0.8	0	12	30	31	0	
21-Apr-13	sub2322	2322	2	0	49	4	1	1	3	2	1	2	0	0.60178	0	0.8	0	11	40	41	0	
21-Apr-13	sub2322	2322	2	0	50	4	1	3	2	6	1	1	1	0.66769	1	0.8	0	13	32	33	0	
21-Apr-13	sub2322	2322	2	0	51	4	1	4	1	3	1	2	1	0.79698	1	0.7	1	14	32	51	0	
21-Apr-13	sub2322	2322	2	0	52	4	1	6	6	1	1	1	0	0.62294	0	0.9	0	16	45	46	0	
21-Apr-13	sub2322	2322	2	0	53	4	1	5	4	2	1	1	1	0.61159	1	0.9	0	15	35	36	0	
21-Apr-13	sub2322	2322	2	0	54	4	1	2	5	1	1	2	1	0.62374	1	0.9	0	12	30	31	0	
21-Apr-13	sub2322	2322	2	0	55	4	1	5	4	2	0	2	1	0.7658	0	0.9	0	15	47	38	0	
21-Apr-13	sub2322	2322	2	0	56	4	1	3	2	6	1	1	1	0.83448	1	0.9	0	13	32	33	0	
21-Apr-13	sub2322	2322	2	0	57	4	1	2	5	1	1	1	0	0.57345	0	0.9	0	12	40	41	0	
21-Apr-13	sub2322	2322	2	0	58	4	1	1	3	2	1	2	0	0.56397	0	0.9	0	11	40	41	0	
21-Apr-13	sub2322	2322	2	0	59	4	1	2	5	1	1	2	1	0.67982	1	0.8	0	12	30	31	0	
21-Apr-13	sub2322	2322	2	0	60	4	1	1	3	2	1	2	0	0.48172	0	0.8	0	11	40	41	1	
21-Apr-13	sub2322	2322	2	0	61	4	1	3	2	6	0	1	0	0.55397	1	0.8	0	13	34	49	0	
21-Apr-13	sub2322	2322	2	0	62	4	1	3	2	6	1	1	1	0.58994	1	0.8	0	13	32	33	0	
21-Apr-13	sub2322	2322	2	0	63	4	1	3	2	6	1	1	1	0.46759	1	0.8	0	13	32	33	1	
21-Apr-13	sub2322	2322	2	0	64	4	1	5	4	2	0	1	0	0.47482	1	0.8	0	15	37	48	1	
21-Apr-13	sub2322	2322	2	0	65	4	1	1	3	2	1	2	0	0.60911	0	0.8	0	11	40	41	0	
21-Apr-13	sub2322	2322	2	0	66	4	1	4	1	3	1	2	1	0.69324	1	0.8	0	14	32	33	0	
21-Apr-13	sub2322	2322	2	0	67	4	1	3	2	6	1	2	0	0.5946	0	0.8	0	13	42	43	0	
21-Apr-13	sub2322	2322	2	0	68	4	1	4	1	3	1	2	1	0.42261	1	0.7	0	14	32	33	1	
21-Apr-13	sub2322	2322	2	0	69	4	1	5	4	2	0	1	0	0.71469	1	0.7	1	15	37	51	0	
21-Apr-13	sub2322	2322	2	0	70	4	1	1	3	2	1	2	0	0.58987	0	0.9	0	11	40	41	0	
21-Apr-13	sub2322	2322	2	0	71	4	1	6	6	1	0	1	1	0.59607	0	0.9	0	16	47	38	0	
21-Apr-13	sub2322	2322	2	0	72	4	1	1	3	2	1	1	1	1.14319	1	0.9	1	11	30	51	0	
21-Apr-13	sub2322	2322	2	0	73	4	1	2	5	1	1	2	1	0.81658	1	0.9	0	12	30	31	0	
21-Apr-13	sub2322	2322	2	0	74	4	1	5	4	2	1	1	1	0.66707	1	0.9	0	15	35	36	0	
21-Apr-13	sub2322	2322	2	0	75	4	1	6	6	1	1	1	0	0.65973	0	0.9	0	16	45	46	0	
21-Apr-13	sub2322	2322	2	0	76	4	2	1	3	2	1	2	0	0.70972	0	0.9	0	21	80	81	0	
21-Apr-13	sub2322	2322	2	0	77	4	2	2	5	1	1	2	1	0.65056	1	0.9	0	22	60	61	0	
21-Apr-13	sub2322	2322	2	0	78	4	2	1	3	2	1	2	0	0.48914	0	0.9	0	21	80	81	1	
21-Apr-13	sub2322	2322	2	0	79	4	2	3	2	6	1	2	0	1.78863	0	0.9	1	23	82	51	0	
21-Apr-13	sub2322	2322	2	0	80	4	2	2	5	1	1	2	1	0.57606	1	0.9	0	22	60	61	0	
21-Apr-13	sub2322	2322	2	0	81	4	2	2	5	1	1	2	1	0.58526	1	0.9	0	22	60	61	0	
21-Apr-13	sub2322	2322	2	0	82	4	2	5	4	2	0	1	0	0.88418	1	0.9	0	25	67	88	0	
21-Apr-13	sub2322	2322	2	0	83	4	2	1	3	2	1	1	1	0.66344	1	0.9	0	21	60	61	0	
21-Apr-13	sub2322	2322	2	0	84	4	2	3	2	6	1	1	1	0.58028	1	0.9	0	23	62	63	0	
21-Apr-13	sub2322	2322	2	0	85	4	2	1	3	2	1	1	1	1.64486	1	0.9	1	21	60	51	0	
21-Apr-13	sub2322	2322	2	0	86	4	2	2	5	1	1	2	1	0.64939	1	0.9	0	22	60	61	0	
21-Apr-13	sub2322	2322	2	0	87	4	2	2	5	1	1	2	1	0.53613	1	0.9	0	22	60	61	0	
21-Apr-13	sub2322	2322	2	0	88	4	2	6	6	1	1	1	0	0.58715	0	0.9	0	26	85	86	0	
21-Apr-13	sub2322	2322	2	0	89	4	2	2	5	1	1	2	1	0.62044	1	0.9	0	22	60	61	0	
21-Apr-13	sub2322	2322	2	0	90	4	2	3	2	6	1	2	0	0.5248	0	0.9	0	23	82	83	0	
21-Apr-13	sub2322	2322	2	0	91	4	2	3	2	6	1	1	1	0.79975	1	0.9	0	23	62	63	0	
21-Apr-13	sub2322	2322	2	0	92	4	2	5	4	2	0	1	0	0.12575	1	0.9	0	25	67	88	1	
21-Apr-13	sub2322	2322	2	0	93	4	2	1	3	2	1	2	0	0.52505	0	0.9	0	21	80	81	0	
21-Apr-13	sub2322	2322	2	0	94	4	2	3	2	6	1	1	1	0.67841	1	0.9	0	23	62	63	0	
21-Apr-13	sub2322	2322	2	0	95	4	2	6	6	1	1	1	0	0.51482	0	0.9	0	26	85	86	0	
21-Apr-13	sub2322	2322	2	0	96	4	2	5	4	2	0	1	0	0.72895	1	0.9	0	25	67	88	0	
21-Apr-13	sub2322	2322	2	0	97	4	2	4	1	3	1	2	1	0.47646	1	0.9	0	24	62	63	1	
21-Apr-13	sub2322	2322	2	0	98	4	2	1	3	2	1	2	0	0.1047	0	0.9	0	21	80	81	1	
21-Apr-13	sub2322	2322	2	0	99	4	2	5	4	2	0	2	1	0.40138	0	0.9	0	25	87	68	1	
21-Apr-13	sub2322	2322	2	0	100	4	2	4	1	3	1	1	0	0.48215	0	0.9	0	24	82	83	1	
21-Apr-13	sub2322	2322	2	0	101	4	2	4	1	3	0	1	1	0.41991	0	0.9	0	24	84	69	1	
21-Apr-13	sub2322	2322	2	0	102	4	2	4	1	3	1	2	1	0.46534	1	0.9	0	24	62	63	1	
21-Apr-13	sub2322	2322	2	0	103	4	2	2	5	1	1	2	1	0.7116	1	0.9	0	22	60	61	0	
21-Apr-13	sub2322	2322	2	0	104	4	2	6	6	1	0	1	1	0.67478	0	0.9	0	26	87	68	0	
21-Apr-13	sub2322	2322	2	0	105	4	2	3	2	6	1	1	1	0.66366	1	0.9	0	23	62	63	0	
21-Apr-13	sub2322	2322	2	0	106	4	2	5	4	2	0	1	0	0.82108	1	0.9	0	25	67	88	0	
21-Apr-13	sub2322	2322	2	0	107	4	2	2	5	1	1	1	0	0.5758	0	0.9	0	22	80	81	0	
21-Apr-13	sub2322	2322	2	0	108	4	2	6	6	1	1	2	1	0.18325	1	0.9	0	26	65	66	1	
21-Apr-13	sub2322	2322	2	0	109	4	2	6	6	1	1	1	0	0.34432	0	0.9	0	26	85	86	1	
21-Apr-13	sub2322	2322	2	0	110	4	2	4	1	3	1	1	0	0.18389	0	0.9	0	24	82	83	1	
21-Apr-13	sub2322	2322	2	0	111	4	2	1	3	2	1	2	0	1.38293	0	0.9	1	21	80	51	0	
21-Apr-13	sub2322	2322	2	0	112	4	2	3	2	6	1	2	0	0.4586	0	0.9	0	23	82	83	1	
21-Apr-13	sub2322	2322	2	0	113	4	2	6	6	1	1	1	0	0.54551	0	0.9	0	26	85	86	0	
21-Apr-13	sub2322	2322	2	0	114	4	2	1	3	2	1	1	1	0.49132	1	0.9	0	21	60	61	1	
21-Apr-13	sub2322	2322	2	0	115	4	2	4	1	3	1	2	1	0.46388	1	0.9	0	24	62	63	1	
21-Apr-13	sub2322	2322	2	0	116	4	2	5	4	2	0	1	0	0.51834	1	0.9	0	25	67	88	0	
21-Apr-13	sub2322	2322	2	0	117	4	2	5	4	2	0	1	0	0.72694	1	0.9	0	25	67	88	0	
21-Apr-13	sub2322	2322	2	0	118	4	2	4	1	3	1	2	1	0.62022	1	0.9	0	24	62	63	0	
21-Apr-13	sub2322	2322	2	0	119	4	2	3	2	6	1	1	1	0.99916	1	0.9	1	23	62	51	0	
21-Apr-13	sub2322	2322	2	0	120	4	2	5	4	2	0	1	0	0.71641	1	0.9	0	25	67	88	0	
21-Apr-13	sub2322	2322	2	0	121	4	2	3	2	6	0	1	0	0.51903	1	0.9	0	23	64	89	0	
21-Apr-13	sub2322	2322	2	0	122	4	2	3	2	6	0	1	0	2.24022	1	0.9	1	23	64	51	0	
21-Apr-13	sub2322	2322	2	0	123	4	2	1	3	2	1	2	0	0.54483	0	0.9	0	21	80	81	0	
21-Apr-13	sub2322	2322	2	0	124	4	2	5	4	2	0	1	0	0.50364	1	0.9	0	25	67	88	0	
21-Apr-13	sub2322	2322	2	0	125	4	2	2	5	1	1	2	1	0.56146	1	0.9	0	22	60	61	0	
21-Apr-13	sub2322	2322	2	0	126	4	2	2	5	1	1	2	1	0.53705	1	0.9	0	22	60	61	0	
21-Apr-13	sub2322	2322	2	0	127	4	2	6	6	1	0	1	1	0.61426	0	0.9	0	26	87	68	0	
21-Apr-13	sub2322	2322	2	0	128	4	2	6	6	1	0	1	1	0.56761	0	0.9	0	26	87	68	0	
21-Apr-13	sub2322	2322	2	0	129	4	2	6	6	1	0	1	1	1.20948	0	0.9	1	26	87	51	0	
21-Apr-13	sub2322	2322	2	0	130	4	2	2	5	1	1	2	1	0.6433	1	0.9	0	22	60	61	0	
21-Apr-13	sub2322	2322	2	0	131	4	2	1	3	2	1	2	0	1.14709	0	0.9	1	21	80	51	0	
21-Apr-13	sub2322	2322	2	0	132	4	2	1	3	2	1	2	0	0.58808	0	0.9	0	21	80	81	0	
21-Apr-13	sub2322	2322	2	0	133	4	2	5	4	2	0	1	0	0.55142	1	0.9	0	25	67	88	0	
21-Apr-13	sub2322	2322	2	0	134	4	2	2	5	1	1	2	1	5.07195	1	0.9	1	22	60	51	0	
21-Apr-13	sub2322	2322	2	0	135	4	2	1	3	2	1	1	1	0.68489	1	0.9	0	21	60	61	0	
21-Apr-13	sub2322	2322	2	0	136	4	2	6	6	1	0	1	1	0.60211	0	0.9	0	26	87	68	0	
21-Apr-13	sub2322	2322	2	0	137	4	2	4	1	3	1	2	1	0.43781	1	0.9	0	24	62	63	1	
21-Apr-13	sub2322	2322	2	0	138	4	2	5	4	2	0	2	1	0.48805	0	0.9	0	25	87	68	1	
21-Apr-13	sub2322	2322	2	0	139	4	2	4	1	3	0	2	0	0.38606	1	0.9	0	24	64	89	1	
21-Apr-13	sub2322	2322	2	0	140	4	2	6	6	1	1	1	0	0.49992	0	0.9	0	26	85	86	1	
21-Apr-13	sub2322	2322	2	0	141	4	2	3	2	6	1	1	1	0.47145	1	0.9	0	23	62	63	1	
21-Apr-13	sub2322	2322	2	0	142	4	2	4	1	3	1	1	0	0.44462	0	0.9	0	24	82	83	1	
21-Apr-13	sub2322	2322	2	0	143	4	2	3	2	6	1	1	1	0.60198	1	0.9	0	23	62	63	0	
21-Apr-13	sub2322	2322	2	0	144	4	2	6	6	1	0	1	1	0.44443	0	0.9	0	26	87	68	1	
21-Apr-13	sub2322	2322	2	0	145	4	2	1	3	2	1	1	1	0.58404	1	0.9	0	21	60	61	0	
21-Apr-13	sub2322	2322	2	0	146	4	2	5	4	2	0	1	0	0.48959	1	0.9	0	25	67	88	1	
21-Apr-13	sub2322	2322	2	0	147	4	2	4	1	3	0	2	0	0.65255	1	0.9	0	24	64	89	0	
21-Apr-13	sub2322	2322	2	0	148	4	2	4	1	3	1	2	1	0.54436	1	0.9	0	24	62	63	0	
21-Apr-13	sub2322	2322	2	0	149	4	2	5	4	2	0	1	0	0.57958	1	0.9	0	25	67	88	0	
21-Apr-13	sub2322	2322	2	0	150	4	2	4	1	3	1	1	0	0.64691	0	0.9	0	24	82	83	0	
21-Apr-13	sub2322	2322	2	0	1	5	1	4	1	4	1	1	0	0.67511	0	0.6	1	14	42	51	0	
21-Apr-13	sub2322	2322	2	0	2	5	1	6	4	6	1	2	1	56.85154	1	0.9	1	16	35	51	0	
21-Apr-13	sub2322	2322	2	0	3	5	1	5	5	1	0	2	1	0.56637	0	0.9	0	15	47	38	0	
21-Apr-13	sub2322	2322	2	0	4	5	1	4	1	4	0	2	0	0.40974	1	0.9	0	14	34	49	1	
21-Apr-13	sub2322	2322	2	0	5	5	1	2	6	1	1	2	1	0.48502	1	0.9	0	12	30	31	1	
21-Apr-13	sub2322	2322	2	0	6	5	1	6	4	6	1	2	1	0.48347	1	0.9	0	16	35	36	1	
21-Apr-13	sub2322	2322	2	0	7	5	1	5	5	1	1	2	0	0.42176	0	0.9	0	15	45	46	1	
21-Apr-13	sub2322	2322	2	0	8	5	1	5	5	1	0	2	1	0.39609	0	0.9	0	15	47	38	1	
21-Apr-13	sub2322	2322	2	0	9	5	1	3	2	4	0	1	0	0.55505	1	0.9	0	13	34	49	0	
21-Apr-13	sub2322	2322	2	0	10	5	1	5	5	1	0	2	1	0.33148	0	0.9	0	15	47	38	1	
21-Apr-13	sub2322	2322	2	0	11	5	1	6	4	6	0	1	1	0.52643	0	0.9	0	16	47	38	0	
21-Apr-13	sub2322	2322	2	0	12	5	1	2	6	1	1	1	0	0.61357	0	0.9	0	12	40	41	0	
21-Apr-13	sub2322	2322	2	0	13	5	1	3	2	4	1	2	0	0.40346	0	0.9	0	13	42	43	1	
21-Apr-13	sub2322	2322	2	0	14	5	1	3	2	4	1	2	0	0.29032	0	0.9	0	13	42	43	1	
21-Apr-13	sub2322	2322	2	0	15	5	1	3	2	4	1	2	0	0.2931	0	0.9	0	13	42	43	1	
21-Apr-13	sub2322	2322	2	0	16	5	1	6	4	6	1	2	1	0.4365	1	0.9	0	16	35	36	1	
21-Apr-13	sub2322	2322	2	0	17	5	1	1	3	6	1	2	0	0.45881	0	0.9	0	11	40	41	1	
21-Apr-13	sub2322	2322	2	0	18	5	1	5	5	1	1	2	0	0.36699	0	0.9	0	15	45	46	1	
21-Apr-13	sub2322	2322	2	0	19	5	1	4	1	4	1	2	1	0.22621	1	0.9	0	14	32	33	1	
21-Apr-13	sub2322	2322	2	0	20	5	1	3	2	4	1	2	0	0.40333	0	0.9	0	13	42	43	1	
21-Apr-13	sub2322	2322	2	0	21	5	1	1	3	6	1	2	0	0.45431	0	0.9	0	11	40	41	1	
21-Apr-13	sub2322	2322	2	0	22	5	1	6	4	6	0	2	0	0.39298	1	0.9	0	16	37	48	1	
21-Apr-13	sub2322	2322	2	0	23	5	1	4	1	4	1	2	1	0.31034	1	0.9	0	14	32	33	1	
21-Apr-13	sub2322	2322	2	0	24	5	1	3	2	4	1	2	0	0.37303	0	0.9	0	13	42	43	1	
21-Apr-13	sub2322	2322	2	0	25	5	1	5	5	1	0	1	0	0.3787	1	0.9	0	15	37	48	1	
21-Apr-13	sub2322	2322	2	0	26	5	1	4	1	4	1	2	1	0.20222	1	0.9	0	14	32	33	1	
21-Apr-13	sub2322	2322	2	0	27	5	1	2	6	1	1	2	1	0.30033	1	0.9	0	12	30	31	1	
21-Apr-13	sub2322	2322	2	0	28	5	1	1	3	6	1	2	0	0.41926	0	0.9	0	11	40	41	1	
21-Apr-13	sub2322	2322	2	0	29	5	1	3	2	4	1	1	1	0.33597	1	0.9	0	13	32	33	1	
21-Apr-13	sub2322	2322	2	0	30	5	1	2	6	1	1	1	0	0.59547	0	0.8	0	12	40	41	0	
21-Apr-13	sub2322	2322	2	0	31	5	1	2	6	1	1	2	1	0.3133	1	0.8	0	12	30	31	1	
21-Apr-13	sub2322	2322	2	0	32	5	1	6	4	6	0	2	0	0.31652	1	0.8	0	16	37	48	1	
21-Apr-13	sub2322	2322	2	0	33	5	1	1	3	6	1	2	0	0.42454	0	0.8	0	11	40	41	1	
21-Apr-13	sub2322	2322	2	0	34	5	1	6	4	6	0	1	1	0.55133	0	0.8	0	16	47	38	0	
21-Apr-13	sub2322	2322	2	0	35	5	1	2	6	1	1	1	0	0.57823	0	0.7	0	12	40	41	0	
21-Apr-13	sub2322	2322	2	0	36	5	1	6	4	6	0	1	1	0.58161	0	0.7	0	16	47	38	0	
21-Apr-13	sub2322	2322	2	0	37	5	1	4	1	4	0	2	0	0.52018	1	0.7	0	14	34	49	0	
21-Apr-13	sub2322	2322	2	0	38	5	1	1	3	6	1	2	0	0.46461	0	0.7	0	11	40	41	1	
21-Apr-13	sub2322	2322	2	0	39	5	1	2	6	1	1	2	1	0.52676	1	0.7	0	12	30	31	0	
21-Apr-13	sub2322	2322	2	0	40	5	1	1	3	6	1	2	0	0.5259	0	0.7	0	11	40	41	0	
21-Apr-13	sub2322	2322	2	0	41	5	1	3	2	4	0	2	1	0.75917	0	0.6	1	13	44	51	0	
21-Apr-13	sub2322	2322	2	0	42	5	1	4	1	4	1	2	1	0.5866	1	0.9	0	14	32	33	0	
21-Apr-13	sub2322	2322	2	0	43	5	1	4	1	4	1	2	1	0.34564	1	0.9	0	14	32	33	1	
21-Apr-13	sub2322	2322	2	0	44	5	1	5	5	1	0	2	1	0.41261	0	0.8	0	15	47	38	1	
21-Apr-13	sub2322	2322	2	0	45	5	1	2	6	1	1	1	0	0.49727	0	0.8	0	12	40	41	1	
21-Apr-13	sub2322	2322	2	0	46	5	1	6	4	6	1	1	0	0.51339	0	0.8	0	16	45	46	0	
21-Apr-13	sub2322	2322	2	0	47	5	1	6	4	6	0	1	1	0.33236	0	0.8	0	16	47	38	1	
21-Apr-13	sub2322	2322	2	0	48	5	1	5	5	1	0	2	1	0.67893	0	0.8	0	15	47	38	0	
21-Apr-13	sub2322	2322	2	0	49	5	1	2	6	1	1	2	1	0.43539	1	0.8	0	12	30	31	1	
21-Apr-13	sub2322	2322	2	0	50	5	1	4	1	4	1	2	1	0.38797	1	0.8	0	14	32	33	1	
21-Apr-13	sub2322	2322	2	0	51	5	1	1	3	6	1	2	0	0.29651	0	0.7	0	11	40	41	1	
21-Apr-13	sub2322	2322	2	0	52	5	1	1	3	6	1	1	1	0.00021	1	0.7	0	11	30	31	1	
21-Apr-13	sub2322	2322	2	0	53	5	1	3	2	4	1	1	1	0.34089	1	0.7	0	13	32	33	1	
21-Apr-13	sub2322	2322	2	0	54	5	1	2	6	1	1	2	1	0.54295	1	0.7	0	12	30	31	0	
21-Apr-13	sub2322	2322	2	0	55	5	1	3	2	4	0	2	1	0.41463	0	0.7	0	13	44	39	1	
21-Apr-13	sub2322	2322	2	0	56	5	1	1	3	6	1	1	1	0.09088	1	0.7	0	11	30	31	1	
21-Apr-13	sub2322	2322	2	0	57	5	1	4	1	4	1	2	1	0.25552	1	0.7	0	14	32	33	1	
21-Apr-13	sub2322	2322	2	0	58	5	1	3	2	4	1	2	0	0.35479	0	0.7	0	13	42	43	1	
21-Apr-13	sub2322	2322	2	0	59	5	1	3	2	4	1	2	0	0.42964	0	0.7	0	13	42	43	1	
21-Apr-13	sub2322	2322	2	0	60	5	1	4	1	4	1	2	1	0.35571	1	0.7	0	14	32	33	1	
21-Apr-13	sub2322	2322	2	0	61	5	1	1	3	6	1	2	0	0.36453	0	0.6	0	11	40	41	1	
21-Apr-13	sub2322	2322	2	0	62	5	1	2	6	1	1	2	1	0.40026	1	0.6	0	12	30	31	1	
21-Apr-13	sub2322	2322	2	0	63	5	1	6	4	6	0	1	1	0.35334	0	0.6	0	16	47	38	1	
21-Apr-13	sub2322	2322	2	0	64	5	1	2	6	1	1	2	1	0.38354	1	0.6	0	12	30	31	1	
21-Apr-13	sub2322	2322	2	0	65	5	1	5	5	1	1	1	1	0.45773	1	0.6	0	15	35	36	1	
21-Apr-13	sub2322	2322	2	0	66	5	1	5	5	1	1	2	0	0.30263	0	0.6	0	15	45	46	1	
21-Apr-13	sub2322	2322	2	0	67	5	1	3	2	4	1	2	0	0.49228	0	0.6	0	13	42	43	1	
21-Apr-13	sub2322	2322	2	0	68	5	1	6	4	6	1	2	1	0.37496	1	0.6	0	16	35	36	1	
21-Apr-13	sub2322	2322	2	0	69	5	1	6	4	6	1	2	1	0.39702	1	0.6	0	16	35	36	1	
21-Apr-13	sub2322	2322	2	0	70	5	1	2	6	1	1	1	0	0.63439	0	0.6	1	12	40	51	0	
21-Apr-13	sub2322	2322	2	0	71	5	1	1	3	6	1	2	0	0.26275	0	0.7	0	11	40	41	1	
21-Apr-13	sub2322	2322	2	0	72	5	1	5	5	1	1	2	0	0.48562	0	0.7	0	15	45	46	1	
21-Apr-13	sub2322	2322	2	0	73	5	1	4	1	4	1	2	1	0.54415	1	0.7	0	14	32	33	0	
21-Apr-13	sub2322	2322	2	0	74	5	1	1	3	6	1	1	1	0.61412	1	0.7	0	11	30	31	0	
21-Apr-13	sub2322	2322	2	0	75	5	1	5	5	1	1	1	1	0.44821	1	0.7	0	15	35	36	1	
21-Apr-13	sub2322	2322	2	0	76	5	2	3	2	4	1	1	1	0.34351	1	0.7	0	23	62	63	1	
21-Apr-13	sub2322	2322	2	0	77	5	2	4	1	4	1	1	0	0.3604	0	0.7	0	24	82	83	1	
21-Apr-13	sub2322	2322	2	0	78	5	2	6	4	6	0	2	0	0.31564	1	0.7	0	26	67	88	1	
21-Apr-13	sub2322	2322	2	0	79	5	2	5	5	1	0	1	0	0.4007	1	0.7	0	25	67	88	1	
21-Apr-13	sub2322	2322	2	0	80	5	2	1	3	6	1	2	0	0.28804	0	0.7	0	21	80	81	1	
21-Apr-13	sub2322	2322	2	0	81	5	2	4	1	4	1	2	1	0.21397	1	0.6	0	24	62	63	1	
21-Apr-13	sub2322	2322	2	0	82	5	2	4	1	4	1	1	0	0.36032	0	0.6	0	24	82	83	1	
21-Apr-13	sub2322	2322	2	0	83	5	2	2	6	1	1	2	1	0.33401	1	0.6	0	22	60	61	1	
21-Apr-13	sub2322	2322	2	0	84	5	2	5	5	1	0	2	1	0.44465	0	0.6	0	25	87	68	1	
21-Apr-13	sub2322	2322	2	0	85	5	2	4	1	4	0	2	0	0.44146	1	0.6	0	24	64	89	1	
21-Apr-13	sub2322	2322	2	0	86	5	2	1	3	6	1	1	1	0.36497	1	0.6	0	21	60	61	1	
21-Apr-13	sub2322	2322	2	0	87	5	2	4	1	4	0	1	1	0.58074	0	0.6	0	24	84	69	0	
21-Apr-13	sub2322	2322	2	0	88	5	2	2	6	1	1	2	1	0.12348	1	0.6	0	22	60	61	1	
21-Apr-13	sub2322	2322	2	0	89	5	2	2	6	1	1	1	0	0.08684	0	0.6	0	22	80	81	1	
21-Apr-13	sub2322	2322	2	0	90	5	2	1	3	6	1	2	0	3.57714	0	0.6	1	21	80	51	0	
21-Apr-13	sub2322	2322	2	0	91	5	2	5	5	1	0	2	1	0.53282	0	0.7	0	25	87	68	0	
21-Apr-13	sub2322	2322	2	0	92	5	2	1	3	6	1	2	0	0.3869	0	0.7	0	21	80	81	1	
21-Apr-13	sub2322	2322	2	0	93	5	2	4	1	4	0	2	0	0.50768	1	0.7	0	24	64	89	0	
21-Apr-13	sub2322	2322	2	0	94	5	2	4	1	4	1	2	1	0.53281	1	0.7	0	24	62	63	0	
21-Apr-13	sub2322	2322	2	0	95	5	2	6	4	6	1	1	0	0.47853	0	0.7	0	26	85	86	1	
21-Apr-13	sub2322	2322	2	0	96	5	2	2	6	1	1	2	1	0.2457	1	0.7	0	22	60	61	1	
21-Apr-13	sub2322	2322	2	0	97	5	2	4	1	4	1	2	1	0.43971	1	0.7	0	24	62	63	1	
21-Apr-13	sub2322	2322	2	0	98	5	2	2	6	1	1	2	1	0.40889	1	0.7	0	22	60	61	1	
21-Apr-13	sub2322	2322	2	0	99	5	2	5	5	1	0	2	1	0.43195	0	0.7	0	25	87	68	1	
21-Apr-13	sub2322	2322	2	0	100	5	2	6	4	6	0	1	1	0.43403	0	0.7	0	26	87	68	1	
21-Apr-13	sub2322	2322	2	0	101	5	2	3	2	4	0	2	1	0.54637	0	0.6	0	23	84	69	0	
21-Apr-13	sub2322	2322	2	0	102	5	2	2	6	1	1	2	1	0.53469	1	0.6	0	22	60	61	0	
21-Apr-13	sub2322	2322	2	0	103	5	2	1	3	6	1	1	1	0.55761	1	0.6	0	21	60	61	0	
21-Apr-13	sub2322	2322	2	0	104	5	2	2	6	1	1	1	0	0.69185	0	0.6	1	22	80	51	0	
21-Apr-13	sub2322	2322	2	0	105	5	2	3	2	4	0	2	1	0.38995	0	0.7	0	23	84	69	1	
21-Apr-13	sub2322	2322	2	0	106	5	2	3	2	4	1	2	0	0.46704	0	0.7	0	23	82	83	1	
21-Apr-13	sub2322	2322	2	0	107	5	2	1	3	6	1	2	0	0.40187	0	0.7	0	21	80	81	1	
21-Apr-13	sub2322	2322	2	0	108	5	2	2	6	1	1	1	0	0.3696	0	0.7	0	22	80	81	1	
21-Apr-13	sub2322	2322	2	0	109	5	2	4	1	4	1	2	1	0.28315	1	0.7	0	24	62	63	1	
21-Apr-13	sub2322	2322	2	0	110	5	2	6	4	6	0	1	1	0.31932	0	0.7	0	26	87	68	1	
21-Apr-13	sub2322	2322	2	0	111	5	2	5	5	1	0	2	1	0.2866	0	0.7	0	25	87	68	1	
21-Apr-13	sub2322	2322	2	0	112	5	2	2	6	1	1	2	1	0.49582	1	0.7	0	22	60	61	1	
21-Apr-13	sub2322	2322	2	0	113	5	2	4	1	4	1	2	1	0.41336	1	0.7	0	24	62	63	1	
21-Apr-13	sub2322	2322	2	0	114	5	2	2	6	1	1	1	0	0.28669	0	0.7	0	22	80	81	1	
21-Apr-13	sub2322	2322	2	0	115	5	2	6	4	6	1	2	1	0.2874	1	0.7	0	26	65	66	1	
21-Apr-13	sub2322	2322	2	0	116	5	2	5	5	1	0	2	1	0.45788	0	0.7	0	25	87	68	1	
21-Apr-13	sub2322	2322	2	0	117	5	2	1	3	6	1	2	0	0.51393	0	0.7	0	21	80	81	0	
21-Apr-13	sub2322	2322	2	0	118	5	2	5	5	1	0	1	0	0.48673	1	0.7	0	25	67	88	1	
21-Apr-13	sub2322	2322	2	0	119	5	2	6	4	6	1	2	1	0.43759	1	0.7	0	26	65	66	1	
21-Apr-13	sub2322	2322	2	0	120	5	2	3	2	4	1	2	0	0.30083	0	0.7	0	23	82	83	1	
21-Apr-13	sub2322	2322	2	0	121	5	2	4	1	4	1	1	0	0.27462	0	0.6	0	24	82	83	1	
21-Apr-13	sub2322	2322	2	0	122	5	2	3	2	4	1	2	0	0.00015	0	0.6	0	23	82	83	1	
21-Apr-13	sub2322	2322	2	0	123	5	2	2	6	1	1	2	1	0.57865	1	0.6	0	22	60	61	0	
21-Apr-13	sub2322	2322	2	0	124	5	2	3	2	4	1	2	0	0.3394	0	0.6	0	23	82	83	1	
21-Apr-13	sub2322	2322	2	0	125	5	2	1	3	6	1	1	1	0.21311	1	0.6	0	21	60	61	1	
21-Apr-13	sub2322	2322	2	0	126	5	2	3	2	4	1	1	1	0.22774	1	0.6	0	23	62	63	1	
21-Apr-13	sub2322	2322	2	0	127	5	2	6	4	6	1	2	1	0.29939	1	0.6	0	26	65	66	1	
21-Apr-13	sub2322	2322	2	0	128	5	2	5	5	1	0	2	1	0.38582	0	0.6	0	25	87	68	1	
21-Apr-13	sub2322	2322	2	0	129	5	2	5	5	1	0	2	1	0.43992	0	0.6	0	25	87	68	1	
21-Apr-13	sub2322	2322	2	0	130	5	2	5	5	1	0	2	1	0.40198	0	0.6	0	25	87	68	1	
21-Apr-13	sub2322	2322	2	0	131	5	2	5	5	1	0	2	1	0.37462	0	0.6	0	25	87	68	1	
21-Apr-13	sub2322	2322	2	0	132	5	2	6	4	6	1	2	1	0.54675	1	0.6	0	26	65	66	0	
21-Apr-13	sub2322	2322	2	0	133	5	2	3	2	4	1	2	0	0.45132	0	0.6	0	23	82	83	1	
21-Apr-13	sub2322	2322	2	0	134	5	2	1	3	6	1	1	1	0.32487	1	0.6	0	21	60	61	1	
21-Apr-13	sub2322	2322	2	0	135	5	2	3	2	4	1	1	1	0.39447	1	0.6	0	23	62	63	1	
21-Apr-13	sub2322	2322	2	0	136	5	2	3	2	4	1	1	1	0.43198	1	0.6	0	23	62	63	1	
21-Apr-13	sub2322	2322	2	0	137	5	2	1	3	6	1	1	1	0.43035	1	0.6	0	21	60	61	1	
21-Apr-13	sub2322	2322	2	0	138	5	2	4	1	4	1	2	1	0.32262	1	0.6	0	24	62	63	1	
21-Apr-13	sub2322	2322	2	0	139	5	2	1	3	6	1	2	0	0.29267	0	0.6	0	21	80	81	1	
21-Apr-13	sub2322	2322	2	0	140	5	2	6	4	6	0	1	1	0.08011	0	0.6	0	26	87	68	1	
21-Apr-13	sub2322	2322	2	0	141	5	2	2	6	1	1	1	0	0.39356	0	0.6	0	22	80	81	1	
21-Apr-13	sub2322	2322	2	0	142	5	2	1	3	6	1	2	0	0.21128	0	0.6	0	21	80	81	1	
21-Apr-13	sub2322	2322	2	0	143	5	2	3	2	4	1	2	0	0.00021	0	0.6	0	23	82	83	1	
21-Apr-13	sub2322	2322	2	0	144	5	2	4	1	4	1	1	0	0.00009	0	0.6	0	24	82	83	1	
21-Apr-13	sub2322	2322	2	0	145	5	2	5	5	1	0	2	1	0.59126	0	0.6	0	25	87	68	0	
21-Apr-13	sub2322	2322	2	0	146	5	2	1	3	6	1	2	0	0.36773	0	0.6	0	21	80	81	1	
21-Apr-13	sub2322	2322	2	0	147	5	2	5	5	1	0	2	1	1.73361	0	0.6	1	25	87	51	0	
21-Apr-13	sub2322	2322	2	0	148	5	2	6	4	6	1	2	1	0.34967	1	0.6	0	26	65	66	1	
21-Apr-13	sub2322	2322	2	0	149	5	2	6	4	6	0	2	0	0.35571	1	0.6	0	26	67	88	1	
21-Apr-13	sub2322	2322	2	0	150	5	2	6	4	6	0	2	0	0.3283	1	0.6	0	26	67	88	1	
21-Apr-13	sub2322	2322	2	0	1	6	1	3	3	1	1	2	0	0.34995	0	0.6	0	13	42	43	1	
21-Apr-13	sub2322	2322	2	0	2	6	1	6	2	2	1	2	1	0.34902	1	0.3	1	16	35	51	1	
21-Apr-13	sub2322	2322	2	0	3	6	1	3	3	1	0	2	1	0.36185	0	0.9	0	13	44	39	1	
21-Apr-13	sub2322	2322	2	0	4	6	1	4	4	1	1	2	1	0.55315	1	0.9	0	14	32	33	0	
21-Apr-13	sub2322	2322	2	0	5	6	1	1	6	6	1	2	0	0.41545	0	0.9	0	11	40	41	1	
21-Apr-13	sub2322	2322	2	0	6	6	1	5	1	2	1	2	0	0.29949	0	0.9	0	15	45	46	1	
21-Apr-13	sub2322	2322	2	0	7	6	1	2	5	6	1	2	1	0.26097	1	0.9	0	12	30	31	1	
21-Apr-13	sub2322	2322	2	0	8	6	1	4	4	1	1	2	1	0.46851	1	0.9	0	14	32	33	1	
21-Apr-13	sub2322	2322	2	0	9	6	1	2	5	6	1	2	1	0.42989	1	0.9	0	12	30	31	1	
21-Apr-13	sub2322	2322	2	0	10	6	1	3	3	1	0	2	1	0.41307	0	0.9	0	13	44	39	1	
21-Apr-13	sub2322	2322	2	0	11	6	1	5	1	2	1	1	1	0.61865	1	0.9	0	15	35	36	0	
21-Apr-13	sub2322	2322	2	0	12	6	1	6	2	2	0	2	0	0.50783	1	0.9	0	16	37	48	0	
21-Apr-13	sub2322	2322	2	0	13	6	1	4	4	1	1	2	1	0.48812	1	0.9	0	14	32	33	1	
21-Apr-13	sub2322	2322	2	0	14	6	1	4	4	1	0	2	0	0.39279	1	0.9	0	14	34	49	1	
21-Apr-13	sub2322	2322	2	0	15	6	1	1	6	6	1	2	0	0.61618	0	0.9	0	11	40	41	0	
21-Apr-13	sub2322	2322	2	0	16	6	1	3	3	1	1	1	1	0.32188	1	0.8	0	13	32	33	1	
21-Apr-13	sub2322	2322	2	0	17	6	1	4	4	1	1	2	1	0.38912	1	0.8	0	14	32	33	1	
21-Apr-13	sub2322	2322	2	0	18	6	1	6	2	2	1	2	1	0.47153	1	0.7	0	16	35	36	1	
21-Apr-13	sub2322	2322	2	0	19	6	1	6	2	2	0	2	0	0.48017	1	0.7	0	16	37	48	1	
21-Apr-13	sub2322	2322	2	0	20	6	1	4	4	1	1	2	1	0.48073	1	0.7	0	14	32	33	1	
21-Apr-13	sub2322	2322	2	0	21	6	1	2	5	6	1	2	1	0.55079	1	0.6	0	12	30	31	0	
21-Apr-13	sub2322	2322	2	0	22	6	1	1	6	6	1	1	1	0.66515	1	0.6	1	11	30	51	0	
21-Apr-13	sub2322	2322	2	0	23	6	1	5	1	2	0	1	0	0.52061	1	0.9	0	15	37	48	0	
21-Apr-13	sub2322	2322	2	0	24	6	1	2	5	6	1	1	0	0.44128	0	0.9	0	12	40	41	1	
21-Apr-13	sub2322	2322	2	0	25	6	1	1	6	6	1	2	0	0.41954	0	0.9	0	11	40	41	1	
21-Apr-13	sub2322	2322	2	0	26	6	1	3	3	1	1	2	0	0.5502	0	0.9	0	13	42	43	0	
21-Apr-13	sub2322	2322	2	0	27	6	1	5	1	2	1	2	0	0.55265	0	0.9	0	15	45	46	0	
21-Apr-13	sub2322	2322	2	0	28	6	1	3	3	1	1	2	0	0.40884	0	0.9	0	13	42	43	1	
21-Apr-13	sub2322	2322	2	0	29	6	1	6	2	2	1	2	1	0.42136	1	0.9	0	16	35	36	1	
21-Apr-13	sub2322	2322	2	0	30	6	1	4	4	1	1	2	1	0.34812	1	0.8	0	14	32	33	1	
21-Apr-13	sub2322	2322	2	0	31	6	1	4	4	1	1	2	1	0.52873	1	0.8	0	14	32	33	0	
21-Apr-13	sub2322	2322	2	0	32	6	1	3	3	1	1	1	1	0.5862	1	0.8	0	13	32	33	0	
21-Apr-13	sub2322	2322	2	0	33	6	1	2	5	6	1	2	1	0.45826	1	0.8	0	12	30	31	1	
21-Apr-13	sub2322	2322	2	0	34	6	1	2	5	6	1	2	1	0.45646	1	0.8	0	12	30	31	1	
21-Apr-13	sub2322	2322	2	0	35	6	1	3	3	1	1	1	1	0.61918	1	0.7	0	13	32	33	0	
21-Apr-13	sub2322	2322	2	0	36	6	1	3	3	1	1	1	1	0.61633	1	0.7	0	13	32	33	0	
21-Apr-13	sub2322	2322	2	0	37	6	1	4	4	1	1	2	1	0.4164	1	0.7	0	14	32	33	1	
21-Apr-13	sub2322	2322	2	0	38	6	1	6	2	2	0	2	0	0.45469	1	0.7	0	16	37	48	1	
21-Apr-13	sub2322	2322	2	0	39	6	1	5	1	2	1	2	0	0.39155	0	0.7	0	15	45	46	1	
21-Apr-13	sub2322	2322	2	0	40	6	1	5	1	2	1	1	1	0.28469	1	0.7	0	15	35	36	1	
21-Apr-13	sub2322	2322	2	0	41	6	1	5	1	2	0	1	0	0.28264	1	0.6	0	15	37	48	1	
21-Apr-13	sub2322	2322	2	0	42	6	1	6	2	2	0	1	1	0.25651	0	0.6	0	16	47	38	1	
21-Apr-13	sub2322	2322	2	0	43	6	1	6	2	2	1	2	1	0.38918	1	0.6	0	16	35	36	1	
21-Apr-13	sub2322	2322	2	0	44	6	1	3	3	1	1	2	0	0.46062	0	0.6	0	13	42	43	1	
21-Apr-13	sub2322	2322	2	0	45	6	1	5	1	2	0	1	0	0.57742	1	0.6	0	15	37	48	0	
21-Apr-13	sub2322	2322	2	0	46	6	1	3	3	1	1	2	0	0.43863	0	0.6	0	13	42	43	1	
21-Apr-13	sub2322	2322	2	0	47	6	1	6	2	2	0	1	1	0.25459	0	0.6	0	16	47	38	1	
21-Apr-13	sub2322	2322	2	0	48	6	1	4	4	1	1	2	1	0.46914	1	0.6	0	14	32	33	1	
21-Apr-13	sub2322	2322	2	0	49	6	1	5	1	2	0	1	0	0.64056	1	0.6	1	15	37	51	0	
21-Apr-13	sub2322	2322	2	0	50	6	1	2	5	6	1	2	1	0.48133	1	0.8	0	12	30	31	1	
21-Apr-13	sub2322	2322	2	0	51	6	1	4	4	1	1	2	1	0.45218	1	0.7	0	14	32	33	1	
21-Apr-13	sub2322	2322	2	0	52	6	1	4	4	1	0	2	0	0.42799	1	0.7	0	14	34	49	1	
21-Apr-13	sub2322	2322	2	0	53	6	1	2	5	6	1	2	1	0.41357	1	0.7	0	12	30	31	1	
21-Apr-13	sub2322	2322	2	0	54	6	1	1	6	6	1	2	0	0.40077	0	0.7	0	11	40	41	1	
21-Apr-13	sub2322	2322	2	0	55	6	1	2	5	6	1	2	1	0.58805	1	0.7	0	12	30	31	0	
21-Apr-13	sub2322	2322	2	0	56	6	1	2	5	6	1	2	1	0.47742	1	0.7	0	12	30	31	1	
21-Apr-13	sub2322	2322	2	0	57	6	1	2	5	6	1	2	1	0.47506	1	0.7	0	12	30	31	1	
21-Apr-13	sub2322	2322	2	0	58	6	1	6	2	2	1	2	1	0.52065	1	0.7	0	16	35	36	0	
21-Apr-13	sub2322	2322	2	0	59	6	1	3	3	1	0	1	0	0.60365	1	0.7	0	13	34	49	0	
21-Apr-13	sub2322	2322	2	0	60	6	1	6	2	2	0	2	0	0.59699	1	0.7	0	16	37	48	0	
21-Apr-13	sub2322	2322	2	0	61	6	1	5	1	2	0	2	1	0.34062	0	0.6	0	15	47	38	1	
21-Apr-13	sub2322	2322	2	0	62	6	1	6	2	2	1	1	0	0.42437	0	0.6	0	16	45	46	1	
21-Apr-13	sub2322	2322	2	0	63	6	1	3	3	1	1	2	0	0.28024	0	0.6	0	13	42	43	1	
21-Apr-13	sub2322	2322	2	0	64	6	1	1	6	6	1	1	1	0.51751	1	0.6	0	11	30	31	0	
21-Apr-13	sub2322	2322	2	0	65	6	1	5	1	2	0	1	0	0.50157	1	0.6	0	15	37	48	0	
21-Apr-13	sub2322	2322	2	0	66	6	1	5	1	2	1	1	1	0.56778	1	0.6	0	15	35	36	0	
21-Apr-13	sub2322	2322	2	0	67	6	1	6	2	2	1	1	0	0.53376	0	0.6	0	16	45	46	0	
21-Apr-13	sub2322	2322	2	0	68	6	1	1	6	6	1	2	0	0.27715	0	0.6	0	11	40	41	1	
21-Apr-13	sub2322	2322	2	0	69	6	1	1	6	6	1	1	1	0.1747	1	0.6	0	11	30	31	1	
21-Apr-13	sub2322	2322	2	0	70	6	1	1	6	6	1	1	1	0.33388	1	0.6	0	11	30	31	1	
21-Apr-13	sub2322	2322	2	0	71	6	1	2	5	6	1	2	1	0.51398	1	0.6	0	12	30	31	0	
21-Apr-13	sub2322	2322	2	0	72	6	1	1	6	6	1	1	1	0.55043	1	0.6	0	11	30	31	0	
21-Apr-13	sub2322	2322	2	0	73	6	1	2	5	6	1	2	1	0.44265	1	0.6	0	12	30	31	1	
21-Apr-13	sub2322	2322	2	0	74	6	1	1	6	6	1	1	1	0.51964	1	0.6	0	11	30	31	0	
21-Apr-13	sub2322	2322	2	0	75	6	1	1	6	6	1	2	0	0.3887	0	0.6	0	11	40	41	1	
21-Apr-13	sub2322	2322	2	0	76	6	2	3	3	1	1	2	0	0.47876	0	0.5	0	23	82	83	1	
21-Apr-13	sub2322	2322	2	0	77	6	2	2	5	6	1	1	0	0.26135	0	0.5	0	22	80	81	1	
21-Apr-13	sub2322	2322	2	0	78	6	2	2	5	6	1	2	1	0.43508	1	0.5	0	22	60	61	1	
21-Apr-13	sub2322	2322	2	0	79	6	2	5	1	2	0	2	1	0.39956	0	0.5	0	25	87	68	1	
21-Apr-13	sub2322	2322	2	0	80	6	2	1	6	6	1	1	1	0.56828	1	0.5	1	21	60	51	0	
21-Apr-13	sub2322	2322	2	0	81	6	2	4	4	1	1	2	1	0.54657	1	0.6	0	24	62	63	0	
21-Apr-13	sub2322	2322	2	0	82	6	2	1	6	6	1	1	1	0.59474	1	0.6	0	21	60	61	0	
21-Apr-13	sub2322	2322	2	0	83	6	2	1	6	6	1	1	1	0.43899	1	0.6	0	21	60	61	1	
21-Apr-13	sub2322	2322	2	0	84	6	2	4	4	1	0	2	0	0.46146	1	0.6	0	24	64	89	1	
21-Apr-13	sub2322	2322	2	0	85	6	2	2	5	6	1	2	1	0.33971	1	0.6	0	22	60	61	1	
21-Apr-13	sub2322	2322	2	0	86	6	2	6	2	2	1	2	1	0.65304	1	0.6	1	26	65	51	0	
21-Apr-13	sub2322	2322	2	0	87	6	2	6	2	2	0	2	0	0.36701	1	0.7	0	26	67	88	1	
21-Apr-13	sub2322	2322	2	0	88	6	2	2	5	6	1	2	1	0.46561	1	0.7	0	22	60	61	1	
21-Apr-13	sub2322	2322	2	0	89	6	2	4	4	1	1	2	1	0.50546	1	0.7	0	24	62	63	0	
21-Apr-13	sub2322	2322	2	0	90	6	2	6	2	2	0	2	0	0.45605	1	0.7	0	26	67	88	1	
21-Apr-13	sub2322	2322	2	0	91	6	2	4	4	1	1	2	1	0.42945	1	0.7	0	24	62	63	1	
21-Apr-13	sub2322	2322	2	0	92	6	2	6	2	2	1	2	1	0.49028	1	0.7	0	26	65	66	1	
21-Apr-13	sub2322	2322	2	0	93	6	2	1	6	6	1	2	0	0.29236	0	0.7	0	21	80	81	1	
21-Apr-13	sub2322	2322	2	0	94	6	2	2	5	6	1	1	0	0.30153	0	0.7	0	22	80	81	1	
21-Apr-13	sub2322	2322	2	0	95	6	2	2	5	6	1	2	1	0.26357	1	0.7	0	22	60	61	1	
21-Apr-13	sub2322	2322	2	0	96	6	2	3	3	1	0	1	0	0.60502	1	0.7	0	23	64	89	0	
21-Apr-13	sub2322	2322	2	0	97	6	2	1	6	6	1	1	1	0.53792	1	0.7	0	21	60	61	0	
21-Apr-13	sub2322	2322	2	0	98	6	2	5	1	2	0	1	0	0.59944	1	0.7	0	25	67	88	0	
21-Apr-13	sub2322	2322	2	0	99	6	2	5	1	2	0	1	0	0.30361	1	0.7	0	25	67	88	1	
21-Apr-13	sub2322	2322	2	0	100	6	2	3	3	1	1	1	1	0.10164	1	0.7	0	23	62	63	1	
21-Apr-13	sub2322	2322	2	0	101	6	2	3	3	1	1	1	1	0.38375	1	0.6	0	23	62	63	1	
21-Apr-13	sub2322	2322	2	0	102	6	2	4	4	1	1	2	1	0.39287	1	0.6	0	24	62	63	1	
21-Apr-13	sub2322	2322	2	0	103	6	2	2	5	6	1	2	1	0.2825	1	0.6	0	22	60	61	1	
21-Apr-13	sub2322	2322	2	0	104	6	2	4	4	1	1	2	1	0.30982	1	0.6	0	24	62	63	1	
21-Apr-13	sub2322	2322	2	0	105	6	2	4	4	1	1	2	1	0.31388	1	0.6	0	24	62	63	1	
21-Apr-13	sub2322	2322	2	0	106	6	2	2	5	6	1	2	1	0.48949	1	0.6	0	22	60	61	1	
21-Apr-13	sub2322	2322	2	0	107	6	2	4	4	1	0	2	0	0.0001	1	0.6	0	24	64	89	1	
21-Apr-13	sub2322	2322	2	0	108	6	2	5	1	2	0	1	0	0.24247	1	0.6	0	25	67	88	1	
21-Apr-13	sub2322	2322	2	0	109	6	2	3	3	1	1	2	0	3.15655	0	0.6	1	23	82	51	0	
21-Apr-13	sub2322	2322	2	0	110	6	2	6	2	2	1	1	0	0.59784	0	0.7	0	26	85	86	0	
21-Apr-13	sub2322	2322	2	0	111	6	2	5	1	2	0	1	0	0.5636	1	0.7	0	25	67	88	0	
21-Apr-13	sub2322	2322	2	0	112	6	2	5	1	2	0	2	1	0.42934	0	0.7	0	25	87	68	1	
21-Apr-13	sub2322	2322	2	0	113	6	2	1	6	6	1	1	1	0.54305	1	0.7	0	21	60	61	0	
21-Apr-13	sub2322	2322	2	0	114	6	2	6	2	2	1	1	0	0.42772	0	0.7	0	26	85	86	1	
21-Apr-13	sub2322	2322	2	0	115	6	2	3	3	1	1	1	1	0.57351	1	0.7	0	23	62	63	0	
21-Apr-13	sub2322	2322	2	0	116	6	2	3	3	1	1	2	0	0.31935	0	0.7	0	23	82	83	1	
21-Apr-13	sub2322	2322	2	0	117	6	2	1	6	6	1	1	1	0.28047	1	0.7	0	21	60	61	1	
21-Apr-13	sub2322	2322	2	0	118	6	2	3	3	1	1	2	0	0.45326	0	0.7	0	23	82	83	1	
21-Apr-13	sub2322	2322	2	0	119	6	2	2	5	6	1	2	1	0.63588	1	0.7	0	22	60	61	0	
21-Apr-13	sub2322	2322	2	0	120	6	2	1	6	6	1	1	1	0.59354	1	0.7	0	21	60	61	0	
21-Apr-13	sub2322	2322	2	0	121	6	2	4	4	1	0	2	0	0.45439	1	0.6	0	24	64	89	1	
21-Apr-13	sub2322	2322	2	0	122	6	2	4	4	1	1	2	1	0.38072	1	0.6	0	24	62	63	1	
21-Apr-13	sub2322	2322	2	0	123	6	2	1	6	6	1	1	1	0.5338	1	0.6	0	21	60	61	0	
21-Apr-13	sub2322	2322	2	0	124	6	2	5	1	2	0	1	0	0.38395	1	0.6	0	25	67	88	1	
21-Apr-13	sub2322	2322	2	0	125	6	2	6	2	2	0	2	0	0.34964	1	0.6	0	26	67	88	1	
21-Apr-13	sub2322	2322	2	0	126	6	2	6	2	2	1	2	1	0.50921	1	0.6	0	26	65	66	0	
21-Apr-13	sub2322	2322	2	0	127	6	2	5	1	2	0	2	1	0.50142	0	0.6	0	25	87	68	0	
21-Apr-13	sub2322	2322	2	0	128	6	2	4	4	1	1	1	0	0.37546	0	0.6	0	24	82	83	1	
21-Apr-13	sub2322	2322	2	0	129	6	2	5	1	2	0	2	1	0.2693	0	0.6	0	25	87	68	1	
21-Apr-13	sub2322	2322	2	0	130	6	2	3	3	1	1	1	1	0.40969	1	0.6	0	23	62	63	1	
21-Apr-13	sub2322	2322	2	0	131	6	2	1	6	6	1	2	0	0.35639	0	0.6	0	21	80	81	1	
21-Apr-13	sub2322	2322	2	0	132	6	2	5	1	2	0	1	0	0.25088	1	0.6	0	25	67	88	1	
21-Apr-13	sub2322	2322	2	0	133	6	2	6	2	2	0	2	0	0.27635	1	0.6	0	26	67	88	1	
21-Apr-13	sub2322	2322	2	0	134	6	2	5	1	2	0	2	1	0.23452	0	0.6	0	25	87	68	1	
21-Apr-13	sub2322	2322	2	0	135	6	2	4	4	1	1	2	1	0.42951	1	0.6	0	24	62	63	1	
21-Apr-13	sub2322	2322	2	0	136	6	2	1	6	6	1	1	1	0.59937	1	0.6	0	21	60	61	0	
21-Apr-13	sub2322	2322	2	0	137	6	2	1	6	6	1	2	0	0.37821	0	0.6	0	21	80	81	1	
21-Apr-13	sub2322	2322	2	0	138	6	2	5	1	2	0	1	0	0.13844	1	0.6	0	25	67	88	1	
21-Apr-13	sub2322	2322	2	0	139	6	2	2	5	6	1	2	1	0.35774	1	0.6	0	22	60	61	1	
21-Apr-13	sub2322	2322	2	0	140	6	2	4	4	1	1	1	0	0.54889	0	0.6	0	24	82	83	0	
21-Apr-13	sub2322	2322	2	0	141	6	2	3	3	1	1	2	0	0.24004	0	0.6	0	23	82	83	1	
21-Apr-13	sub2322	2322	2	0	142	6	2	5	1	2	0	2	1	0.25368	0	0.6	0	25	87	68	1	
21-Apr-13	sub2322	2322	2	0	143	6	2	3	3	1	1	1	1	0.54568	1	0.6	0	23	62	63	0	
21-Apr-13	sub2322	2322	2	0	144	6	2	6	2	2	0	2	0	0.39873	1	0.6	0	26	67	88	1	
21-Apr-13	sub2322	2322	2	0	145	6	2	3	3	1	0	1	0	0.1463	1	0.6	0	23	64	89	1	
21-Apr-13	sub2322	2322	2	0	146	6	2	6	2	2	0	2	0	1.92289	1	0.6	1	26	67	51	0	
21-Apr-13	sub2322	2322	2	0	147	6	2	1	6	6	1	2	0	0.40596	0	0.6	0	21	80	81	1	
21-Apr-13	sub2322	2322	2	0	148	6	2	6	2	2	1	1	0	0.33066	0	0.6	0	26	85	86	1	
21-Apr-13	sub2322	2322	2	0	149	6	2	2	5	6	1	2	1	0.28999	1	0.6	0	22	60	61	1	
21-Apr-13	sub2322	2322	2	0	150	6	2	2	5	6	1	2	1	0.2937	1	0.6	0	22	60	61	1	
