Date 	 Name 	 ID 	 Gender 	 Appearance 	 Trial 	 Block 	 Bin 	 Condition 	 Category 	 Number 	 Valid 	 Keypress 	 Correct 	 RT 	 Realcorrect 	 Deadline 	 Timeout 	 Stimtrigger 	 Resptrigger 	 Fedtrigger 	 WithinTime 	 
21-Apr-2013	sub2323	2323	  1	  1	  1	  1	  1	  5	  4	  6	  0	  1	  0	1.42785	  1	0.60000	  1	 15	 37	 51	  0	
21-Apr-2013	sub2323	2323	  1	  1	  2	  1	  1	  6	  1	  4	  0	  2	  0	0.60668	  1	0.90000	  0	 16	 37	 48	  0	
21-Apr-2013	sub2323	2323	  1	  1	  3	  1	  1	  5	  4	  6	  1	  1	  1	1.11584	  1	0.90000	  1	 15	 35	 51	  0	
21-Apr-2013	sub2323	2323	  1	  1	  4	  1	  1	  2	  6	  1	  1	  2	  1	0.90900	  1	0.90000	  1	 12	 30	 51	  0	
21-Apr-2013	sub2323	2323	  1	  1	  5	  1	  1	  5	  4	  6	  0	  2	  1	0.63150	  0	0.90000	  0	 15	 47	 38	  0	
21-Apr-2013	sub2323	2323	  1	  1	  6	  1	  1	  3	  5	  1	  1	  2	  0	0.95259	  0	0.90000	  1	 13	 42	 51	  0	
21-Apr-2013	sub2323	2323	  1	  1	  7	  1	  1	  6	  1	  4	  1	  2	  1	0.67133	  1	0.90000	  0	 16	 35	 36	  0	
21-Apr-2013	sub2323	2323	  1	  1	  8	  1	  1	  3	  5	  1	  0	  2	  1	0.61800	  0	0.90000	  0	 13	 44	 39	  0	
21-Apr-2013	sub2323	2323	  1	  1	  9	  1	  1	  3	  5	  1	  1	  2	  0	0.48773	  0	0.90000	  0	 13	 42	 43	  1	
21-Apr-2013	sub2323	2323	  1	  1	 10	  1	  1	  6	  1	  4	  0	  2	  0	0.73741	  1	0.90000	  0	 16	 37	 48	  0	
21-Apr-2013	sub2323	2323	  1	  1	 11	  1	  1	  6	  1	  4	  0	  1	  1	0.54855	  0	0.90000	  0	 16	 47	 38	  0	
21-Apr-2013	sub2323	2323	  1	  1	 12	  1	  1	  1	  3	  4	  1	  2	  0	0.68625	  0	0.90000	  0	 11	 40	 41	  0	
21-Apr-2013	sub2323	2323	  1	  1	 13	  1	  1	  4	  2	  4	  0	  2	  0	0.79471	  1	0.90000	  0	 14	 34	 49	  0	
21-Apr-2013	sub2323	2323	  1	  1	 14	  1	  1	  5	  4	  6	  1	  1	  1	0.52503	  1	0.90000	  0	 15	 35	 36	  0	
21-Apr-2013	sub2323	2323	  1	  1	 15	  1	  1	  3	  5	  1	  1	  2	  0	0.65440	  0	0.90000	  0	 13	 42	 43	  0	
21-Apr-2013	sub2323	2323	  1	  1	 16	  1	  1	  2	  6	  1	  1	  2	  1	0.60124	  1	0.90000	  0	 12	 30	 31	  0	
21-Apr-2013	sub2323	2323	  1	  1	 17	  1	  1	  4	  2	  4	  1	  2	  1	0.66696	  1	0.90000	  0	 14	 32	 33	  0	
21-Apr-2013	sub2323	2323	  1	  1	 18	  1	  1	  3	  5	  1	  1	  2	  0	0.47851	  0	0.90000	  0	 13	 42	 43	  1	
21-Apr-2013	sub2323	2323	  1	  1	 19	  1	  1	  3	  5	  1	  1	  1	  1	0.51984	  1	0.90000	  0	 13	 32	 33	  0	
21-Apr-2013	sub2323	2323	  1	  1	 20	  1	  1	  6	  1	  4	  0	  1	  1	0.60363	  0	0.90000	  0	 16	 47	 38	  0	
21-Apr-2013	sub2323	2323	  1	  1	 21	  1	  1	  2	  6	  1	  1	  2	  1	0.71158	  1	0.90000	  0	 12	 30	 31	  0	
21-Apr-2013	sub2323	2323	  1	  1	 22	  1	  1	  3	  5	  1	  1	  1	  1	0.51145	  1	0.90000	  0	 13	 32	 33	  0	
21-Apr-2013	sub2323	2323	  1	  1	 23	  1	  1	  4	  2	  4	  1	  1	  0	0.69088	  0	0.90000	  0	 14	 42	 43	  0	
21-Apr-2013	sub2323	2323	  1	  1	 24	  1	  1	  1	  3	  4	  1	  2	  0	0.72615	  0	0.90000	  0	 11	 40	 41	  0	
21-Apr-2013	sub2323	2323	  1	  1	 25	  1	  1	  5	  4	  6	  0	  1	  0	0.51776	  1	0.90000	  0	 15	 37	 48	  0	
21-Apr-2013	sub2323	2323	  1	  1	 26	  1	  1	  5	  4	  6	  1	  1	  1	0.67741	  1	0.90000	  0	 15	 35	 36	  0	
21-Apr-2013	sub2323	2323	  1	  1	 27	  1	  1	  4	  2	  4	  1	  1	  0	0.68358	  0	0.90000	  0	 14	 42	 43	  0	
21-Apr-2013	sub2323	2323	  1	  1	 28	  1	  1	  6	  1	  4	  0	  2	  0	0.36737	  1	0.90000	  0	 16	 37	 48	  1	
21-Apr-2013	sub2323	2323	  1	  1	 29	  1	  1	  2	  6	  1	  1	  1	  0	0.38808	  0	0.90000	  0	 12	 40	 41	  1	
21-Apr-2013	sub2323	2323	  1	  1	 30	  1	  1	  4	  2	  4	  1	  2	  1	0.65325	  1	0.90000	  0	 14	 32	 33	  0	
21-Apr-2013	sub2323	2323	  1	  1	 31	  1	  1	  4	  2	  4	  1	  2	  1	0.65330	  1	0.90000	  0	 14	 32	 33	  0	
21-Apr-2013	sub2323	2323	  1	  1	 32	  1	  1	  3	  5	  1	  1	  1	  1	0.57048	  1	0.90000	  0	 13	 32	 33	  0	
21-Apr-2013	sub2323	2323	  1	  1	 33	  1	  1	  5	  4	  6	  0	  1	  0	0.56647	  1	0.90000	  0	 15	 37	 48	  0	
21-Apr-2013	sub2323	2323	  1	  1	 34	  1	  1	  5	  4	  6	  1	  1	  1	0.52637	  1	0.90000	  0	 15	 35	 36	  0	
21-Apr-2013	sub2323	2323	  1	  1	 35	  1	  1	  6	  1	  4	  0	  1	  1	0.59709	  0	0.90000	  0	 16	 47	 38	  0	
21-Apr-2013	sub2323	2323	  1	  1	 36	  1	  1	  4	  2	  4	  1	  2	  1	0.70755	  1	0.90000	  0	 14	 32	 33	  0	
21-Apr-2013	sub2323	2323	  1	  1	 37	  1	  1	  6	  1	  4	  1	  1	  0	0.57745	  0	0.90000	  0	 16	 45	 46	  0	
21-Apr-2013	sub2323	2323	  1	  1	 38	  1	  1	  5	  4	  6	  0	  1	  0	0.59066	  1	0.90000	  0	 15	 37	 48	  0	
21-Apr-2013	sub2323	2323	  1	  1	 39	  1	  1	  2	  6	  1	  1	  1	  0	0.55421	  0	0.90000	  0	 12	 40	 41	  0	
21-Apr-2013	sub2323	2323	  1	  1	 40	  1	  1	  6	  1	  4	  1	  2	  1	0.47182	  1	0.90000	  0	 16	 35	 36	  1	
21-Apr-2013	sub2323	2323	  1	  1	 41	  1	  1	  4	  2	  4	  0	  2	  0	0.69231	  1	0.90000	  0	 14	 34	 49	  0	
21-Apr-2013	sub2323	2323	  1	  1	 42	  1	  1	  5	  4	  6	  1	  1	  1	0.57889	  1	0.90000	  0	 15	 35	 36	  0	
21-Apr-2013	sub2323	2323	  1	  1	 43	  1	  1	  4	  2	  4	  1	  1	  0	0.51314	  0	0.90000	  0	 14	 42	 43	  0	
21-Apr-2013	sub2323	2323	  1	  1	 44	  1	  1	  1	  3	  4	  1	  1	  1	0.59000	  1	0.90000	  0	 11	 30	 31	  0	
21-Apr-2013	sub2323	2323	  1	  1	 45	  1	  1	  6	  1	  4	  1	  1	  0	0.61266	  0	0.90000	  0	 16	 45	 46	  0	
21-Apr-2013	sub2323	2323	  1	  1	 46	  1	  1	  1	  3	  4	  1	  1	  1	0.75853	  1	0.90000	  0	 11	 30	 31	  0	
21-Apr-2013	sub2323	2323	  1	  1	 47	  1	  1	  4	  2	  4	  1	  2	  1	0.51444	  1	0.90000	  0	 14	 32	 33	  0	
21-Apr-2013	sub2323	2323	  1	  1	 48	  1	  1	  1	  3	  4	  1	  1	  1	0.77169	  1	0.90000	  0	 11	 30	 31	  0	
21-Apr-2013	sub2323	2323	  1	  1	 49	  1	  1	  1	  3	  4	  1	  1	  1	0.51044	  1	0.90000	  0	 11	 30	 31	  0	
21-Apr-2013	sub2323	2323	  1	  1	 50	  1	  1	  3	  5	  1	  1	  1	  1	0.58127	  1	0.90000	  0	 13	 32	 33	  0	
21-Apr-2013	sub2323	2323	  1	  1	 51	  1	  1	  2	  6	  1	  1	  2	  1	0.67010	  1	0.90000	  0	 12	 30	 31	  0	
21-Apr-2013	sub2323	2323	  1	  1	 52	  1	  1	  2	  6	  1	  1	  2	  1	0.59077	  1	0.90000	  0	 12	 30	 31	  0	
21-Apr-2013	sub2323	2323	  1	  1	 53	  1	  1	  1	  3	  4	  1	  1	  1	0.58069	  1	0.90000	  0	 11	 30	 31	  0	
21-Apr-2013	sub2323	2323	  1	  1	 54	  1	  1	  1	  3	  4	  1	  1	  1	0.51010	  1	0.90000	  0	 11	 30	 31	  0	
21-Apr-2013	sub2323	2323	  1	  1	 55	  1	  1	  1	  3	  4	  1	  1	  1	0.47877	  1	0.90000	  0	 11	 30	 31	  1	
21-Apr-2013	sub2323	2323	  1	  1	 56	  1	  1	  6	  1	  4	  1	  1	  0	0.52190	  0	0.90000	  0	 16	 45	 46	  0	
21-Apr-2013	sub2323	2323	  1	  1	 57	  1	  1	  2	  6	  1	  1	  2	  1	0.58281	  1	0.90000	  0	 12	 30	 31	  0	
21-Apr-2013	sub2323	2323	  1	  1	 58	  1	  1	  2	  6	  1	  1	  2	  1	0.55189	  1	0.90000	  0	 12	 30	 31	  0	
21-Apr-2013	sub2323	2323	  1	  1	 59	  1	  1	  1	  3	  4	  1	  1	  1	0.61004	  1	0.80000	  0	 11	 30	 31	  0	
21-Apr-2013	sub2323	2323	  1	  1	 60	  1	  1	  6	  1	  4	  0	  2	  0	0.59166	  1	0.80000	  0	 16	 37	 48	  0	
21-Apr-2013	sub2323	2323	  1	  1	 61	  1	  1	  2	  6	  1	  1	  2	  1	0.65551	  1	0.80000	  0	 12	 30	 31	  0	
21-Apr-2013	sub2323	2323	  1	  1	 62	  1	  1	  3	  5	  1	  1	  1	  1	0.60298	  1	0.80000	  0	 13	 32	 33	  0	
21-Apr-2013	sub2323	2323	  1	  1	 63	  1	  1	  1	  3	  4	  1	  1	  1	0.51756	  1	0.80000	  0	 11	 30	 31	  0	
21-Apr-2013	sub2323	2323	  1	  1	 64	  1	  1	  2	  6	  1	  1	  2	  1	0.55929	  1	0.80000	  0	 12	 30	 31	  0	
21-Apr-2013	sub2323	2323	  1	  1	 65	  1	  1	  5	  4	  6	  1	  1	  1	0.51070	  1	0.80000	  0	 15	 35	 36	  0	
21-Apr-2013	sub2323	2323	  1	  1	 66	  1	  1	  1	  3	  4	  1	  1	  1	0.57512	  1	0.80000	  0	 11	 30	 31	  0	
21-Apr-2013	sub2323	2323	  1	  1	 67	  1	  1	  4	  2	  4	  1	  2	  1	0.57199	  1	0.80000	  0	 14	 32	 33	  0	
21-Apr-2013	sub2323	2323	  1	  1	 68	  1	  1	  2	  6	  1	  1	  2	  1	0.61848	  1	0.70000	  0	 12	 30	 31	  0	
21-Apr-2013	sub2323	2323	  1	  1	 69	  1	  1	  2	  6	  1	  1	  2	  1	0.61323	  1	0.70000	  0	 12	 30	 31	  0	
21-Apr-2013	sub2323	2323	  1	  1	 70	  1	  1	  3	  5	  1	  0	  1	  0	0.59878	  1	0.70000	  0	 13	 34	 49	  0	
21-Apr-2013	sub2323	2323	  1	  1	 71	  1	  1	  3	  5	  1	  0	  1	  0	0.46933	  1	0.70000	  0	 13	 34	 49	  1	
21-Apr-2013	sub2323	2323	  1	  1	 72	  1	  1	  5	  4	  6	  1	  1	  1	0.60611	  1	0.70000	  0	 15	 35	 36	  0	
21-Apr-2013	sub2323	2323	  1	  1	 73	  1	  1	  3	  5	  1	  1	  2	  0	0.66819	  0	0.70000	  0	 13	 42	 43	  0	
21-Apr-2013	sub2323	2323	  1	  1	 74	  1	  1	  4	  2	  4	  1	  2	  1	0.58777	  1	0.70000	  0	 14	 32	 33	  0	
21-Apr-2013	sub2323	2323	  1	  1	 75	  1	  1	  6	  1	  4	  0	  1	  1	0.69565	  0	0.70000	  0	 16	 47	 38	  0	
21-Apr-2013	sub2323	2323	  1	  1	  1	  2	  1	  4	  2	  1	  0	  1	  1	0.71327	  0	0.60000	  1	 14	 44	 51	  0	
21-Apr-2013	sub2323	2323	  1	  1	  2	  2	  1	  5	  4	  2	  0	  1	  0	0.65034	  1	0.90000	  0	 15	 37	 48	  0	
21-Apr-2013	sub2323	2323	  1	  1	  3	  2	  1	  5	  4	  2	  1	  1	  1	0.50651	  1	0.90000	  0	 15	 35	 36	  0	
21-Apr-2013	sub2323	2323	  1	  1	  4	  2	  1	  4	  2	  1	  1	  2	  1	0.67934	  1	0.90000	  0	 14	 32	 33	  0	
21-Apr-2013	sub2323	2323	  1	  1	  5	  2	  1	  6	  6	  3	  1	  1	  0	0.77086	  0	0.90000	  0	 16	 45	 46	  0	
21-Apr-2013	sub2323	2323	  1	  1	  6	  2	  1	  5	  4	  2	  1	  2	  0	0.44003	  0	0.90000	  0	 15	 45	 46	  1	
21-Apr-2013	sub2323	2323	  1	  1	  7	  2	  1	  4	  2	  1	  1	  1	  0	0.41945	  0	0.90000	  0	 14	 42	 43	  1	
21-Apr-2013	sub2323	2323	  1	  1	  8	  2	  1	  2	  1	  6	  1	  2	  1	0.53246	  1	0.90000	  0	 12	 30	 31	  0	
21-Apr-2013	sub2323	2323	  1	  1	  9	  2	  1	  3	  5	  3	  1	  2	  0	0.63728	  0	0.90000	  0	 13	 42	 43	  0	
21-Apr-2013	sub2323	2323	  1	  1	 10	  2	  1	  5	  4	  2	  0	  1	  0	0.92181	  1	0.90000	  1	 15	 37	 51	  0	
21-Apr-2013	sub2323	2323	  1	  1	 11	  2	  1	  4	  2	  1	  1	  2	  1	0.48370	  1	0.90000	  0	 14	 32	 33	  1	
21-Apr-2013	sub2323	2323	  1	  1	 12	  2	  1	  4	  2	  1	  1	  2	  1	0.51880	  1	0.90000	  0	 14	 32	 33	  0	
21-Apr-2013	sub2323	2323	  1	  1	 13	  2	  1	  1	  3	  1	  1	  1	  1	0.75927	  1	0.90000	  0	 11	 30	 31	  0	
21-Apr-2013	sub2323	2323	  1	  1	 14	  2	  1	  6	  6	  3	  0	  2	  0	0.66724	  1	0.90000	  0	 16	 37	 48	  0	
21-Apr-2013	sub2323	2323	  1	  1	 15	  2	  1	  1	  3	  1	  1	  2	  0	0.56255	  0	0.90000	  0	 11	 40	 41	  0	
21-Apr-2013	sub2323	2323	  1	  1	 16	  2	  1	  2	  1	  6	  1	  2	  1	0.68616	  1	0.90000	  0	 12	 30	 31	  0	
21-Apr-2013	sub2323	2323	  1	  1	 17	  2	  1	  5	  4	  2	  0	  1	  0	0.61754	  1	0.90000	  0	 15	 37	 48	  0	
21-Apr-2013	sub2323	2323	  1	  1	 18	  2	  1	  1	  3	  1	  1	  2	  0	0.68828	  0	0.90000	  0	 11	 40	 41	  0	
21-Apr-2013	sub2323	2323	  1	  1	 19	  2	  1	  5	  4	  2	  1	  1	  1	0.64943	  1	0.90000	  0	 15	 35	 36	  0	
21-Apr-2013	sub2323	2323	  1	  1	 20	  2	  1	  2	  1	  6	  1	  2	  1	0.52876	  1	0.90000	  0	 12	 30	 31	  0	
21-Apr-2013	sub2323	2323	  1	  1	 21	  2	  1	  3	  5	  3	  1	  1	  1	0.51555	  1	0.90000	  0	 13	 32	 33	  0	
21-Apr-2013	sub2323	2323	  1	  1	 22	  2	  1	  5	  4	  2	  0	  1	  0	0.90024	  1	0.90000	  1	 15	 37	 51	  0	
21-Apr-2013	sub2323	2323	  1	  1	 23	  2	  1	  4	  2	  1	  1	  2	  1	0.59635	  1	0.90000	  0	 14	 32	 33	  0	
21-Apr-2013	sub2323	2323	  1	  1	 24	  2	  1	  6	  6	  3	  0	  2	  0	0.69940	  1	0.90000	  0	 16	 37	 48	  0	
21-Apr-2013	sub2323	2323	  1	  1	 25	  2	  1	  2	  1	  6	  1	  1	  0	0.75982	  0	0.90000	  0	 12	 40	 41	  0	
21-Apr-2013	sub2323	2323	  1	  1	 26	  2	  1	  3	  5	  3	  1	  2	  0	0.60527	  0	0.90000	  0	 13	 42	 43	  0	
21-Apr-2013	sub2323	2323	  1	  1	 27	  2	  1	  6	  6	  3	  0	  1	  1	0.60876	  0	0.90000	  0	 16	 47	 38	  0	
21-Apr-2013	sub2323	2323	  1	  1	 28	  2	  1	  1	  3	  1	  1	  1	  1	0.77511	  1	0.90000	  0	 11	 30	 31	  0	
21-Apr-2013	sub2323	2323	  1	  1	 29	  2	  1	  3	  5	  3	  1	  1	  1	0.77281	  1	0.90000	  0	 13	 32	 33	  0	
21-Apr-2013	sub2323	2323	  1	  1	 30	  2	  1	  1	  3	  1	  1	  1	  1	0.83719	  1	0.90000	  0	 11	 30	 31	  0	
21-Apr-2013	sub2323	2323	  1	  1	 31	  2	  1	  1	  3	  1	  1	  1	  1	0.58283	  1	0.90000	  0	 11	 30	 31	  0	
21-Apr-2013	sub2323	2323	  1	  1	 32	  2	  1	  2	  1	  6	  1	  1	  0	0.72410	  0	0.90000	  0	 12	 40	 41	  0	
21-Apr-2013	sub2323	2323	  1	  1	 33	  2	  1	  4	  2	  1	  1	  2	  1	0.48117	  1	0.90000	  0	 14	 32	 33	  1	
21-Apr-2013	sub2323	2323	  1	  1	 34	  2	  1	  1	  3	  1	  1	  1	  1	0.59527	  1	0.90000	  0	 11	 30	 31	  0	
21-Apr-2013	sub2323	2323	  1	  1	 35	  2	  1	  2	  1	  6	  1	  1	  0	0.77072	  0	0.90000	  0	 12	 40	 41	  0	
21-Apr-2013	sub2323	2323	  1	  1	 36	  2	  1	  4	  2	  1	  1	  2	  1	0.63111	  1	0.90000	  0	 14	 32	 33	  0	
21-Apr-2013	sub2323	2323	  1	  1	 37	  2	  1	  3	  5	  3	  1	  1	  1	0.69729	  1	0.90000	  0	 13	 32	 33	  0	
21-Apr-2013	sub2323	2323	  1	  1	 38	  2	  1	  3	  5	  3	  0	  1	  0	0.78143	  1	0.90000	  0	 13	 34	 49	  0	
21-Apr-2013	sub2323	2323	  1	  1	 39	  2	  1	  5	  4	  2	  0	  2	  1	0.88581	  0	0.90000	  0	 15	 47	 38	  0	
21-Apr-2013	sub2323	2323	  1	  1	 40	  2	  1	  2	  1	  6	  1	  2	  1	0.71939	  1	0.90000	  0	 12	 30	 31	  0	
21-Apr-2013	sub2323	2323	  1	  1	 41	  2	  1	  3	  5	  3	  1	  2	  0	0.68208	  0	0.90000	  0	 13	 42	 43	  0	
21-Apr-2013	sub2323	2323	  1	  1	 42	  2	  1	  5	  4	  2	  1	  2	  0	0.95671	  0	0.90000	  1	 15	 45	 51	  0	
21-Apr-2013	sub2323	2323	  1	  1	 43	  2	  1	  3	  5	  3	  1	  1	  1	0.60835	  1	0.90000	  0	 13	 32	 33	  0	
21-Apr-2013	sub2323	2323	  1	  1	 44	  2	  1	  6	  6	  3	  0	  1	  1	0.65504	  0	0.90000	  0	 16	 47	 38	  0	
21-Apr-2013	sub2323	2323	  1	  1	 45	  2	  1	  5	  4	  2	  1	  1	  1	0.68102	  1	0.90000	  0	 15	 35	 36	  0	
21-Apr-2013	sub2323	2323	  1	  1	 46	  2	  1	  5	  4	  2	  1	  1	  1	0.61012	  1	0.90000	  0	 15	 35	 36	  0	
21-Apr-2013	sub2323	2323	  1	  1	 47	  2	  1	  4	  2	  1	  1	  2	  1	0.54714	  1	0.90000	  0	 14	 32	 33	  0	
21-Apr-2013	sub2323	2323	  1	  1	 48	  2	  1	  3	  5	  3	  0	  2	  1	0.52707	  0	0.90000	  0	 13	 44	 39	  0	
21-Apr-2013	sub2323	2323	  1	  1	 49	  2	  1	  6	  6	  3	  1	  2	  1	0.50612	  1	0.90000	  0	 16	 35	 36	  0	
21-Apr-2013	sub2323	2323	  1	  1	 50	  2	  1	  2	  1	  6	  1	  2	  1	0.61140	  1	0.90000	  0	 12	 30	 31	  0	
21-Apr-2013	sub2323	2323	  1	  1	 51	  2	  1	  4	  2	  1	  1	  2	  1	0.66091	  1	0.90000	  0	 14	 32	 33	  0	
21-Apr-2013	sub2323	2323	  1	  1	 52	  2	  1	  1	  3	  1	  1	  1	  1	0.58743	  1	0.90000	  0	 11	 30	 31	  0	
21-Apr-2013	sub2323	2323	  1	  1	 53	  2	  1	  6	  6	  3	  1	  1	  0	0.62859	  0	0.90000	  0	 16	 45	 46	  0	
21-Apr-2013	sub2323	2323	  1	  1	 54	  2	  1	  2	  1	  6	  1	  2	  1	0.52097	  1	0.90000	  0	 12	 30	 31	  0	
21-Apr-2013	sub2323	2323	  1	  1	 55	  2	  1	  2	  1	  6	  1	  2	  1	0.48882	  1	0.90000	  0	 12	 30	 31	  1	
21-Apr-2013	sub2323	2323	  1	  1	 56	  2	  1	  3	  5	  3	  0	  2	  1	0.62913	  0	0.90000	  0	 13	 44	 39	  0	
21-Apr-2013	sub2323	2323	  1	  1	 57	  2	  1	  6	  6	  3	  0	  1	  1	0.62730	  0	0.90000	  0	 16	 47	 38	  0	
21-Apr-2013	sub2323	2323	  1	  1	 58	  2	  1	  3	  5	  3	  1	  1	  1	0.62975	  1	0.90000	  0	 13	 32	 33	  0	
21-Apr-2013	sub2323	2323	  1	  1	 59	  2	  1	  1	  3	  1	  1	  1	  1	0.62388	  1	0.80000	  0	 11	 30	 31	  0	
21-Apr-2013	sub2323	2323	  1	  1	 60	  2	  1	  1	  3	  1	  1	  1	  1	0.55070	  1	0.80000	  0	 11	 30	 31	  0	
21-Apr-2013	sub2323	2323	  1	  1	 61	  2	  1	  1	  3	  1	  1	  1	  1	0.49442	  1	0.80000	  0	 11	 30	 31	  1	
21-Apr-2013	sub2323	2323	  1	  1	 62	  2	  1	  6	  6	  3	  1	  1	  0	0.75085	  0	0.80000	  0	 16	 45	 46	  0	
21-Apr-2013	sub2323	2323	  1	  1	 63	  2	  1	  1	  3	  1	  1	  1	  1	0.61155	  1	0.80000	  0	 11	 30	 31	  0	
21-Apr-2013	sub2323	2323	  1	  1	 64	  2	  1	  2	  1	  6	  1	  2	  1	0.44672	  1	0.80000	  0	 12	 30	 31	  1	
21-Apr-2013	sub2323	2323	  1	  1	 65	  2	  1	  6	  6	  3	  0	  2	  0	0.42696	  1	0.80000	  0	 16	 37	 48	  1	
21-Apr-2013	sub2323	2323	  1	  1	 66	  2	  1	  2	  1	  6	  1	  2	  1	0.49646	  1	0.80000	  0	 12	 30	 31	  1	
21-Apr-2013	sub2323	2323	  1	  1	 67	  2	  1	  3	  5	  3	  1	  2	  0	0.52501	  0	0.80000	  0	 13	 42	 43	  0	
21-Apr-2013	sub2323	2323	  1	  1	 68	  2	  1	  6	  6	  3	  0	  2	  0	0.66646	  1	0.70000	  0	 16	 37	 48	  0	
21-Apr-2013	sub2323	2323	  1	  1	 69	  2	  1	  3	  5	  3	  1	  2	  0	0.58718	  0	0.70000	  0	 13	 42	 43	  0	
21-Apr-2013	sub2323	2323	  1	  1	 70	  2	  1	  5	  4	  2	  1	  1	  1	0.65771	  1	0.70000	  0	 15	 35	 36	  0	
21-Apr-2013	sub2323	2323	  1	  1	 71	  2	  1	  6	  6	  3	  1	  1	  0	0.64210	  0	0.70000	  0	 16	 45	 46	  0	
21-Apr-2013	sub2323	2323	  1	  1	 72	  2	  1	  6	  6	  3	  1	  2	  1	0.51775	  1	0.70000	  0	 16	 35	 36	  0	
21-Apr-2013	sub2323	2323	  1	  1	 73	  2	  1	  4	  2	  1	  0	  2	  0	0.45366	  1	0.70000	  0	 14	 34	 49	  1	
21-Apr-2013	sub2323	2323	  1	  1	 74	  2	  1	  2	  1	  6	  1	  2	  1	0.59881	  1	0.70000	  0	 12	 30	 31	  0	
21-Apr-2013	sub2323	2323	  1	  1	 75	  2	  1	  4	  2	  1	  1	  2	  1	0.52082	  1	0.70000	  0	 14	 32	 33	  0	
21-Apr-2013	sub2323	2323	  1	  1	 76	  2	  2	  5	  4	  2	  0	  1	  0	0.62834	  1	0.70000	  0	 25	 67	 88	  0	
21-Apr-2013	sub2323	2323	  1	  1	 77	  2	  2	  1	  3	  1	  1	  1	  1	0.53177	  1	0.70000	  0	 21	 60	 61	  0	
21-Apr-2013	sub2323	2323	  1	  1	 78	  2	  2	  2	  1	  6	  1	  2	  1	0.68806	  1	0.70000	  0	 22	 60	 61	  0	
21-Apr-2013	sub2323	2323	  1	  1	 79	  2	  2	  1	  3	  1	  1	  1	  1	0.55445	  1	0.70000	  0	 21	 60	 61	  0	
21-Apr-2013	sub2323	2323	  1	  1	 80	  2	  2	  1	  3	  1	  1	  1	  1	0.58884	  1	0.70000	  0	 21	 60	 61	  0	
21-Apr-2013	sub2323	2323	  1	  1	 81	  2	  2	  5	  4	  2	  0	  1	  0	0.65601	  1	0.60000	  1	 25	 67	 51	  0	
21-Apr-2013	sub2323	2323	  1	  1	 82	  2	  2	  5	  4	  2	  0	  1	  0	0.52679	  1	0.80000	  0	 25	 67	 88	  0	
21-Apr-2013	sub2323	2323	  1	  1	 83	  2	  2	  4	  2	  1	  1	  2	  1	0.46071	  1	0.80000	  0	 24	 62	 63	  1	
21-Apr-2013	sub2323	2323	  1	  1	 84	  2	  2	  2	  1	  6	  1	  2	  1	0.51895	  1	0.80000	  0	 22	 60	 61	  0	
21-Apr-2013	sub2323	2323	  1	  1	 85	  2	  2	  2	  1	  6	  1	  2	  1	0.45762	  1	0.70000	  0	 22	 60	 61	  1	
21-Apr-2013	sub2323	2323	  1	  1	 86	  2	  2	  4	  2	  1	  1	  2	  1	0.52001	  1	0.70000	  0	 24	 62	 63	  0	
21-Apr-2013	sub2323	2323	  1	  1	 87	  2	  2	  5	  4	  2	  0	  1	  0	0.73495	  1	0.70000	  1	 25	 67	 51	  0	
21-Apr-2013	sub2323	2323	  1	  1	 88	  2	  2	  2	  1	  6	  1	  2	  1	0.58032	  1	0.80000	  0	 22	 60	 61	  0	
21-Apr-2013	sub2323	2323	  1	  1	 89	  2	  2	  3	  5	  3	  1	  2	  0	0.46197	  0	0.80000	  0	 23	 82	 83	  1	
21-Apr-2013	sub2323	2323	  1	  1	 90	  2	  2	  6	  6	  3	  1	  2	  1	0.63252	  1	0.80000	  0	 26	 65	 66	  0	
21-Apr-2013	sub2323	2323	  1	  1	 91	  2	  2	  6	  6	  3	  0	  2	  0	0.49422	  1	0.80000	  0	 26	 67	 88	  1	
21-Apr-2013	sub2323	2323	  1	  1	 92	  2	  2	  5	  4	  2	  0	  2	  1	0.51343	  0	0.80000	  0	 25	 87	 68	  0	
21-Apr-2013	sub2323	2323	  1	  1	 93	  2	  2	  3	  5	  3	  1	  2	  0	0.57478	  0	0.80000	  0	 23	 82	 83	  0	
21-Apr-2013	sub2323	2323	  1	  1	 94	  2	  2	  2	  1	  6	  1	  2	  1	0.74933	  1	0.80000	  0	 22	 60	 61	  0	
21-Apr-2013	sub2323	2323	  1	  1	 95	  2	  2	  4	  2	  1	  1	  2	  1	0.58114	  1	0.80000	  0	 24	 62	 63	  0	
21-Apr-2013	sub2323	2323	  1	  1	 96	  2	  2	  5	  4	  2	  0	  1	  0	0.66320	  1	0.80000	  0	 25	 67	 88	  0	
21-Apr-2013	sub2323	2323	  1	  1	 97	  2	  2	  6	  6	  3	  1	  2	  1	0.56584	  1	0.80000	  0	 26	 65	 66	  0	
21-Apr-2013	sub2323	2323	  1	  1	 98	  2	  2	  5	  4	  2	  0	  2	  1	0.60920	  0	0.80000	  0	 25	 87	 68	  0	
21-Apr-2013	sub2323	2323	  1	  1	 99	  2	  2	  2	  1	  6	  1	  2	  1	0.54566	  1	0.80000	  0	 22	 60	 61	  0	
21-Apr-2013	sub2323	2323	  1	  1	100	  2	  2	  1	  3	  1	  1	  1	  1	0.69983	  1	0.80000	  0	 21	 60	 61	  0	
21-Apr-2013	sub2323	2323	  1	  1	101	  2	  2	  6	  6	  3	  0	  2	  0	0.65530	  1	0.70000	  0	 26	 67	 88	  0	
21-Apr-2013	sub2323	2323	  1	  1	102	  2	  2	  3	  5	  3	  1	  2	  0	0.40857	  0	0.70000	  0	 23	 82	 83	  1	
21-Apr-2013	sub2323	2323	  1	  1	103	  2	  2	  6	  6	  3	  0	  2	  0	0.44947	  1	0.70000	  0	 26	 67	 88	  1	
21-Apr-2013	sub2323	2323	  1	  1	104	  2	  2	  4	  2	  1	  1	  2	  1	0.49907	  1	0.70000	  0	 24	 62	 63	  1	
21-Apr-2013	sub2323	2323	  1	  1	105	  2	  2	  6	  6	  3	  1	  2	  1	0.54731	  1	0.70000	  0	 26	 65	 66	  0	
21-Apr-2013	sub2323	2323	  1	  1	106	  2	  2	  2	  1	  6	  1	  2	  1	0.58379	  1	0.70000	  0	 22	 60	 61	  0	
21-Apr-2013	sub2323	2323	  1	  1	107	  2	  2	  5	  4	  2	  0	  2	  1	0.61908	  0	0.70000	  0	 25	 87	 68	  0	
21-Apr-2013	sub2323	2323	  1	  1	108	  2	  2	  1	  3	  1	  1	  1	  1	0.53695	  1	0.70000	  0	 21	 60	 61	  0	
21-Apr-2013	sub2323	2323	  1	  1	109	  2	  2	  4	  2	  1	  1	  2	  1	0.54439	  1	0.70000	  0	 24	 62	 63	  0	
21-Apr-2013	sub2323	2323	  1	  1	110	  2	  2	  1	  3	  1	  1	  1	  1	0.59052	  1	0.70000	  0	 21	 60	 61	  0	
21-Apr-2013	sub2323	2323	  1	  1	111	  2	  2	  4	  2	  1	  1	  2	  1	0.59238	  1	0.70000	  0	 24	 62	 63	  0	
21-Apr-2013	sub2323	2323	  1	  1	112	  2	  2	  3	  5	  3	  1	  2	  0	0.55433	  0	0.70000	  0	 23	 82	 83	  0	
21-Apr-2013	sub2323	2323	  1	  1	113	  2	  2	  4	  2	  1	  1	  2	  1	0.51363	  1	0.70000	  0	 24	 62	 63	  0	
21-Apr-2013	sub2323	2323	  1	  1	114	  2	  2	  6	  6	  3	  0	  2	  0	0.57225	  1	0.70000	  0	 26	 67	 88	  0	
21-Apr-2013	sub2323	2323	  1	  1	115	  2	  2	  3	  5	  3	  0	  1	  0	2.91926	  1	0.70000	  1	 23	 64	 51	  0	
21-Apr-2013	sub2323	2323	  1	  1	116	  2	  2	  4	  2	  1	  0	  2	  0	0.54172	  1	0.80000	  0	 24	 64	 89	  0	
21-Apr-2013	sub2323	2323	  1	  1	117	  2	  2	  3	  5	  3	  1	  2	  0	0.61441	  0	0.80000	  0	 23	 82	 83	  0	
21-Apr-2013	sub2323	2323	  1	  1	118	  2	  2	  6	  6	  3	  0	  2	  0	0.65257	  1	0.70000	  0	 26	 67	 88	  0	
21-Apr-2013	sub2323	2323	  1	  1	119	  2	  2	  3	  5	  3	  1	  1	  1	0.65439	  1	0.70000	  0	 23	 62	 63	  0	
21-Apr-2013	sub2323	2323	  1	  1	120	  2	  2	  1	  3	  1	  1	  1	  1	0.54325	  1	0.70000	  0	 21	 60	 61	  0	
21-Apr-2013	sub2323	2323	  1	  1	121	  2	  2	  2	  1	  6	  1	  2	  1	0.66670	  1	0.70000	  0	 22	 60	 61	  0	
21-Apr-2013	sub2323	2323	  1	  1	122	  2	  2	  5	  4	  2	  0	  2	  1	0.72607	  0	0.70000	  1	 25	 87	 51	  0	
21-Apr-2013	sub2323	2323	  1	  1	123	  2	  2	  6	  6	  3	  1	  2	  1	0.64080	  1	0.80000	  0	 26	 65	 66	  0	
21-Apr-2013	sub2323	2323	  1	  1	124	  2	  2	  4	  2	  1	  1	  2	  1	0.69566	  1	0.80000	  0	 24	 62	 63	  0	
21-Apr-2013	sub2323	2323	  1	  1	125	  2	  2	  2	  1	  6	  1	  2	  1	0.60961	  1	0.80000	  0	 22	 60	 61	  0	
21-Apr-2013	sub2323	2323	  1	  1	126	  2	  2	  2	  1	  6	  1	  2	  1	0.56113	  1	0.80000	  0	 22	 60	 61	  0	
21-Apr-2013	sub2323	2323	  1	  1	127	  2	  2	  5	  4	  2	  0	  2	  1	0.48682	  0	0.80000	  0	 25	 87	 68	  1	
21-Apr-2013	sub2323	2323	  1	  1	128	  2	  2	  2	  1	  6	  1	  2	  1	0.47976	  1	0.80000	  0	 22	 60	 61	  1	
21-Apr-2013	sub2323	2323	  1	  1	129	  2	  2	  1	  3	  1	  1	  1	  1	0.45131	  1	0.80000	  0	 21	 60	 61	  1	
21-Apr-2013	sub2323	2323	  1	  1	130	  2	  2	  1	  3	  1	  1	  1	  1	0.61768	  1	0.80000	  0	 21	 60	 61	  0	
21-Apr-2013	sub2323	2323	  1	  1	131	  2	  2	  3	  5	  3	  0	  2	  1	0.71999	  0	0.80000	  0	 23	 84	 69	  0	
21-Apr-2013	sub2323	2323	  1	  1	132	  2	  2	  1	  3	  1	  1	  1	  1	0.48696	  1	0.80000	  0	 21	 60	 61	  1	
21-Apr-2013	sub2323	2323	  1	  1	133	  2	  2	  5	  4	  2	  0	  2	  1	0.60663	  0	0.80000	  0	 25	 87	 68	  0	
21-Apr-2013	sub2323	2323	  1	  1	134	  2	  2	  4	  2	  1	  0	  2	  0	0.47248	  1	0.80000	  0	 24	 64	 89	  1	
21-Apr-2013	sub2323	2323	  1	  1	135	  2	  2	  4	  2	  1	  0	  2	  0	0.37501	  1	0.70000	  0	 24	 64	 89	  1	
21-Apr-2013	sub2323	2323	  1	  1	136	  2	  2	  4	  2	  1	  1	  2	  1	0.43158	  1	0.70000	  0	 24	 62	 63	  1	
21-Apr-2013	sub2323	2323	  1	  1	137	  2	  2	  1	  3	  1	  1	  1	  1	0.74720	  1	0.70000	  1	 21	 60	 51	  0	
21-Apr-2013	sub2323	2323	  1	  1	138	  2	  2	  5	  4	  2	  0	  2	  1	0.55514	  0	0.80000	  0	 25	 87	 68	  0	
21-Apr-2013	sub2323	2323	  1	  1	139	  2	  2	  1	  3	  1	  1	  2	  0	0.52383	  0	0.80000	  0	 21	 80	 81	  0	
21-Apr-2013	sub2323	2323	  1	  1	140	  2	  2	  2	  1	  6	  1	  2	  1	0.66239	  1	0.80000	  0	 22	 60	 61	  0	
21-Apr-2013	sub2323	2323	  1	  1	141	  2	  2	  3	  5	  3	  1	  2	  0	0.57224	  0	0.80000	  0	 23	 82	 83	  0	
21-Apr-2013	sub2323	2323	  1	  1	142	  2	  2	  5	  4	  2	  0	  2	  1	0.62180	  0	0.80000	  0	 25	 87	 68	  0	
21-Apr-2013	sub2323	2323	  1	  1	143	  2	  2	  3	  5	  3	  1	  1	  1	0.58992	  1	0.80000	  0	 23	 62	 63	  0	
21-Apr-2013	sub2323	2323	  1	  1	144	  2	  2	  6	  6	  3	  1	  2	  1	0.57503	  1	0.80000	  0	 26	 65	 66	  0	
21-Apr-2013	sub2323	2323	  1	  1	145	  2	  2	  1	  3	  1	  1	  1	  1	0.52644	  1	0.80000	  0	 21	 60	 61	  0	
21-Apr-2013	sub2323	2323	  1	  1	146	  2	  2	  3	  5	  3	  1	  1	  1	0.56716	  1	0.80000	  0	 23	 62	 63	  0	
21-Apr-2013	sub2323	2323	  1	  1	147	  2	  2	  6	  6	  3	  1	  2	  1	0.56720	  1	0.80000	  0	 26	 65	 66	  0	
21-Apr-2013	sub2323	2323	  1	  1	148	  2	  2	  4	  2	  1	  1	  2	  1	0.54855	  1	0.80000	  0	 24	 62	 63	  0	
21-Apr-2013	sub2323	2323	  1	  1	149	  2	  2	  3	  5	  3	  1	  1	  1	0.67070	  1	0.80000	  0	 23	 62	 63	  0	
21-Apr-2013	sub2323	2323	  1	  1	150	  2	  2	  6	  6	  3	  0	  2	  0	0.68254	  1	0.80000	  0	 26	 67	 88	  0	
21-Apr-2013	sub2323	2323	  1	  1	  1	  3	  1	  5	  2	  3	  1	  1	  1	0.75567	  1	0.60000	  1	 15	 35	 51	  0	
21-Apr-2013	sub2323	2323	  1	  1	  2	  3	  1	  2	  3	  3	  1	  1	  0	0.51642	  0	0.90000	  0	 12	 40	 41	  0	
21-Apr-2013	sub2323	2323	  1	  1	  3	  3	  1	  2	  3	  3	  1	  2	  1	0.56988	  1	0.90000	  0	 12	 30	 31	  0	
21-Apr-2013	sub2323	2323	  1	  1	  4	  3	  1	  5	  2	  3	  0	  1	  0	0.94044	  1	0.90000	  1	 15	 37	 51	  0	
21-Apr-2013	sub2323	2323	  1	  1	  5	  3	  1	  5	  2	  3	  0	  2	  1	0.46598	  0	0.90000	  0	 15	 47	 38	  1	
21-Apr-2013	sub2323	2323	  1	  1	  6	  3	  1	  6	  5	  6	  0	  2	  0	0.65786	  1	0.90000	  0	 16	 37	 48	  0	
21-Apr-2013	sub2323	2323	  1	  1	  7	  3	  1	  5	  2	  3	  1	  2	  0	0.62878	  0	0.90000	  0	 15	 45	 46	  0	
21-Apr-2013	sub2323	2323	  1	  1	  8	  3	  1	  4	  1	  1	  1	  2	  1	0.62328	  1	0.90000	  0	 14	 32	 33	  0	
21-Apr-2013	sub2323	2323	  1	  1	  9	  3	  1	  5	  2	  3	  0	  2	  1	0.63140	  0	0.90000	  0	 15	 47	 38	  0	
21-Apr-2013	sub2323	2323	  1	  1	 10	  3	  1	  4	  1	  1	  1	  2	  1	0.58760	  1	0.90000	  0	 14	 32	 33	  0	
21-Apr-2013	sub2323	2323	  1	  1	 11	  3	  1	  2	  3	  3	  1	  2	  1	0.66515	  1	0.90000	  0	 12	 30	 31	  0	
21-Apr-2013	sub2323	2323	  1	  1	 12	  3	  1	  2	  3	  3	  1	  2	  1	0.44283	  1	0.90000	  0	 12	 30	 31	  1	
21-Apr-2013	sub2323	2323	  1	  1	 13	  3	  1	  2	  3	  3	  1	  2	  1	0.47031	  1	0.90000	  0	 12	 30	 31	  1	
21-Apr-2013	sub2323	2323	  1	  1	 14	  3	  1	  6	  5	  6	  0	  2	  0	0.56892	  1	0.90000	  0	 16	 37	 48	  0	
21-Apr-2013	sub2323	2323	  1	  1	 15	  3	  1	  3	  4	  4	  1	  2	  0	0.66560	  0	0.90000	  0	 13	 42	 43	  0	
21-Apr-2013	sub2323	2323	  1	  1	 16	  3	  1	  4	  1	  1	  1	  2	  1	0.55933	  1	0.90000	  0	 14	 32	 33	  0	
21-Apr-2013	sub2323	2323	  1	  1	 17	  3	  1	  5	  2	  3	  1	  2	  0	0.52558	  0	0.90000	  0	 15	 45	 46	  0	
21-Apr-2013	sub2323	2323	  1	  1	 18	  3	  1	  4	  1	  1	  1	  2	  1	0.63066	  1	0.90000	  0	 14	 32	 33	  0	
21-Apr-2013	sub2323	2323	  1	  1	 19	  3	  1	  6	  5	  6	  0	  1	  1	0.68080	  0	0.90000	  0	 16	 47	 38	  0	
21-Apr-2013	sub2323	2323	  1	  1	 20	  3	  1	  5	  2	  3	  1	  1	  1	0.49348	  1	0.90000	  0	 15	 35	 36	  1	
21-Apr-2013	sub2323	2323	  1	  1	 21	  3	  1	  6	  5	  6	  0	  1	  1	0.79555	  0	0.90000	  0	 16	 47	 38	  0	
21-Apr-2013	sub2323	2323	  1	  1	 22	  3	  1	  4	  1	  1	  1	  2	  1	0.64200	  1	0.90000	  0	 14	 32	 33	  0	
21-Apr-2013	sub2323	2323	  1	  1	 23	  3	  1	  2	  3	  3	  1	  2	  1	0.48392	  1	0.90000	  0	 12	 30	 31	  1	
21-Apr-2013	sub2323	2323	  1	  1	 24	  3	  1	  4	  1	  1	  1	  1	  0	0.50150	  0	0.90000	  0	 14	 42	 43	  0	
21-Apr-2013	sub2323	2323	  1	  1	 25	  3	  1	  2	  3	  3	  1	  2	  1	0.36293	  1	0.90000	  0	 12	 30	 31	  1	
21-Apr-2013	sub2323	2323	  1	  1	 26	  3	  1	  6	  5	  6	  0	  1	  1	0.69513	  0	0.90000	  0	 16	 47	 38	  0	
21-Apr-2013	sub2323	2323	  1	  1	 27	  3	  1	  6	  5	  6	  0	  1	  1	0.59812	  0	0.90000	  0	 16	 47	 38	  0	
21-Apr-2013	sub2323	2323	  1	  1	 28	  3	  1	  6	  5	  6	  0	  1	  1	0.50441	  0	0.90000	  0	 16	 47	 38	  0	
21-Apr-2013	sub2323	2323	  1	  1	 29	  3	  1	  3	  4	  4	  1	  1	  1	0.64329	  1	0.90000	  0	 13	 32	 33	  0	
21-Apr-2013	sub2323	2323	  1	  1	 30	  3	  1	  3	  4	  4	  1	  1	  1	0.39001	  1	0.80000	  0	 13	 32	 33	  1	
21-Apr-2013	sub2323	2323	  1	  1	 31	  3	  1	  2	  3	  3	  1	  2	  1	0.52996	  1	0.80000	  0	 12	 30	 31	  0	
21-Apr-2013	sub2323	2323	  1	  1	 32	  3	  1	  1	  6	  6	  1	  1	  1	0.49316	  1	0.80000	  0	 11	 30	 31	  1	
21-Apr-2013	sub2323	2323	  1	  1	 33	  3	  1	  1	  6	  6	  1	  1	  1	0.57942	  1	0.80000	  0	 11	 30	 31	  0	
21-Apr-2013	sub2323	2323	  1	  1	 34	  3	  1	  5	  2	  3	  1	  1	  1	0.62963	  1	0.80000	  0	 15	 35	 36	  0	
21-Apr-2013	sub2323	2323	  1	  1	 35	  3	  1	  6	  5	  6	  1	  1	  0	0.49901	  0	0.70000	  0	 16	 45	 46	  1	
21-Apr-2013	sub2323	2323	  1	  1	 36	  3	  1	  3	  4	  4	  1	  1	  1	0.50762	  1	0.70000	  0	 13	 32	 33	  0	
21-Apr-2013	sub2323	2323	  1	  1	 37	  3	  1	  6	  5	  6	  1	  1	  0	0.41409	  0	0.70000	  0	 16	 45	 46	  1	
21-Apr-2013	sub2323	2323	  1	  1	 38	  3	  1	  1	  6	  6	  1	  1	  1	0.51477	  1	0.70000	  0	 11	 30	 31	  0	
21-Apr-2013	sub2323	2323	  1	  1	 39	  3	  1	  1	  6	  6	  1	  1	  1	0.39998	  1	0.70000	  0	 11	 30	 31	  1	
21-Apr-2013	sub2323	2323	  1	  1	 40	  3	  1	  1	  6	  6	  1	  1	  1	0.48332	  1	0.70000	  0	 11	 30	 31	  1	
21-Apr-2013	sub2323	2323	  1	  1	 41	  3	  1	  3	  4	  4	  1	  1	  1	0.45284	  1	0.60000	  0	 13	 32	 33	  1	
21-Apr-2013	sub2323	2323	  1	  1	 42	  3	  1	  4	  1	  1	  1	  2	  1	0.45881	  1	0.60000	  0	 14	 32	 33	  1	
21-Apr-2013	sub2323	2323	  1	  1	 43	  3	  1	  2	  3	  3	  1	  2	  1	0.38890	  1	0.60000	  0	 12	 30	 31	  1	
21-Apr-2013	sub2323	2323	  1	  1	 44	  3	  1	  5	  2	  3	  0	  1	  0	0.44288	  1	0.60000	  0	 15	 37	 48	  1	
21-Apr-2013	sub2323	2323	  1	  1	 45	  3	  1	  1	  6	  6	  1	  1	  1	0.45861	  1	0.60000	  0	 11	 30	 31	  1	
21-Apr-2013	sub2323	2323	  1	  1	 46	  3	  1	  1	  6	  6	  1	  1	  1	0.36718	  1	0.60000	  0	 11	 30	 31	  1	
21-Apr-2013	sub2323	2323	  1	  1	 47	  3	  1	  4	  1	  1	  0	  2	  0	0.48671	  1	0.60000	  0	 14	 34	 49	  1	
21-Apr-2013	sub2323	2323	  1	  1	 48	  3	  1	  6	  5	  6	  1	  1	  0	0.33613	  0	0.60000	  0	 16	 45	 46	  1	
21-Apr-2013	sub2323	2323	  1	  1	 49	  3	  1	  2	  3	  3	  1	  1	  0	0.41567	  0	0.60000	  0	 12	 40	 41	  1	
21-Apr-2013	sub2323	2323	  1	  1	 50	  3	  1	  3	  4	  4	  0	  1	  0	0.54189	  1	0.60000	  0	 13	 34	 49	  0	
21-Apr-2013	sub2323	2323	  1	  1	 51	  3	  1	  3	  4	  4	  1	  1	  1	0.53253	  1	0.50000	  1	 13	 32	 51	  0	
21-Apr-2013	sub2323	2323	  1	  1	 52	  3	  1	  1	  6	  6	  1	  1	  1	0.44092	  1	0.70000	  0	 11	 30	 31	  1	
21-Apr-2013	sub2323	2323	  1	  1	 53	  3	  1	  3	  4	  4	  1	  1	  1	0.44892	  1	0.70000	  0	 13	 32	 33	  1	
21-Apr-2013	sub2323	2323	  1	  1	 54	  3	  1	  1	  6	  6	  1	  1	  1	0.39064	  1	0.70000	  0	 11	 30	 31	  1	
21-Apr-2013	sub2323	2323	  1	  1	 55	  3	  1	  2	  3	  3	  1	  2	  1	0.44373	  1	0.70000	  0	 12	 30	 31	  1	
21-Apr-2013	sub2323	2323	  1	  1	 56	  3	  1	  4	  1	  1	  0	  2	  0	0.65681	  1	0.70000	  0	 14	 34	 49	  0	
21-Apr-2013	sub2323	2323	  1	  1	 57	  3	  1	  3	  4	  4	  1	  1	  1	0.58461	  1	0.70000	  0	 13	 32	 33	  0	
21-Apr-2013	sub2323	2323	  1	  1	 58	  3	  1	  4	  1	  1	  1	  2	  1	0.44648	  1	0.70000	  0	 14	 32	 33	  1	
21-Apr-2013	sub2323	2323	  1	  1	 59	  3	  1	  4	  1	  1	  1	  2	  1	0.45248	  1	0.70000	  0	 14	 32	 33	  1	
21-Apr-2013	sub2323	2323	  1	  1	 60	  3	  1	  2	  3	  3	  1	  2	  1	0.45643	  1	0.70000	  0	 12	 30	 31	  1	
21-Apr-2013	sub2323	2323	  1	  1	 61	  3	  1	  5	  2	  3	  1	  2	  0	0.40080	  0	0.60000	  0	 15	 45	 46	  1	
21-Apr-2013	sub2323	2323	  1	  1	 62	  3	  1	  5	  2	  3	  0	  1	  0	1.68426	  1	0.60000	  1	 15	 37	 51	  0	
21-Apr-2013	sub2323	2323	  1	  1	 63	  3	  1	  1	  6	  6	  1	  1	  1	0.69679	  1	0.80000	  0	 11	 30	 31	  0	
21-Apr-2013	sub2323	2323	  1	  1	 64	  3	  1	  6	  5	  6	  1	  1	  0	0.51396	  0	0.80000	  0	 16	 45	 46	  0	
21-Apr-2013	sub2323	2323	  1	  1	 65	  3	  1	  1	  6	  6	  1	  1	  1	0.50920	  1	0.80000	  0	 11	 30	 31	  0	
21-Apr-2013	sub2323	2323	  1	  1	 66	  3	  1	  3	  4	  4	  1	  1	  1	0.41256	  1	0.80000	  0	 13	 32	 33	  1	
21-Apr-2013	sub2323	2323	  1	  1	 67	  3	  1	  1	  6	  6	  1	  1	  1	0.47182	  1	0.80000	  0	 11	 30	 31	  1	
21-Apr-2013	sub2323	2323	  1	  1	 68	  3	  1	  5	  2	  3	  1	  1	  1	0.69071	  1	0.70000	  0	 15	 35	 36	  0	
21-Apr-2013	sub2323	2323	  1	  1	 69	  3	  1	  3	  4	  4	  0	  1	  0	0.43634	  1	0.70000	  0	 13	 34	 49	  1	
21-Apr-2013	sub2323	2323	  1	  1	 70	  3	  1	  4	  1	  1	  1	  2	  1	0.50292	  1	0.70000	  0	 14	 32	 33	  0	
21-Apr-2013	sub2323	2323	  1	  1	 71	  3	  1	  6	  5	  6	  1	  1	  0	0.43739	  0	0.70000	  0	 16	 45	 46	  1	
21-Apr-2013	sub2323	2323	  1	  1	 72	  3	  1	  3	  4	  4	  1	  1	  1	0.50966	  1	0.70000	  0	 13	 32	 33	  0	
21-Apr-2013	sub2323	2323	  1	  1	 73	  3	  1	  2	  3	  3	  1	  2	  1	0.59061	  1	0.70000	  0	 12	 30	 31	  0	
21-Apr-2013	sub2323	2323	  1	  1	 74	  3	  1	  3	  4	  4	  0	  2	  1	0.49216	  0	0.70000	  0	 13	 44	 39	  1	
21-Apr-2013	sub2323	2323	  1	  1	 75	  3	  1	  6	  5	  6	  0	  1	  1	0.29288	  0	0.70000	  0	 16	 47	 38	  1	
21-Apr-2013	sub2323	2323	  1	  1	 76	  3	  2	  4	  1	  1	  1	  2	  1	0.53376	  1	0.70000	  0	 24	 62	 63	  0	
21-Apr-2013	sub2323	2323	  1	  1	 77	  3	  2	  4	  1	  1	  1	  2	  1	0.55275	  1	0.70000	  0	 24	 62	 63	  0	
21-Apr-2013	sub2323	2323	  1	  1	 78	  3	  2	  3	  4	  4	  0	  1	  0	0.60074	  1	0.70000	  0	 23	 64	 89	  0	
21-Apr-2013	sub2323	2323	  1	  1	 79	  3	  2	  5	  2	  3	  0	  1	  0	0.62365	  1	0.70000	  0	 25	 67	 88	  0	
21-Apr-2013	sub2323	2323	  1	  1	 80	  3	  2	  3	  4	  4	  1	  1	  1	0.58638	  1	0.70000	  0	 23	 62	 63	  0	
21-Apr-2013	sub2323	2323	  1	  1	 81	  3	  2	  1	  6	  6	  1	  1	  1	0.53111	  1	0.60000	  0	 21	 60	 61	  0	
21-Apr-2013	sub2323	2323	  1	  1	 82	  3	  2	  1	  6	  6	  1	  1	  1	0.48737	  1	0.60000	  0	 21	 60	 61	  1	
21-Apr-2013	sub2323	2323	  1	  1	 83	  3	  2	  3	  4	  4	  1	  1	  1	0.47688	  1	0.60000	  0	 23	 62	 63	  1	
21-Apr-2013	sub2323	2323	  1	  1	 84	  3	  2	  2	  3	  3	  1	  2	  1	0.53492	  1	0.60000	  0	 22	 60	 61	  0	
21-Apr-2013	sub2323	2323	  1	  1	 85	  3	  2	  1	  6	  6	  1	  1	  1	0.59049	  1	0.60000	  0	 21	 60	 61	  0	
21-Apr-2013	sub2323	2323	  1	  1	 86	  3	  2	  1	  6	  6	  1	  1	  1	0.56962	  1	0.60000	  0	 21	 60	 61	  0	
21-Apr-2013	sub2323	2323	  1	  1	 87	  3	  2	  5	  2	  3	  0	  1	  0	0.46045	  1	0.60000	  0	 25	 67	 88	  1	
21-Apr-2013	sub2323	2323	  1	  1	 88	  3	  2	  5	  2	  3	  0	  1	  0	0.48723	  1	0.60000	  0	 25	 67	 88	  1	
21-Apr-2013	sub2323	2323	  1	  1	 89	  3	  2	  6	  5	  6	  1	  2	  1	0.74536	  1	0.60000	  1	 26	 65	 51	  0	
21-Apr-2013	sub2323	2323	  1	  1	 90	  3	  2	  4	  1	  1	  0	  2	  0	0.52593	  1	0.70000	  0	 24	 64	 89	  0	
21-Apr-2013	sub2323	2323	  1	  1	 91	  3	  2	  3	  4	  4	  1	  1	  1	0.57921	  1	0.70000	  0	 23	 62	 63	  0	
21-Apr-2013	sub2323	2323	  1	  1	 92	  3	  2	  3	  4	  4	  1	  1	  1	0.53028	  1	0.70000	  0	 23	 62	 63	  0	
21-Apr-2013	sub2323	2323	  1	  1	 93	  3	  2	  2	  3	  3	  1	  1	  0	0.25364	  0	0.70000	  0	 22	 80	 81	  1	
21-Apr-2013	sub2323	2323	  1	  1	 94	  3	  2	  4	  1	  1	  1	  2	  1	0.57492	  1	0.70000	  0	 24	 62	 63	  0	
21-Apr-2013	sub2323	2323	  1	  1	 95	  3	  2	  4	  1	  1	  0	  2	  0	0.48712	  1	0.70000	  0	 24	 64	 89	  1	
21-Apr-2013	sub2323	2323	  1	  1	 96	  3	  2	  1	  6	  6	  1	  1	  1	0.53730	  1	0.70000	  0	 21	 60	 61	  0	
21-Apr-2013	sub2323	2323	  1	  1	 97	  3	  2	  1	  6	  6	  1	  1	  1	0.50566	  1	0.70000	  0	 21	 60	 61	  0	
21-Apr-2013	sub2323	2323	  1	  1	 98	  3	  2	  1	  6	  6	  1	  1	  1	0.56813	  1	0.70000	  0	 21	 60	 61	  0	
21-Apr-2013	sub2323	2323	  1	  1	 99	  3	  2	  6	  5	  6	  0	  1	  1	0.59808	  0	0.70000	  0	 26	 87	 68	  0	
21-Apr-2013	sub2323	2323	  1	  1	100	  3	  2	  5	  2	  3	  0	  1	  0	0.70013	  1	0.70000	  1	 25	 67	 51	  0	
21-Apr-2013	sub2323	2323	  1	  1	101	  3	  2	  3	  4	  4	  1	  1	  1	0.62244	  1	0.70000	  0	 23	 62	 63	  0	
21-Apr-2013	sub2323	2323	  1	  1	102	  3	  2	  4	  1	  1	  1	  2	  1	0.55758	  1	0.70000	  0	 24	 62	 63	  0	
21-Apr-2013	sub2323	2323	  1	  1	103	  3	  2	  3	  4	  4	  0	  1	  0	0.58147	  1	0.70000	  0	 23	 64	 89	  0	
21-Apr-2013	sub2323	2323	  1	  1	104	  3	  2	  5	  2	  3	  0	  1	  0	0.56444	  1	0.70000	  0	 25	 67	 88	  0	
21-Apr-2013	sub2323	2323	  1	  1	105	  3	  2	  5	  2	  3	  0	  2	  1	0.57297	  0	0.70000	  0	 25	 87	 68	  0	
21-Apr-2013	sub2323	2323	  1	  1	106	  3	  2	  3	  4	  4	  1	  1	  1	0.99258	  1	0.70000	  1	 23	 62	 51	  0	
21-Apr-2013	sub2323	2323	  1	  1	107	  3	  2	  2	  3	  3	  1	  2	  1	0.57843	  1	0.80000	  0	 22	 60	 61	  0	
21-Apr-2013	sub2323	2323	  1	  1	108	  3	  2	  5	  2	  3	  0	  2	  1	0.55751	  0	0.80000	  0	 25	 87	 68	  0	
21-Apr-2013	sub2323	2323	  1	  1	109	  3	  2	  6	  5	  6	  0	  1	  1	0.74712	  0	0.80000	  0	 26	 87	 68	  0	
21-Apr-2013	sub2323	2323	  1	  1	110	  3	  2	  2	  3	  3	  1	  2	  1	0.62658	  1	0.80000	  0	 22	 60	 61	  0	
21-Apr-2013	sub2323	2323	  1	  1	111	  3	  2	  3	  4	  4	  1	  1	  1	0.58458	  1	0.80000	  0	 23	 62	 63	  0	
21-Apr-2013	sub2323	2323	  1	  1	112	  3	  2	  5	  2	  3	  0	  2	  1	0.52750	  0	0.80000	  0	 25	 87	 68	  0	
21-Apr-2013	sub2323	2323	  1	  1	113	  3	  2	  4	  1	  1	  1	  2	  1	0.52898	  1	0.80000	  0	 24	 62	 63	  0	
21-Apr-2013	sub2323	2323	  1	  1	114	  3	  2	  2	  3	  3	  1	  2	  1	0.41725	  1	0.80000	  0	 22	 60	 61	  1	
21-Apr-2013	sub2323	2323	  1	  1	115	  3	  2	  2	  3	  3	  1	  2	  1	0.63574	  1	0.80000	  0	 22	 60	 61	  0	
21-Apr-2013	sub2323	2323	  1	  1	116	  3	  2	  6	  5	  6	  1	  1	  0	0.60364	  0	0.80000	  0	 26	 85	 86	  0	
21-Apr-2013	sub2323	2323	  1	  1	117	  3	  2	  1	  6	  6	  1	  1	  1	0.55827	  1	0.80000	  0	 21	 60	 61	  0	
21-Apr-2013	sub2323	2323	  1	  1	118	  3	  2	  1	  6	  6	  1	  1	  1	0.51676	  1	0.70000	  0	 21	 60	 61	  0	
21-Apr-2013	sub2323	2323	  1	  1	119	  3	  2	  2	  3	  3	  1	  2	  1	0.41973	  1	0.70000	  0	 22	 60	 61	  1	
21-Apr-2013	sub2323	2323	  1	  1	120	  3	  2	  2	  3	  3	  1	  2	  1	0.37206	  1	0.70000	  0	 22	 60	 61	  1	
21-Apr-2013	sub2323	2323	  1	  1	121	  3	  2	  1	  6	  6	  1	  1	  1	0.59180	  1	0.70000	  0	 21	 60	 61	  0	
21-Apr-2013	sub2323	2323	  1	  1	122	  3	  2	  5	  2	  3	  0	  2	  1	0.50171	  0	0.70000	  0	 25	 87	 68	  0	
21-Apr-2013	sub2323	2323	  1	  1	123	  3	  2	  1	  6	  6	  1	  1	  1	0.54806	  1	0.70000	  0	 21	 60	 61	  0	
21-Apr-2013	sub2323	2323	  1	  1	124	  3	  2	  6	  5	  6	  1	  2	  1	0.31155	  1	0.70000	  0	 26	 65	 66	  1	
21-Apr-2013	sub2323	2323	  1	  1	125	  3	  2	  4	  1	  1	  0	  2	  0	0.57625	  1	0.70000	  0	 24	 64	 89	  0	
21-Apr-2013	sub2323	2323	  1	  1	126	  3	  2	  5	  2	  3	  0	  2	  1	0.54065	  0	0.70000	  0	 25	 87	 68	  0	
21-Apr-2013	sub2323	2323	  1	  1	127	  3	  2	  4	  1	  1	  1	  2	  1	0.49710	  1	0.70000	  0	 24	 62	 63	  1	
21-Apr-2013	sub2323	2323	  1	  1	128	  3	  2	  3	  4	  4	  1	  1	  1	0.60104	  1	0.70000	  0	 23	 62	 63	  0	
21-Apr-2013	sub2323	2323	  1	  1	129	  3	  2	  6	  5	  6	  0	  1	  1	0.60733	  0	0.70000	  0	 26	 87	 68	  0	
21-Apr-2013	sub2323	2323	  1	  1	130	  3	  2	  6	  5	  6	  0	  1	  1	0.45129	  0	0.70000	  0	 26	 87	 68	  1	
21-Apr-2013	sub2323	2323	  1	  1	131	  3	  2	  1	  6	  6	  1	  1	  1	0.61530	  1	0.70000	  0	 21	 60	 61	  0	
21-Apr-2013	sub2323	2323	  1	  1	132	  3	  2	  6	  5	  6	  1	  1	  0	0.56000	  0	0.70000	  0	 26	 85	 86	  0	
21-Apr-2013	sub2323	2323	  1	  1	133	  3	  2	  2	  3	  3	  1	  2	  1	0.53203	  1	0.70000	  0	 22	 60	 61	  0	
21-Apr-2013	sub2323	2323	  1	  1	134	  3	  2	  3	  4	  4	  1	  1	  1	0.67321	  1	0.70000	  0	 23	 62	 63	  0	
21-Apr-2013	sub2323	2323	  1	  1	135	  3	  2	  6	  5	  6	  0	  1	  1	0.54145	  0	0.70000	  0	 26	 87	 68	  0	
21-Apr-2013	sub2323	2323	  1	  1	136	  3	  2	  5	  2	  3	  0	  2	  1	0.56603	  0	0.70000	  0	 25	 87	 68	  0	
21-Apr-2013	sub2323	2323	  1	  1	137	  3	  2	  3	  4	  4	  1	  1	  1	0.48237	  1	0.70000	  0	 23	 62	 63	  1	
21-Apr-2013	sub2323	2323	  1	  1	138	  3	  2	  1	  6	  6	  1	  1	  1	0.62224	  1	0.70000	  0	 21	 60	 61	  0	
21-Apr-2013	sub2323	2323	  1	  1	139	  3	  2	  2	  3	  3	  1	  2	  1	0.40660	  1	0.70000	  0	 22	 60	 61	  1	
21-Apr-2013	sub2323	2323	  1	  1	140	  3	  2	  6	  5	  6	  1	  1	  0	0.66009	  0	0.70000	  0	 26	 85	 86	  0	
21-Apr-2013	sub2323	2323	  1	  1	141	  3	  2	  6	  5	  6	  1	  1	  0	0.60812	  0	0.60000	  1	 26	 85	 51	  0	
21-Apr-2013	sub2323	2323	  1	  1	142	  3	  2	  5	  2	  3	  0	  2	  1	0.60076	  0	0.70000	  0	 25	 87	 68	  0	
21-Apr-2013	sub2323	2323	  1	  1	143	  3	  2	  5	  2	  3	  0	  2	  1	0.43443	  0	0.70000	  0	 25	 87	 68	  1	
21-Apr-2013	sub2323	2323	  1	  1	144	  3	  2	  4	  1	  1	  1	  2	  1	0.50693	  1	0.70000	  0	 24	 62	 63	  0	
21-Apr-2013	sub2323	2323	  1	  1	145	  3	  2	  4	  1	  1	  1	  2	  1	0.49555	  1	0.70000	  0	 24	 62	 63	  1	
21-Apr-2013	sub2323	2323	  1	  1	146	  3	  2	  4	  1	  1	  1	  2	  1	0.51557	  1	0.70000	  0	 24	 62	 63	  0	
21-Apr-2013	sub2323	2323	  1	  1	147	  3	  2	  2	  3	  3	  1	  2	  1	0.49874	  1	0.70000	  0	 22	 60	 61	  1	
21-Apr-2013	sub2323	2323	  1	  1	148	  3	  2	  4	  1	  1	  1	  2	  1	0.41730	  1	0.70000	  0	 24	 62	 63	  1	
21-Apr-2013	sub2323	2323	  1	  1	149	  3	  2	  2	  3	  3	  1	  2	  1	0.46572	  1	0.70000	  0	 22	 60	 61	  1	
21-Apr-2013	sub2323	2323	  1	  1	150	  3	  2	  6	  5	  6	  0	  1	  1	0.58183	  0	0.70000	  0	 26	 87	 68	  0	
21-Apr-2013	sub2323	2323	  1	  1	  1	  4	  1	  3	  2	  5	  1	  2	  0	1.14908	  0	0.60000	  1	 13	 42	 51	  0	
21-Apr-2013	sub2323	2323	  1	  1	  2	  4	  1	  4	  4	  5	  1	  2	  1	0.56577	  1	0.90000	  0	 14	 32	 33	  0	
21-Apr-2013	sub2323	2323	  1	  1	  3	  4	  1	  6	  5	  2	  1	  2	  1	0.66476	  1	0.90000	  0	 16	 35	 36	  0	
21-Apr-2013	sub2323	2323	  1	  1	  4	  4	  1	  1	  3	  5	  1	  2	  0	0.51097	  0	0.90000	  0	 11	 40	 41	  0	
21-Apr-2013	sub2323	2323	  1	  1	  5	  4	  1	  1	  3	  5	  1	  2	  0	0.62312	  0	0.90000	  0	 11	 40	 41	  0	
21-Apr-2013	sub2323	2323	  1	  1	  6	  4	  1	  5	  1	  5	  0	  2	  1	0.67922	  0	0.90000	  0	 15	 47	 38	  0	
21-Apr-2013	sub2323	2323	  1	  1	  7	  4	  1	  3	  2	  5	  1	  1	  1	4.39292	  1	0.90000	  1	 13	 32	 51	  0	
21-Apr-2013	sub2323	2323	  1	  1	  8	  4	  1	  5	  1	  5	  0	  2	  1	1.65628	  0	0.90000	  1	 15	 47	 51	  0	
21-Apr-2013	sub2323	2323	  1	  1	  9	  4	  1	  3	  2	  5	  1	  1	  1	0.94788	  1	0.90000	  1	 13	 32	 51	  0	
21-Apr-2013	sub2323	2323	  1	  1	 10	  4	  1	  1	  3	  5	  1	  2	  0	0.71836	  0	0.90000	  0	 11	 40	 41	  0	
21-Apr-2013	sub2323	2323	  1	  1	 11	  4	  1	  5	  1	  5	  0	  2	  1	0.53082	  0	0.90000	  0	 15	 47	 38	  0	
21-Apr-2013	sub2323	2323	  1	  1	 12	  4	  1	  6	  5	  2	  0	  2	  0	0.56019	  1	0.90000	  0	 16	 37	 48	  0	
21-Apr-2013	sub2323	2323	  1	  1	 13	  4	  1	  4	  4	  5	  1	  2	  1	0.54758	  1	0.90000	  0	 14	 32	 33	  0	
21-Apr-2013	sub2323	2323	  1	  1	 14	  4	  1	  3	  2	  5	  0	  1	  0	0.63830	  1	0.90000	  0	 13	 34	 49	  0	
21-Apr-2013	sub2323	2323	  1	  1	 15	  4	  1	  3	  2	  5	  0	  1	  0	0.49771	  1	0.90000	  0	 13	 34	 49	  1	
21-Apr-2013	sub2323	2323	  1	  1	 16	  4	  1	  5	  1	  5	  1	  2	  0	0.62306	  0	0.90000	  0	 15	 45	 46	  0	
21-Apr-2013	sub2323	2323	  1	  1	 17	  4	  1	  6	  5	  2	  1	  2	  1	0.64893	  1	0.90000	  0	 16	 35	 36	  0	
21-Apr-2013	sub2323	2323	  1	  1	 18	  4	  1	  6	  5	  2	  0	  2	  0	0.65888	  1	0.90000	  0	 16	 37	 48	  0	
21-Apr-2013	sub2323	2323	  1	  1	 19	  4	  1	  6	  5	  2	  1	  2	  1	0.58185	  1	0.90000	  0	 16	 35	 36	  0	
21-Apr-2013	sub2323	2323	  1	  1	 20	  4	  1	  3	  2	  5	  1	  2	  0	0.62173	  0	0.90000	  0	 13	 42	 43	  0	
21-Apr-2013	sub2323	2323	  1	  1	 21	  4	  1	  2	  6	  2	  1	  1	  0	0.70145	  0	0.90000	  0	 12	 40	 41	  0	
21-Apr-2013	sub2323	2323	  1	  1	 22	  4	  1	  6	  5	  2	  0	  2	  0	0.59852	  1	0.90000	  0	 16	 37	 48	  0	
21-Apr-2013	sub2323	2323	  1	  1	 23	  4	  1	  6	  5	  2	  1	  2	  1	0.39231	  1	0.90000	  0	 16	 35	 36	  1	
21-Apr-2013	sub2323	2323	  1	  1	 24	  4	  1	  2	  6	  2	  1	  1	  0	0.80031	  0	0.90000	  0	 12	 40	 41	  0	
21-Apr-2013	sub2323	2323	  1	  1	 25	  4	  1	  2	  6	  2	  1	  2	  1	0.78060	  1	0.90000	  0	 12	 30	 31	  0	
21-Apr-2013	sub2323	2323	  1	  1	 26	  4	  1	  5	  1	  5	  1	  2	  0	0.85554	  0	0.90000	  0	 15	 45	 46	  0	
21-Apr-2013	sub2323	2323	  1	  1	 27	  4	  1	  1	  3	  5	  1	  1	  1	0.85916	  1	0.90000	  0	 11	 30	 31	  0	
21-Apr-2013	sub2323	2323	  1	  1	 28	  4	  1	  6	  5	  2	  1	  2	  1	0.71060	  1	0.90000	  0	 16	 35	 36	  0	
21-Apr-2013	sub2323	2323	  1	  1	 29	  4	  1	  4	  4	  5	  1	  2	  1	1.10327	  1	0.90000	  1	 14	 32	 51	  0	
21-Apr-2013	sub2323	2323	  1	  1	 30	  4	  1	  2	  6	  2	  1	  2	  1	0.60176	  1	0.90000	  0	 12	 30	 31	  0	
21-Apr-2013	sub2323	2323	  1	  1	 31	  4	  1	  4	  4	  5	  1	  1	  0	0.96603	  0	0.90000	  1	 14	 42	 51	  0	
21-Apr-2013	sub2323	2323	  1	  1	 32	  4	  1	  4	  4	  5	  1	  2	  1	0.54698	  1	0.90000	  0	 14	 32	 33	  0	
21-Apr-2013	sub2323	2323	  1	  1	 33	  4	  1	  4	  4	  5	  1	  2	  1	0.56118	  1	0.90000	  0	 14	 32	 33	  0	
21-Apr-2013	sub2323	2323	  1	  1	 34	  4	  1	  1	  3	  5	  1	  1	  1	0.68891	  1	0.90000	  0	 11	 30	 31	  0	
21-Apr-2013	sub2323	2323	  1	  1	 35	  4	  1	  1	  3	  5	  1	  1	  1	0.58576	  1	0.90000	  0	 11	 30	 31	  0	
21-Apr-2013	sub2323	2323	  1	  1	 36	  4	  1	  6	  5	  2	  1	  2	  1	0.62824	  1	0.90000	  0	 16	 35	 36	  0	
21-Apr-2013	sub2323	2323	  1	  1	 37	  4	  1	  3	  2	  5	  1	  2	  0	0.64017	  0	0.90000	  0	 13	 42	 43	  0	
21-Apr-2013	sub2323	2323	  1	  1	 38	  4	  1	  5	  1	  5	  0	  2	  1	1.12714	  0	0.90000	  1	 15	 47	 51	  0	
21-Apr-2013	sub2323	2323	  1	  1	 39	  4	  1	  4	  4	  5	  0	  1	  1	0.69648	  0	0.90000	  0	 14	 44	 39	  0	
21-Apr-2013	sub2323	2323	  1	  1	 40	  4	  1	  6	  5	  2	  0	  2	  0	0.45267	  1	0.90000	  0	 16	 37	 48	  1	
21-Apr-2013	sub2323	2323	  1	  1	 41	  4	  1	  2	  6	  2	  1	  2	  1	0.54358	  1	0.90000	  0	 12	 30	 31	  0	
21-Apr-2013	sub2323	2323	  1	  1	 42	  4	  1	  5	  1	  5	  1	  1	  1	1.00474	  1	0.90000	  1	 15	 35	 51	  0	
21-Apr-2013	sub2323	2323	  1	  1	 43	  4	  1	  1	  3	  5	  1	  1	  1	0.69922	  1	0.90000	  0	 11	 30	 31	  0	
21-Apr-2013	sub2323	2323	  1	  1	 44	  4	  1	  6	  5	  2	  0	  2	  0	0.62100	  1	0.90000	  0	 16	 37	 48	  0	
21-Apr-2013	sub2323	2323	  1	  1	 45	  4	  1	  1	  3	  5	  1	  1	  1	0.71267	  1	0.90000	  0	 11	 30	 31	  0	
21-Apr-2013	sub2323	2323	  1	  1	 46	  4	  1	  5	  1	  5	  0	  2	  1	0.66267	  0	0.90000	  0	 15	 47	 38	  0	
21-Apr-2013	sub2323	2323	  1	  1	 47	  4	  1	  4	  4	  5	  1	  2	  1	0.56346	  1	0.90000	  0	 14	 32	 33	  0	
21-Apr-2013	sub2323	2323	  1	  1	 48	  4	  1	  3	  2	  5	  1	  2	  0	0.60328	  0	0.90000	  0	 13	 42	 43	  0	
21-Apr-2013	sub2323	2323	  1	  1	 49	  4	  1	  3	  2	  5	  1	  1	  1	0.52434	  1	0.90000	  0	 13	 32	 33	  0	
21-Apr-2013	sub2323	2323	  1	  1	 50	  4	  1	  3	  2	  5	  0	  1	  0	0.71572	  1	0.90000	  0	 13	 34	 49	  0	
21-Apr-2013	sub2323	2323	  1	  1	 51	  4	  1	  4	  4	  5	  1	  1	  0	0.84300	  0	0.90000	  0	 14	 42	 43	  0	
21-Apr-2013	sub2323	2323	  1	  1	 52	  4	  1	  4	  4	  5	  0	  2	  0	0.65086	  1	0.90000	  0	 14	 34	 49	  0	
21-Apr-2013	sub2323	2323	  1	  1	 53	  4	  1	  2	  6	  2	  1	  2	  1	0.63626	  1	0.90000	  0	 12	 30	 31	  0	
21-Apr-2013	sub2323	2323	  1	  1	 54	  4	  1	  3	  2	  5	  1	  2	  0	0.60371	  0	0.90000	  0	 13	 42	 43	  0	
21-Apr-2013	sub2323	2323	  1	  1	 55	  4	  1	  2	  6	  2	  1	  2	  1	0.66606	  1	0.90000	  0	 12	 30	 31	  0	
21-Apr-2013	sub2323	2323	  1	  1	 56	  4	  1	  6	  5	  2	  1	  2	  1	0.59962	  1	0.90000	  0	 16	 35	 36	  0	
21-Apr-2013	sub2323	2323	  1	  1	 57	  4	  1	  5	  1	  5	  0	  2	  1	0.96055	  0	0.90000	  1	 15	 47	 51	  0	
21-Apr-2013	sub2323	2323	  1	  1	 58	  4	  1	  1	  3	  5	  1	  1	  1	0.64837	  1	0.90000	  0	 11	 30	 31	  0	
21-Apr-2013	sub2323	2323	  1	  1	 59	  4	  1	  1	  3	  5	  1	  1	  1	0.50749	  1	0.90000	  0	 11	 30	 31	  0	
21-Apr-2013	sub2323	2323	  1	  1	 60	  4	  1	  1	  3	  5	  1	  1	  1	0.48803	  1	0.90000	  0	 11	 30	 31	  1	
21-Apr-2013	sub2323	2323	  1	  1	 61	  4	  1	  6	  5	  2	  0	  2	  0	0.57636	  1	0.90000	  0	 16	 37	 48	  0	
21-Apr-2013	sub2323	2323	  1	  1	 62	  4	  1	  5	  1	  5	  1	  2	  0	0.93582	  0	0.90000	  1	 15	 45	 51	  0	
21-Apr-2013	sub2323	2323	  1	  1	 63	  4	  1	  2	  6	  2	  1	  2	  1	0.55418	  1	0.90000	  0	 12	 30	 31	  0	
21-Apr-2013	sub2323	2323	  1	  1	 64	  4	  1	  3	  2	  5	  1	  2	  0	0.65569	  0	0.90000	  0	 13	 42	 43	  0	
21-Apr-2013	sub2323	2323	  1	  1	 65	  4	  1	  2	  6	  2	  1	  2	  1	0.56588	  1	0.90000	  0	 12	 30	 31	  0	
21-Apr-2013	sub2323	2323	  1	  1	 66	  4	  1	  5	  1	  5	  1	  2	  0	0.71438	  0	0.90000	  0	 15	 45	 46	  0	
21-Apr-2013	sub2323	2323	  1	  1	 67	  4	  1	  2	  6	  2	  1	  2	  1	0.61382	  1	0.90000	  0	 12	 30	 31	  0	
21-Apr-2013	sub2323	2323	  1	  1	 68	  4	  1	  2	  6	  2	  1	  2	  1	0.50963	  1	0.90000	  0	 12	 30	 31	  0	
21-Apr-2013	sub2323	2323	  1	  1	 69	  4	  1	  4	  4	  5	  1	  1	  0	0.87291	  0	0.90000	  0	 14	 42	 43	  0	
21-Apr-2013	sub2323	2323	  1	  1	 70	  4	  1	  5	  1	  5	  1	  1	  1	1.04455	  1	0.90000	  1	 15	 35	 51	  0	
21-Apr-2013	sub2323	2323	  1	  1	 71	  4	  1	  3	  2	  5	  1	  1	  1	1.57547	  1	0.90000	  1	 13	 32	 51	  0	
21-Apr-2013	sub2323	2323	  1	  1	 72	  4	  1	  2	  6	  2	  1	  2	  1	0.58811	  1	0.90000	  0	 12	 30	 31	  0	
21-Apr-2013	sub2323	2323	  1	  1	 73	  4	  1	  1	  3	  5	  1	  1	  1	0.69791	  1	0.90000	  0	 11	 30	 31	  0	
21-Apr-2013	sub2323	2323	  1	  1	 74	  4	  1	  4	  4	  5	  1	  2	  1	0.71757	  1	0.90000	  0	 14	 32	 33	  0	
21-Apr-2013	sub2323	2323	  1	  1	 75	  4	  1	  2	  6	  2	  1	  2	  1	0.49932	  1	0.90000	  0	 12	 30	 31	  1	
21-Apr-2013	sub2323	2323	  1	  1	 76	  4	  2	  1	  3	  5	  1	  1	  1	0.70472	  1	0.90000	  0	 21	 60	 61	  0	
21-Apr-2013	sub2323	2323	  1	  1	 77	  4	  2	  3	  2	  5	  1	  1	  1	0.68496	  1	0.90000	  0	 23	 62	 63	  0	
21-Apr-2013	sub2323	2323	  1	  1	 78	  4	  2	  3	  2	  5	  1	  1	  1	0.50665	  1	0.90000	  0	 23	 62	 63	  0	
21-Apr-2013	sub2323	2323	  1	  1	 79	  4	  2	  2	  6	  2	  1	  2	  1	0.55981	  1	0.90000	  0	 22	 60	 61	  0	
21-Apr-2013	sub2323	2323	  1	  1	 80	  4	  2	  6	  5	  2	  1	  2	  1	0.56704	  1	0.90000	  0	 26	 65	 66	  0	
21-Apr-2013	sub2323	2323	  1	  1	 81	  4	  2	  3	  2	  5	  1	  1	  1	0.62185	  1	0.90000	  0	 23	 62	 63	  0	
21-Apr-2013	sub2323	2323	  1	  1	 82	  4	  2	  3	  2	  5	  1	  1	  1	0.45425	  1	0.90000	  0	 23	 62	 63	  1	
21-Apr-2013	sub2323	2323	  1	  1	 83	  4	  2	  2	  6	  2	  1	  2	  1	0.54141	  1	0.90000	  0	 22	 60	 61	  0	
21-Apr-2013	sub2323	2323	  1	  1	 84	  4	  2	  4	  4	  5	  1	  2	  1	0.61728	  1	0.90000	  0	 24	 62	 63	  0	
21-Apr-2013	sub2323	2323	  1	  1	 85	  4	  2	  5	  1	  5	  0	  1	  0	0.70933	  1	0.90000	  0	 25	 67	 88	  0	
21-Apr-2013	sub2323	2323	  1	  1	 86	  4	  2	  6	  5	  2	  1	  2	  1	0.57562	  1	0.90000	  0	 26	 65	 66	  0	
21-Apr-2013	sub2323	2323	  1	  1	 87	  4	  2	  2	  6	  2	  1	  2	  1	0.57104	  1	0.90000	  0	 22	 60	 61	  0	
21-Apr-2013	sub2323	2323	  1	  1	 88	  4	  2	  4	  4	  5	  1	  2	  1	0.50384	  1	0.90000	  0	 24	 62	 63	  0	
21-Apr-2013	sub2323	2323	  1	  1	 89	  4	  2	  6	  5	  2	  0	  2	  0	0.52722	  1	0.90000	  0	 26	 67	 88	  0	
21-Apr-2013	sub2323	2323	  1	  1	 90	  4	  2	  2	  6	  2	  1	  2	  1	0.65433	  1	0.90000	  0	 22	 60	 61	  0	
21-Apr-2013	sub2323	2323	  1	  1	 91	  4	  2	  5	  1	  5	  0	  2	  1	0.75997	  0	0.90000	  0	 25	 87	 68	  0	
21-Apr-2013	sub2323	2323	  1	  1	 92	  4	  2	  5	  1	  5	  0	  2	  1	0.44583	  0	0.90000	  0	 25	 87	 68	  1	
21-Apr-2013	sub2323	2323	  1	  1	 93	  4	  2	  3	  2	  5	  1	  1	  1	0.70197	  1	0.90000	  0	 23	 62	 63	  0	
21-Apr-2013	sub2323	2323	  1	  1	 94	  4	  2	  2	  6	  2	  1	  2	  1	0.56723	  1	0.90000	  0	 22	 60	 61	  0	
21-Apr-2013	sub2323	2323	  1	  1	 95	  4	  2	  6	  5	  2	  1	  2	  1	0.53415	  1	0.90000	  0	 26	 65	 66	  0	
21-Apr-2013	sub2323	2323	  1	  1	 96	  4	  2	  5	  1	  5	  0	  2	  1	0.46965	  0	0.90000	  0	 25	 87	 68	  1	
21-Apr-2013	sub2323	2323	  1	  1	 97	  4	  2	  5	  1	  5	  0	  2	  1	0.48863	  0	0.90000	  0	 25	 87	 68	  1	
21-Apr-2013	sub2323	2323	  1	  1	 98	  4	  2	  3	  2	  5	  0	  2	  1	0.46852	  0	0.90000	  0	 23	 84	 69	  1	
21-Apr-2013	sub2323	2323	  1	  1	 99	  4	  2	  1	  3	  5	  1	  1	  1	0.51248	  1	0.90000	  0	 21	 60	 61	  0	
21-Apr-2013	sub2323	2323	  1	  1	100	  4	  2	  5	  1	  5	  0	  2	  1	0.61996	  0	0.90000	  0	 25	 87	 68	  0	
21-Apr-2013	sub2323	2323	  1	  1	101	  4	  2	  2	  6	  2	  1	  2	  1	0.59322	  1	0.90000	  0	 22	 60	 61	  0	
21-Apr-2013	sub2323	2323	  1	  1	102	  4	  2	  3	  2	  5	  1	  1	  1	0.51352	  1	0.90000	  0	 23	 62	 63	  0	
21-Apr-2013	sub2323	2323	  1	  1	103	  4	  2	  3	  2	  5	  0	  1	  0	0.49320	  1	0.90000	  0	 23	 64	 89	  1	
21-Apr-2013	sub2323	2323	  1	  1	104	  4	  2	  1	  3	  5	  1	  1	  1	0.43987	  1	0.90000	  0	 21	 60	 61	  1	
21-Apr-2013	sub2323	2323	  1	  1	105	  4	  2	  5	  1	  5	  0	  2	  1	0.58230	  0	0.90000	  0	 25	 87	 68	  0	
21-Apr-2013	sub2323	2323	  1	  1	106	  4	  2	  1	  3	  5	  1	  1	  1	0.56604	  1	0.90000	  0	 21	 60	 61	  0	
21-Apr-2013	sub2323	2323	  1	  1	107	  4	  2	  1	  3	  5	  1	  1	  1	0.44981	  1	0.90000	  0	 21	 60	 61	  1	
21-Apr-2013	sub2323	2323	  1	  1	108	  4	  2	  2	  6	  2	  1	  2	  1	0.64648	  1	0.90000	  0	 22	 60	 61	  0	
21-Apr-2013	sub2323	2323	  1	  1	109	  4	  2	  4	  4	  5	  1	  2	  1	0.59351	  1	0.90000	  0	 24	 62	 63	  0	
21-Apr-2013	sub2323	2323	  1	  1	110	  4	  2	  2	  6	  2	  1	  1	  0	0.64386	  0	0.90000	  0	 22	 80	 81	  0	
21-Apr-2013	sub2323	2323	  1	  1	111	  4	  2	  1	  3	  5	  1	  1	  1	0.56392	  1	0.90000	  0	 21	 60	 61	  0	
21-Apr-2013	sub2323	2323	  1	  1	112	  4	  2	  6	  5	  2	  0	  2	  0	0.65969	  1	0.90000	  0	 26	 67	 88	  0	
21-Apr-2013	sub2323	2323	  1	  1	113	  4	  2	  4	  4	  5	  0	  2	  0	0.75899	  1	0.90000	  0	 24	 64	 89	  0	
21-Apr-2013	sub2323	2323	  1	  1	114	  4	  2	  2	  6	  2	  1	  2	  1	0.56038	  1	0.90000	  0	 22	 60	 61	  0	
21-Apr-2013	sub2323	2323	  1	  1	115	  4	  2	  4	  4	  5	  0	  2	  0	0.60064	  1	0.90000	  0	 24	 64	 89	  0	
21-Apr-2013	sub2323	2323	  1	  1	116	  4	  2	  4	  4	  5	  1	  2	  1	0.45553	  1	0.90000	  0	 24	 62	 63	  1	
21-Apr-2013	sub2323	2323	  1	  1	117	  4	  2	  5	  1	  5	  0	  2	  1	0.60199	  0	0.90000	  0	 25	 87	 68	  0	
21-Apr-2013	sub2323	2323	  1	  1	118	  4	  2	  4	  4	  5	  0	  2	  0	0.44981	  1	0.90000	  0	 24	 64	 89	  1	
21-Apr-2013	sub2323	2323	  1	  1	119	  4	  2	  1	  3	  5	  1	  1	  1	0.54459	  1	0.90000	  0	 21	 60	 61	  0	
21-Apr-2013	sub2323	2323	  1	  1	120	  4	  2	  6	  5	  2	  0	  2	  0	0.58347	  1	0.90000	  0	 26	 67	 88	  0	
21-Apr-2013	sub2323	2323	  1	  1	121	  4	  2	  1	  3	  5	  1	  1	  1	0.53964	  1	0.90000	  0	 21	 60	 61	  0	
21-Apr-2013	sub2323	2323	  1	  1	122	  4	  2	  2	  6	  2	  1	  2	  1	0.59477	  1	0.90000	  0	 22	 60	 61	  0	
21-Apr-2013	sub2323	2323	  1	  1	123	  4	  2	  6	  5	  2	  0	  2	  0	0.67012	  1	0.90000	  0	 26	 67	 88	  0	
21-Apr-2013	sub2323	2323	  1	  1	124	  4	  2	  5	  1	  5	  0	  2	  1	0.51558	  0	0.90000	  0	 25	 87	 68	  0	
21-Apr-2013	sub2323	2323	  1	  1	125	  4	  2	  3	  2	  5	  1	  1	  1	0.48879	  1	0.90000	  0	 23	 62	 63	  1	
21-Apr-2013	sub2323	2323	  1	  1	126	  4	  2	  5	  1	  5	  0	  2	  1	0.57632	  0	0.90000	  0	 25	 87	 68	  0	
21-Apr-2013	sub2323	2323	  1	  1	127	  4	  2	  1	  3	  5	  1	  1	  1	0.49036	  1	0.90000	  0	 21	 60	 61	  1	
21-Apr-2013	sub2323	2323	  1	  1	128	  4	  2	  4	  4	  5	  1	  2	  1	0.62236	  1	0.90000	  0	 24	 62	 63	  0	
21-Apr-2013	sub2323	2323	  1	  1	129	  4	  2	  1	  3	  5	  1	  1	  1	0.58397	  1	0.90000	  0	 21	 60	 61	  0	
21-Apr-2013	sub2323	2323	  1	  1	130	  4	  2	  3	  2	  5	  1	  1	  1	0.55973	  1	0.90000	  0	 23	 62	 63	  0	
21-Apr-2013	sub2323	2323	  1	  1	131	  4	  2	  5	  1	  5	  0	  2	  1	0.55867	  0	0.90000	  0	 25	 87	 68	  0	
21-Apr-2013	sub2323	2323	  1	  1	132	  4	  2	  4	  4	  5	  1	  1	  0	0.44525	  0	0.90000	  0	 24	 82	 83	  1	
21-Apr-2013	sub2323	2323	  1	  1	133	  4	  2	  5	  1	  5	  0	  2	  1	0.61143	  0	0.90000	  0	 25	 87	 68	  0	
21-Apr-2013	sub2323	2323	  1	  1	134	  4	  2	  2	  6	  2	  1	  2	  1	0.52518	  1	0.90000	  0	 22	 60	 61	  0	
21-Apr-2013	sub2323	2323	  1	  1	135	  4	  2	  3	  2	  5	  1	  1	  1	0.68833	  1	0.90000	  0	 23	 62	 63	  0	
21-Apr-2013	sub2323	2323	  1	  1	136	  4	  2	  4	  4	  5	  1	  2	  1	0.53804	  1	0.90000	  0	 24	 62	 63	  0	
21-Apr-2013	sub2323	2323	  1	  1	137	  4	  2	  2	  6	  2	  1	  2	  1	0.54772	  1	0.90000	  0	 22	 60	 61	  0	
21-Apr-2013	sub2323	2323	  1	  1	138	  4	  2	  4	  4	  5	  1	  2	  1	0.56888	  1	0.90000	  0	 24	 62	 63	  0	
21-Apr-2013	sub2323	2323	  1	  1	139	  4	  2	  6	  5	  2	  0	  2	  0	0.54371	  1	0.90000	  0	 26	 67	 88	  0	
21-Apr-2013	sub2323	2323	  1	  1	140	  4	  2	  1	  3	  5	  1	  1	  1	0.62508	  1	0.90000	  0	 21	 60	 61	  0	
21-Apr-2013	sub2323	2323	  1	  1	141	  4	  2	  3	  2	  5	  1	  1	  1	0.52066	  1	0.90000	  0	 23	 62	 63	  0	
21-Apr-2013	sub2323	2323	  1	  1	142	  4	  2	  5	  1	  5	  0	  2	  1	0.57207	  0	0.90000	  0	 25	 87	 68	  0	
21-Apr-2013	sub2323	2323	  1	  1	143	  4	  2	  6	  5	  2	  1	  2	  1	0.61717	  1	0.90000	  0	 26	 65	 66	  0	
21-Apr-2013	sub2323	2323	  1	  1	144	  4	  2	  1	  3	  5	  1	  1	  1	0.53031	  1	0.90000	  0	 21	 60	 61	  0	
21-Apr-2013	sub2323	2323	  1	  1	145	  4	  2	  1	  3	  5	  1	  1	  1	0.53715	  1	0.90000	  0	 21	 60	 61	  0	
21-Apr-2013	sub2323	2323	  1	  1	146	  4	  2	  4	  4	  5	  1	  2	  1	0.63969	  1	0.90000	  0	 24	 62	 63	  0	
21-Apr-2013	sub2323	2323	  1	  1	147	  4	  2	  4	  4	  5	  1	  2	  1	0.59750	  1	0.90000	  0	 24	 62	 63	  0	
21-Apr-2013	sub2323	2323	  1	  1	148	  4	  2	  6	  5	  2	  0	  2	  0	0.50974	  1	0.90000	  0	 26	 67	 88	  0	
21-Apr-2013	sub2323	2323	  1	  1	149	  4	  2	  6	  5	  2	  1	  2	  1	0.67911	  1	0.90000	  0	 26	 65	 66	  0	
21-Apr-2013	sub2323	2323	  1	  1	150	  4	  2	  6	  5	  2	  1	  2	  1	0.44948	  1	0.90000	  0	 26	 65	 66	  1	
21-Apr-2013	sub2323	2323	  1	  1	  1	  5	  1	  1	  1	  3	  1	  2	  0	0.48027	  0	0.60000	  0	 11	 40	 41	  1	
21-Apr-2013	sub2323	2323	  1	  1	  2	  5	  1	  2	  6	  4	  1	  2	  1	0.53525	  1	0.30000	  1	 12	 30	 51	  0	
21-Apr-2013	sub2323	2323	  1	  1	  3	  5	  1	  1	  1	  3	  1	  2	  0	0.40385	  0	0.90000	  0	 11	 40	 41	  1	
21-Apr-2013	sub2323	2323	  1	  1	  4	  5	  1	  3	  3	  6	  0	  2	  1	0.48313	  0	0.90000	  0	 13	 44	 39	  1	
21-Apr-2013	sub2323	2323	  1	  1	  5	  5	  1	  5	  4	  3	  1	  2	  0	0.52904	  0	0.90000	  0	 15	 45	 46	  0	
21-Apr-2013	sub2323	2323	  1	  1	  6	  5	  1	  6	  5	  4	  0	  2	  0	0.50113	  1	0.90000	  0	 16	 37	 48	  0	
21-Apr-2013	sub2323	2323	  1	  1	  7	  5	  1	  4	  2	  6	  0	  2	  0	0.43767	  1	0.90000	  0	 14	 34	 49	  1	
21-Apr-2013	sub2323	2323	  1	  1	  8	  5	  1	  5	  4	  3	  0	  2	  1	0.44189	  0	0.90000	  0	 15	 47	 38	  1	
21-Apr-2013	sub2323	2323	  1	  1	  9	  5	  1	  3	  3	  6	  1	  2	  0	0.49783	  0	0.90000	  0	 13	 42	 43	  1	
21-Apr-2013	sub2323	2323	  1	  1	 10	  5	  1	  1	  1	  3	  1	  2	  0	0.45633	  0	0.90000	  0	 11	 40	 41	  1	
21-Apr-2013	sub2323	2323	  1	  1	 11	  5	  1	  6	  5	  4	  1	  2	  1	0.48607	  1	0.90000	  0	 16	 35	 36	  1	
21-Apr-2013	sub2323	2323	  1	  1	 12	  5	  1	  2	  6	  4	  1	  2	  1	0.49268	  1	0.90000	  0	 12	 30	 31	  1	
21-Apr-2013	sub2323	2323	  1	  1	 13	  5	  1	  2	  6	  4	  1	  2	  1	0.49729	  1	0.90000	  0	 12	 30	 31	  1	
21-Apr-2013	sub2323	2323	  1	  1	 14	  5	  1	  6	  5	  4	  1	  2	  1	0.69606	  1	0.90000	  0	 16	 35	 36	  0	
21-Apr-2013	sub2323	2323	  1	  1	 15	  5	  1	  2	  6	  4	  1	  2	  1	0.50211	  1	0.90000	  0	 12	 30	 31	  0	
21-Apr-2013	sub2323	2323	  1	  1	 16	  5	  1	  1	  1	  3	  1	  2	  0	0.60647	  0	0.80000	  0	 11	 40	 41	  0	
21-Apr-2013	sub2323	2323	  1	  1	 17	  5	  1	  2	  6	  4	  1	  2	  1	0.58127	  1	0.80000	  0	 12	 30	 31	  0	
21-Apr-2013	sub2323	2323	  1	  1	 18	  5	  1	  6	  5	  4	  0	  2	  0	0.56140	  1	0.70000	  0	 16	 37	 48	  0	
21-Apr-2013	sub2323	2323	  1	  1	 19	  5	  1	  4	  2	  6	  1	  2	  1	0.59906	  1	0.70000	  0	 14	 32	 33	  0	
21-Apr-2013	sub2323	2323	  1	  1	 20	  5	  1	  4	  2	  6	  0	  2	  0	0.45600	  1	0.70000	  0	 14	 34	 49	  1	
21-Apr-2013	sub2323	2323	  1	  1	 21	  5	  1	  3	  3	  6	  0	  2	  1	0.63827	  0	0.60000	  1	 13	 44	 51	  0	
21-Apr-2013	sub2323	2323	  1	  1	 22	  5	  1	  6	  5	  4	  1	  2	  1	0.53145	  1	0.90000	  0	 16	 35	 36	  0	
21-Apr-2013	sub2323	2323	  1	  1	 23	  5	  1	  5	  4	  3	  1	  2	  0	0.60433	  0	0.90000	  0	 15	 45	 46	  0	
21-Apr-2013	sub2323	2323	  1	  1	 24	  5	  1	  6	  5	  4	  0	  2	  0	0.48175	  1	0.90000	  0	 16	 37	 48	  1	
21-Apr-2013	sub2323	2323	  1	  1	 25	  5	  1	  3	  3	  6	  0	  2	  1	0.50993	  0	0.90000	  0	 13	 44	 39	  0	
21-Apr-2013	sub2323	2323	  1	  1	 26	  5	  1	  5	  4	  3	  1	  2	  0	0.52779	  0	0.90000	  0	 15	 45	 46	  0	
21-Apr-2013	sub2323	2323	  1	  1	 27	  5	  1	  5	  4	  3	  1	  2	  0	0.50991	  0	0.90000	  0	 15	 45	 46	  0	
21-Apr-2013	sub2323	2323	  1	  1	 28	  5	  1	  1	  1	  3	  1	  2	  0	0.56351	  0	0.90000	  0	 11	 40	 41	  0	
21-Apr-2013	sub2323	2323	  1	  1	 29	  5	  1	  3	  3	  6	  1	  2	  0	0.50317	  0	0.90000	  0	 13	 42	 43	  0	
21-Apr-2013	sub2323	2323	  1	  1	 30	  5	  1	  2	  6	  4	  1	  2	  1	0.47683	  1	0.80000	  0	 12	 30	 31	  1	
21-Apr-2013	sub2323	2323	  1	  1	 31	  5	  1	  2	  6	  4	  1	  2	  1	0.39614	  1	0.80000	  0	 12	 30	 31	  1	
21-Apr-2013	sub2323	2323	  1	  1	 32	  5	  1	  1	  1	  3	  1	  2	  0	0.54976	  0	0.80000	  0	 11	 40	 41	  0	
21-Apr-2013	sub2323	2323	  1	  1	 33	  5	  1	  1	  1	  3	  1	  2	  0	0.45949	  0	0.80000	  0	 11	 40	 41	  1	
21-Apr-2013	sub2323	2323	  1	  1	 34	  5	  1	  3	  3	  6	  1	  2	  0	0.50205	  0	0.80000	  0	 13	 42	 43	  0	
21-Apr-2013	sub2323	2323	  1	  1	 35	  5	  1	  1	  1	  3	  1	  2	  0	0.25108	  0	0.70000	  0	 11	 40	 41	  1	
21-Apr-2013	sub2323	2323	  1	  1	 36	  5	  1	  6	  5	  4	  1	  2	  1	0.40490	  1	0.70000	  0	 16	 35	 36	  1	
21-Apr-2013	sub2323	2323	  1	  1	 37	  5	  1	  3	  3	  6	  1	  2	  0	0.62224	  0	0.70000	  0	 13	 42	 43	  0	
21-Apr-2013	sub2323	2323	  1	  1	 38	  5	  1	  3	  3	  6	  1	  2	  0	0.44915	  0	0.70000	  0	 13	 42	 43	  1	
21-Apr-2013	sub2323	2323	  1	  1	 39	  5	  1	  5	  4	  3	  0	  2	  1	0.56045	  0	0.70000	  0	 15	 47	 38	  0	
21-Apr-2013	sub2323	2323	  1	  1	 40	  5	  1	  4	  2	  6	  1	  2	  1	0.42641	  1	0.70000	  0	 14	 32	 33	  1	
21-Apr-2013	sub2323	2323	  1	  1	 41	  5	  1	  3	  3	  6	  1	  2	  0	0.53453	  0	0.60000	  0	 13	 42	 43	  0	
21-Apr-2013	sub2323	2323	  1	  1	 42	  5	  1	  6	  5	  4	  1	  2	  1	0.58568	  1	0.60000	  0	 16	 35	 36	  0	
21-Apr-2013	sub2323	2323	  1	  1	 43	  5	  1	  6	  5	  4	  0	  2	  0	0.45345	  1	0.60000	  0	 16	 37	 48	  1	
21-Apr-2013	sub2323	2323	  1	  1	 44	  5	  1	  4	  2	  6	  1	  2	  1	0.68859	  1	0.60000	  1	 14	 32	 51	  0	
21-Apr-2013	sub2323	2323	  1	  1	 45	  5	  1	  4	  2	  6	  1	  2	  1	0.39639	  1	0.80000	  0	 14	 32	 33	  1	
21-Apr-2013	sub2323	2323	  1	  1	 46	  5	  1	  3	  3	  6	  1	  2	  0	0.50037	  0	0.80000	  0	 13	 42	 43	  0	
21-Apr-2013	sub2323	2323	  1	  1	 47	  5	  1	  2	  6	  4	  1	  2	  1	0.55859	  1	0.80000	  0	 12	 30	 31	  0	
21-Apr-2013	sub2323	2323	  1	  1	 48	  5	  1	  4	  2	  6	  1	  2	  1	0.49373	  1	0.80000	  0	 14	 32	 33	  1	
21-Apr-2013	sub2323	2323	  1	  1	 49	  5	  1	  1	  1	  3	  1	  2	  0	0.61257	  0	0.80000	  0	 11	 40	 41	  0	
21-Apr-2013	sub2323	2323	  1	  1	 50	  5	  1	  3	  3	  6	  1	  2	  0	0.55942	  0	0.80000	  0	 13	 42	 43	  0	
21-Apr-2013	sub2323	2323	  1	  1	 51	  5	  1	  2	  6	  4	  1	  2	  1	0.55438	  1	0.70000	  0	 12	 30	 31	  0	
21-Apr-2013	sub2323	2323	  1	  1	 52	  5	  1	  6	  5	  4	  1	  2	  1	0.54544	  1	0.70000	  0	 16	 35	 36	  0	
21-Apr-2013	sub2323	2323	  1	  1	 53	  5	  1	  3	  3	  6	  1	  2	  0	0.39860	  0	0.70000	  0	 13	 42	 43	  1	
21-Apr-2013	sub2323	2323	  1	  1	 54	  5	  1	  5	  4	  3	  0	  2	  1	0.40271	  0	0.70000	  0	 15	 47	 38	  1	
21-Apr-2013	sub2323	2323	  1	  1	 55	  5	  1	  5	  4	  3	  1	  2	  0	0.38963	  0	0.70000	  0	 15	 45	 46	  1	
21-Apr-2013	sub2323	2323	  1	  1	 56	  5	  1	  4	  2	  6	  1	  2	  1	0.61680	  1	0.70000	  0	 14	 32	 33	  0	
21-Apr-2013	sub2323	2323	  1	  1	 57	  5	  1	  4	  2	  6	  1	  2	  1	0.52812	  1	0.70000	  0	 14	 32	 33	  0	
21-Apr-2013	sub2323	2323	  1	  1	 58	  5	  1	  2	  6	  4	  1	  2	  1	0.55618	  1	0.70000	  0	 12	 30	 31	  0	
21-Apr-2013	sub2323	2323	  1	  1	 59	  5	  1	  1	  1	  3	  1	  1	  1	0.51236	  1	0.70000	  0	 11	 30	 31	  0	
21-Apr-2013	sub2323	2323	  1	  1	 60	  5	  1	  6	  5	  4	  0	  2	  0	0.68684	  1	0.70000	  0	 16	 37	 48	  0	
21-Apr-2013	sub2323	2323	  1	  1	 61	  5	  1	  4	  2	  6	  1	  2	  1	0.58964	  1	0.60000	  0	 14	 32	 33	  0	
21-Apr-2013	sub2323	2323	  1	  1	 62	  5	  1	  2	  6	  4	  1	  2	  1	0.44460	  1	0.60000	  0	 12	 30	 31	  1	
21-Apr-2013	sub2323	2323	  1	  1	 63	  5	  1	  2	  6	  4	  1	  2	  1	0.42218	  1	0.60000	  0	 12	 30	 31	  1	
21-Apr-2013	sub2323	2323	  1	  1	 64	  5	  1	  3	  3	  6	  1	  2	  0	0.58553	  0	0.60000	  0	 13	 42	 43	  0	
21-Apr-2013	sub2323	2323	  1	  1	 65	  5	  1	  5	  4	  3	  1	  1	  1	0.73359	  1	0.60000	  1	 15	 35	 51	  0	
21-Apr-2013	sub2323	2323	  1	  1	 66	  5	  1	  1	  1	  3	  1	  1	  1	0.54979	  1	0.80000	  0	 11	 30	 31	  0	
21-Apr-2013	sub2323	2323	  1	  1	 67	  5	  1	  4	  2	  6	  1	  2	  1	0.49296	  1	0.80000	  0	 14	 32	 33	  1	
21-Apr-2013	sub2323	2323	  1	  1	 68	  5	  1	  6	  5	  4	  0	  2	  0	0.61661	  1	0.70000	  0	 16	 37	 48	  0	
21-Apr-2013	sub2323	2323	  1	  1	 69	  5	  1	  5	  4	  3	  1	  1	  1	0.71559	  1	0.70000	  1	 15	 35	 51	  0	
21-Apr-2013	sub2323	2323	  1	  1	 70	  5	  1	  4	  2	  6	  1	  2	  1	0.55846	  1	0.90000	  0	 14	 32	 33	  0	
21-Apr-2013	sub2323	2323	  1	  1	 71	  5	  1	  6	  5	  4	  0	  1	  1	0.63056	  0	0.90000	  0	 16	 47	 38	  0	
21-Apr-2013	sub2323	2323	  1	  1	 72	  5	  1	  5	  4	  3	  0	  1	  0	0.58609	  1	0.90000	  0	 15	 37	 48	  0	
21-Apr-2013	sub2323	2323	  1	  1	 73	  5	  1	  2	  6	  4	  1	  2	  1	0.57195	  1	0.80000	  0	 12	 30	 31	  0	
21-Apr-2013	sub2323	2323	  1	  1	 74	  5	  1	  5	  4	  3	  0	  1	  0	0.68498	  1	0.80000	  0	 15	 37	 48	  0	
21-Apr-2013	sub2323	2323	  1	  1	 75	  5	  1	  1	  1	  3	  1	  1	  1	0.60125	  1	0.80000	  0	 11	 30	 31	  0	
21-Apr-2013	sub2323	2323	  1	  1	 76	  5	  2	  5	  4	  3	  0	  1	  0	0.50850	  1	0.80000	  0	 25	 67	 88	  0	
21-Apr-2013	sub2323	2323	  1	  1	 77	  5	  2	  6	  5	  4	  0	  2	  0	0.51105	  1	0.80000	  0	 26	 67	 88	  0	
21-Apr-2013	sub2323	2323	  1	  1	 78	  5	  2	  4	  2	  6	  1	  2	  1	0.66700	  1	0.80000	  0	 24	 62	 63	  0	
21-Apr-2013	sub2323	2323	  1	  1	 79	  5	  2	  3	  3	  6	  0	  1	  0	0.73274	  1	0.80000	  0	 23	 64	 89	  0	
21-Apr-2013	sub2323	2323	  1	  1	 80	  5	  2	  3	  3	  6	  1	  1	  1	0.55816	  1	0.80000	  0	 23	 62	 63	  0	
21-Apr-2013	sub2323	2323	  1	  1	 81	  5	  2	  1	  1	  3	  1	  2	  0	0.67942	  0	0.80000	  0	 21	 80	 81	  0	
21-Apr-2013	sub2323	2323	  1	  1	 82	  5	  2	  6	  5	  4	  0	  2	  0	0.58644	  1	0.80000	  0	 26	 67	 88	  0	
21-Apr-2013	sub2323	2323	  1	  1	 83	  5	  2	  2	  6	  4	  1	  2	  1	0.52729	  1	0.80000	  0	 22	 60	 61	  0	
21-Apr-2013	sub2323	2323	  1	  1	 84	  5	  2	  6	  5	  4	  0	  2	  0	0.56886	  1	0.80000	  0	 26	 67	 88	  0	
21-Apr-2013	sub2323	2323	  1	  1	 85	  5	  2	  4	  2	  6	  0	  2	  0	0.58821	  1	0.70000	  0	 24	 64	 89	  0	
21-Apr-2013	sub2323	2323	  1	  1	 86	  5	  2	  2	  6	  4	  1	  2	  1	0.60262	  1	0.70000	  0	 22	 60	 61	  0	
21-Apr-2013	sub2323	2323	  1	  1	 87	  5	  2	  5	  4	  3	  0	  1	  0	0.63614	  1	0.70000	  0	 25	 67	 88	  0	
21-Apr-2013	sub2323	2323	  1	  1	 88	  5	  2	  5	  4	  3	  0	  1	  0	0.61348	  1	0.70000	  0	 25	 67	 88	  0	
21-Apr-2013	sub2323	2323	  1	  1	 89	  5	  2	  3	  3	  6	  1	  1	  1	0.64788	  1	0.70000	  0	 23	 62	 63	  0	
21-Apr-2013	sub2323	2323	  1	  1	 90	  5	  2	  5	  4	  3	  0	  1	  0	0.60762	  1	0.70000	  0	 25	 67	 88	  0	
21-Apr-2013	sub2323	2323	  1	  1	 91	  5	  2	  1	  1	  3	  1	  1	  1	0.67351	  1	0.70000	  0	 21	 60	 61	  0	
21-Apr-2013	sub2323	2323	  1	  1	 92	  5	  2	  5	  4	  3	  0	  1	  0	0.63761	  1	0.70000	  0	 25	 67	 88	  0	
21-Apr-2013	sub2323	2323	  1	  1	 93	  5	  2	  2	  6	  4	  1	  2	  1	0.56347	  1	0.70000	  0	 22	 60	 61	  0	
21-Apr-2013	sub2323	2323	  1	  1	 94	  5	  2	  2	  6	  4	  1	  2	  1	0.43302	  1	0.70000	  0	 22	 60	 61	  1	
21-Apr-2013	sub2323	2323	  1	  1	 95	  5	  2	  5	  4	  3	  0	  1	  0	0.62343	  1	0.70000	  0	 25	 67	 88	  0	
21-Apr-2013	sub2323	2323	  1	  1	 96	  5	  2	  1	  1	  3	  1	  1	  1	0.67853	  1	0.70000	  0	 21	 60	 61	  0	
21-Apr-2013	sub2323	2323	  1	  1	 97	  5	  2	  1	  1	  3	  1	  1	  1	0.63482	  1	0.70000	  0	 21	 60	 61	  0	
21-Apr-2013	sub2323	2323	  1	  1	 98	  5	  2	  1	  1	  3	  1	  1	  1	0.50407	  1	0.70000	  0	 21	 60	 61	  0	
21-Apr-2013	sub2323	2323	  1	  1	 99	  5	  2	  6	  5	  4	  1	  2	  1	0.58964	  1	0.70000	  0	 26	 65	 66	  0	
21-Apr-2013	sub2323	2323	  1	  1	100	  5	  2	  2	  6	  4	  1	  2	  1	0.51548	  1	0.70000	  0	 22	 60	 61	  0	
21-Apr-2013	sub2323	2323	  1	  1	101	  5	  2	  2	  6	  4	  1	  2	  1	0.54242	  1	0.60000	  0	 22	 60	 61	  0	
21-Apr-2013	sub2323	2323	  1	  1	102	  5	  2	  4	  2	  6	  1	  2	  1	0.70487	  1	0.60000	  1	 24	 62	 51	  0	
21-Apr-2013	sub2323	2323	  1	  1	103	  5	  2	  3	  3	  6	  1	  1	  1	0.65048	  1	0.70000	  0	 23	 62	 63	  0	
21-Apr-2013	sub2323	2323	  1	  1	104	  5	  2	  5	  4	  3	  0	  1	  0	0.59077	  1	0.70000	  0	 25	 67	 88	  0	
21-Apr-2013	sub2323	2323	  1	  1	105	  5	  2	  2	  6	  4	  1	  2	  1	0.52898	  1	0.70000	  0	 22	 60	 61	  0	
21-Apr-2013	sub2323	2323	  1	  1	106	  5	  2	  6	  5	  4	  1	  2	  1	0.48212	  1	0.70000	  0	 26	 65	 66	  1	
21-Apr-2013	sub2323	2323	  1	  1	107	  5	  2	  1	  1	  3	  1	  1	  1	0.58419	  1	0.70000	  0	 21	 60	 61	  0	
21-Apr-2013	sub2323	2323	  1	  1	108	  5	  2	  6	  5	  4	  1	  2	  1	0.57938	  1	0.70000	  0	 26	 65	 66	  0	
21-Apr-2013	sub2323	2323	  1	  1	109	  5	  2	  3	  3	  6	  1	  1	  1	0.69992	  1	0.70000	  0	 23	 62	 63	  0	
21-Apr-2013	sub2323	2323	  1	  1	110	  5	  2	  1	  1	  3	  1	  1	  1	0.58680	  1	0.70000	  0	 21	 60	 61	  0	
21-Apr-2013	sub2323	2323	  1	  1	111	  5	  2	  6	  5	  4	  0	  2	  0	0.61761	  1	0.70000	  0	 26	 67	 88	  0	
21-Apr-2013	sub2323	2323	  1	  1	112	  5	  2	  6	  5	  4	  0	  2	  0	0.50510	  1	0.70000	  0	 26	 67	 88	  0	
21-Apr-2013	sub2323	2323	  1	  1	113	  5	  2	  3	  3	  6	  1	  1	  1	0.61639	  1	0.70000	  0	 23	 62	 63	  0	
21-Apr-2013	sub2323	2323	  1	  1	114	  5	  2	  4	  2	  6	  1	  1	  0	1.02637	  0	0.70000	  1	 24	 82	 51	  0	
21-Apr-2013	sub2323	2323	  1	  1	115	  5	  2	  4	  2	  6	  1	  2	  1	0.58355	  1	0.80000	  0	 24	 62	 63	  0	
21-Apr-2013	sub2323	2323	  1	  1	116	  5	  2	  2	  6	  4	  1	  2	  1	0.52996	  1	0.80000	  0	 22	 60	 61	  0	
21-Apr-2013	sub2323	2323	  1	  1	117	  5	  2	  5	  4	  3	  0	  2	  1	0.58811	  0	0.80000	  0	 25	 87	 68	  0	
21-Apr-2013	sub2323	2323	  1	  1	118	  5	  2	  3	  3	  6	  0	  1	  0	0.68478	  1	0.70000	  0	 23	 64	 89	  0	
21-Apr-2013	sub2323	2323	  1	  1	119	  5	  2	  6	  5	  4	  1	  2	  1	0.51453	  1	0.70000	  0	 26	 65	 66	  0	
21-Apr-2013	sub2323	2323	  1	  1	120	  5	  2	  3	  3	  6	  1	  1	  1	0.57177	  1	0.70000	  0	 23	 62	 63	  0	
21-Apr-2013	sub2323	2323	  1	  1	121	  5	  2	  1	  1	  3	  1	  1	  1	0.60600	  1	0.70000	  0	 21	 60	 61	  0	
21-Apr-2013	sub2323	2323	  1	  1	122	  5	  2	  4	  2	  6	  0	  2	  0	0.57550	  1	0.70000	  0	 24	 64	 89	  0	
21-Apr-2013	sub2323	2323	  1	  1	123	  5	  2	  4	  2	  6	  1	  1	  0	0.78246	  0	0.70000	  1	 24	 82	 51	  0	
21-Apr-2013	sub2323	2323	  1	  1	124	  5	  2	  1	  1	  3	  1	  1	  1	0.53456	  1	0.80000	  0	 21	 60	 61	  0	
21-Apr-2013	sub2323	2323	  1	  1	125	  5	  2	  6	  5	  4	  1	  2	  1	0.57675	  1	0.80000	  0	 26	 65	 66	  0	
21-Apr-2013	sub2323	2323	  1	  1	126	  5	  2	  2	  6	  4	  1	  2	  1	0.47807	  1	0.80000	  0	 22	 60	 61	  1	
21-Apr-2013	sub2323	2323	  1	  1	127	  5	  2	  1	  1	  3	  1	  1	  1	0.56950	  1	0.80000	  0	 21	 60	 61	  0	
21-Apr-2013	sub2323	2323	  1	  1	128	  5	  2	  2	  6	  4	  1	  2	  1	0.54022	  1	0.80000	  0	 22	 60	 61	  0	
21-Apr-2013	sub2323	2323	  1	  1	129	  5	  2	  5	  4	  3	  0	  2	  1	0.62669	  0	0.80000	  0	 25	 87	 68	  0	
21-Apr-2013	sub2323	2323	  1	  1	130	  5	  2	  4	  2	  6	  1	  1	  0	0.72506	  0	0.80000	  0	 24	 82	 83	  0	
21-Apr-2013	sub2323	2323	  1	  1	131	  5	  2	  1	  1	  3	  1	  1	  1	0.71974	  1	0.80000	  0	 21	 60	 61	  0	
21-Apr-2013	sub2323	2323	  1	  1	132	  5	  2	  4	  2	  6	  1	  2	  1	0.47964	  1	0.80000	  0	 24	 62	 63	  1	
21-Apr-2013	sub2323	2323	  1	  1	133	  5	  2	  6	  5	  4	  0	  2	  0	0.76920	  1	0.80000	  0	 26	 67	 88	  0	
21-Apr-2013	sub2323	2323	  1	  1	134	  5	  2	  5	  4	  3	  0	  2	  1	0.60085	  0	0.80000	  0	 25	 87	 68	  0	
21-Apr-2013	sub2323	2323	  1	  1	135	  5	  2	  3	  3	  6	  1	  1	  1	0.58703	  1	0.70000	  0	 23	 62	 63	  0	
21-Apr-2013	sub2323	2323	  1	  1	136	  5	  2	  5	  4	  3	  0	  2	  1	0.65363	  0	0.70000	  0	 25	 87	 68	  0	
21-Apr-2013	sub2323	2323	  1	  1	137	  5	  2	  5	  4	  3	  0	  2	  1	0.58171	  0	0.70000	  0	 25	 87	 68	  0	
21-Apr-2013	sub2323	2323	  1	  1	138	  5	  2	  2	  6	  4	  1	  2	  1	0.56116	  1	0.70000	  0	 22	 60	 61	  0	
21-Apr-2013	sub2323	2323	  1	  1	139	  5	  2	  3	  3	  6	  1	  2	  0	0.51769	  0	0.70000	  0	 23	 82	 83	  0	
21-Apr-2013	sub2323	2323	  1	  1	140	  5	  2	  3	  3	  6	  1	  1	  1	0.47809	  1	0.70000	  0	 23	 62	 63	  1	
21-Apr-2013	sub2323	2323	  1	  1	141	  5	  2	  1	  1	  3	  1	  1	  1	0.55286	  1	0.70000	  0	 21	 60	 61	  0	
21-Apr-2013	sub2323	2323	  1	  1	142	  5	  2	  4	  2	  6	  1	  2	  1	0.71646	  1	0.70000	  1	 24	 62	 51	  0	
21-Apr-2013	sub2323	2323	  1	  1	143	  5	  2	  5	  4	  3	  0	  2	  1	0.50985	  0	0.80000	  0	 25	 87	 68	  0	
21-Apr-2013	sub2323	2323	  1	  1	144	  5	  2	  3	  3	  6	  1	  1	  1	0.64844	  1	0.80000	  0	 23	 62	 63	  0	
21-Apr-2013	sub2323	2323	  1	  1	145	  5	  2	  6	  5	  4	  1	  2	  1	0.60364	  1	0.80000	  0	 26	 65	 66	  0	
21-Apr-2013	sub2323	2323	  1	  1	146	  5	  2	  4	  2	  6	  1	  2	  1	0.57501	  1	0.80000	  0	 24	 62	 63	  0	
21-Apr-2013	sub2323	2323	  1	  1	147	  5	  2	  2	  6	  4	  1	  2	  1	0.46911	  1	0.80000	  0	 22	 60	 61	  1	
21-Apr-2013	sub2323	2323	  1	  1	148	  5	  2	  4	  2	  6	  1	  2	  1	0.39340	  1	0.80000	  0	 24	 62	 63	  1	
21-Apr-2013	sub2323	2323	  1	  1	149	  5	  2	  1	  1	  3	  1	  1	  1	0.56717	  1	0.80000	  0	 21	 60	 61	  0	
21-Apr-2013	sub2323	2323	  1	  1	150	  5	  2	  4	  2	  6	  0	  2	  0	0.43922	  1	0.80000	  0	 24	 64	 89	  1	
21-Apr-2013	sub2323	2323	  1	  1	  1	  6	  1	  4	  2	  2	  0	  2	  0	0.91911	  1	0.60000	  1	 14	 34	 51	  0	
21-Apr-2013	sub2323	2323	  1	  1	  2	  6	  1	  5	  5	  5	  0	  2	  1	0.27698	  0	0.90000	  0	 15	 47	 38	  1	
21-Apr-2013	sub2323	2323	  1	  1	  3	  6	  1	  6	  6	  5	  1	  2	  1	0.46835	  1	0.90000	  0	 16	 35	 36	  1	
21-Apr-2013	sub2323	2323	  1	  1	  4	  6	  1	  2	  4	  1	  1	  2	  1	0.47367	  1	0.90000	  0	 12	 30	 31	  1	
21-Apr-2013	sub2323	2323	  1	  1	  5	  6	  1	  3	  3	  2	  0	  2	  1	0.46115	  0	0.90000	  0	 13	 44	 39	  1	
21-Apr-2013	sub2323	2323	  1	  1	  6	  6	  1	  3	  3	  2	  1	  2	  0	0.46187	  0	0.90000	  0	 13	 42	 43	  1	
21-Apr-2013	sub2323	2323	  1	  1	  7	  6	  1	  1	  1	  2	  1	  2	  0	0.78386	  0	0.90000	  0	 11	 40	 41	  0	
21-Apr-2013	sub2323	2323	  1	  1	  8	  6	  1	  3	  3	  2	  1	  2	  0	0.63614	  0	0.90000	  0	 13	 42	 43	  0	
21-Apr-2013	sub2323	2323	  1	  1	  9	  6	  1	  4	  2	  2	  1	  2	  1	0.69296	  1	0.90000	  0	 14	 32	 33	  0	
21-Apr-2013	sub2323	2323	  1	  1	 10	  6	  1	  2	  4	  1	  1	  2	  1	0.52120	  1	0.90000	  0	 12	 30	 31	  0	
21-Apr-2013	sub2323	2323	  1	  1	 11	  6	  1	  4	  2	  2	  1	  2	  1	0.30233	  1	0.90000	  0	 14	 32	 33	  1	
21-Apr-2013	sub2323	2323	  1	  1	 12	  6	  1	  1	  1	  2	  1	  1	  1	0.70900	  1	0.90000	  0	 11	 30	 31	  0	
21-Apr-2013	sub2323	2323	  1	  1	 13	  6	  1	  4	  2	  2	  0	  2	  0	0.63245	  1	0.90000	  0	 14	 34	 49	  0	
21-Apr-2013	sub2323	2323	  1	  1	 14	  6	  1	  5	  5	  5	  0	  2	  1	0.76928	  0	0.90000	  0	 15	 47	 38	  0	
21-Apr-2013	sub2323	2323	  1	  1	 15	  6	  1	  4	  2	  2	  1	  2	  1	0.52507	  1	0.90000	  0	 14	 32	 33	  0	
21-Apr-2013	sub2323	2323	  1	  1	 16	  6	  1	  5	  5	  5	  0	  2	  1	0.69560	  0	0.80000	  0	 15	 47	 38	  0	
21-Apr-2013	sub2323	2323	  1	  1	 17	  6	  1	  1	  1	  2	  1	  1	  1	0.62832	  1	0.80000	  0	 11	 30	 31	  0	
21-Apr-2013	sub2323	2323	  1	  1	 18	  6	  1	  1	  1	  2	  1	  1	  1	0.56698	  1	0.70000	  0	 11	 30	 31	  0	
21-Apr-2013	sub2323	2323	  1	  1	 19	  6	  1	  3	  3	  2	  1	  1	  1	0.65931	  1	0.70000	  0	 13	 32	 33	  0	
21-Apr-2013	sub2323	2323	  1	  1	 20	  6	  1	  6	  6	  5	  1	  2	  1	0.69010	  1	0.70000	  0	 16	 35	 36	  0	
21-Apr-2013	sub2323	2323	  1	  1	 21	  6	  1	  3	  3	  2	  1	  1	  1	0.47563	  1	0.60000	  0	 13	 32	 33	  1	
21-Apr-2013	sub2323	2323	  1	  1	 22	  6	  1	  2	  4	  1	  1	  2	  1	0.65057	  1	0.60000	  1	 12	 30	 51	  0	
21-Apr-2013	sub2323	2323	  1	  1	 23	  6	  1	  6	  6	  5	  1	  2	  1	0.67806	  1	0.90000	  0	 16	 35	 36	  0	
21-Apr-2013	sub2323	2323	  1	  1	 24	  6	  1	  4	  2	  2	  1	  2	  1	0.60716	  1	0.90000	  0	 14	 32	 33	  0	
21-Apr-2013	sub2323	2323	  1	  1	 25	  6	  1	  5	  5	  5	  0	  2	  1	0.61812	  0	0.90000	  0	 15	 47	 38	  0	
21-Apr-2013	sub2323	2323	  1	  1	 26	  6	  1	  2	  4	  1	  1	  2	  1	0.66517	  1	0.90000	  0	 12	 30	 31	  0	
21-Apr-2013	sub2323	2323	  1	  1	 27	  6	  1	  6	  6	  5	  1	  2	  1	0.48135	  1	0.90000	  0	 16	 35	 36	  1	
21-Apr-2013	sub2323	2323	  1	  1	 28	  6	  1	  1	  1	  2	  1	  1	  1	0.57009	  1	0.90000	  0	 11	 30	 31	  0	
21-Apr-2013	sub2323	2323	  1	  1	 29	  6	  1	  2	  4	  1	  1	  2	  1	0.56329	  1	0.90000	  0	 12	 30	 31	  0	
21-Apr-2013	sub2323	2323	  1	  1	 30	  6	  1	  3	  3	  2	  1	  1	  1	0.50438	  1	0.80000	  0	 13	 32	 33	  0	
21-Apr-2013	sub2323	2323	  1	  1	 31	  6	  1	  2	  4	  1	  1	  2	  1	0.62289	  1	0.80000	  0	 12	 30	 31	  0	
21-Apr-2013	sub2323	2323	  1	  1	 32	  6	  1	  5	  5	  5	  0	  2	  1	0.58949	  0	0.80000	  0	 15	 47	 38	  0	
21-Apr-2013	sub2323	2323	  1	  1	 33	  6	  1	  2	  4	  1	  1	  2	  1	0.51031	  1	0.80000	  0	 12	 30	 31	  0	
21-Apr-2013	sub2323	2323	  1	  1	 34	  6	  1	  1	  1	  2	  1	  1	  1	0.51006	  1	0.80000	  0	 11	 30	 31	  0	
21-Apr-2013	sub2323	2323	  1	  1	 35	  6	  1	  4	  2	  2	  1	  2	  1	0.54981	  1	0.70000	  0	 14	 32	 33	  0	
21-Apr-2013	sub2323	2323	  1	  1	 36	  6	  1	  6	  6	  5	  0	  2	  0	0.68521	  1	0.70000	  0	 16	 37	 48	  0	
21-Apr-2013	sub2323	2323	  1	  1	 37	  6	  1	  3	  3	  2	  1	  1	  1	0.46921	  1	0.70000	  0	 13	 32	 33	  1	
21-Apr-2013	sub2323	2323	  1	  1	 38	  6	  1	  2	  4	  1	  1	  1	  0	0.46234	  0	0.70000	  0	 12	 40	 41	  1	
21-Apr-2013	sub2323	2323	  1	  1	 39	  6	  1	  1	  1	  2	  1	  1	  1	0.48966	  1	0.70000	  0	 11	 30	 31	  1	
21-Apr-2013	sub2323	2323	  1	  1	 40	  6	  1	  6	  6	  5	  0	  2	  0	0.59010	  1	0.70000	  0	 16	 37	 48	  0	
21-Apr-2013	sub2323	2323	  1	  1	 41	  6	  1	  5	  5	  5	  1	  2	  0	0.77443	  0	0.60000	  1	 15	 45	 51	  0	
21-Apr-2013	sub2323	2323	  1	  1	 42	  6	  1	  6	  6	  5	  0	  2	  0	0.59486	  1	0.90000	  0	 16	 37	 48	  0	
21-Apr-2013	sub2323	2323	  1	  1	 43	  6	  1	  4	  2	  2	  1	  1	  0	0.65697	  0	0.90000	  0	 14	 42	 43	  0	
21-Apr-2013	sub2323	2323	  1	  1	 44	  6	  1	  4	  2	  2	  1	  2	  1	0.49172	  1	0.80000	  0	 14	 32	 33	  1	
21-Apr-2013	sub2323	2323	  1	  1	 45	  6	  1	  5	  5	  5	  1	  1	  1	0.61327	  1	0.80000	  0	 15	 35	 36	  0	
21-Apr-2013	sub2323	2323	  1	  1	 46	  6	  1	  1	  1	  2	  1	  1	  1	0.49989	  1	0.80000	  0	 11	 30	 31	  1	
21-Apr-2013	sub2323	2323	  1	  1	 47	  6	  1	  3	  3	  2	  1	  1	  1	0.53333	  1	0.80000	  0	 13	 32	 33	  0	
21-Apr-2013	sub2323	2323	  1	  1	 48	  6	  1	  1	  1	  2	  1	  1	  1	0.43217	  1	0.80000	  0	 11	 30	 31	  1	
21-Apr-2013	sub2323	2323	  1	  1	 49	  6	  1	  3	  3	  2	  0	  1	  0	0.42872	  1	0.80000	  0	 13	 34	 49	  1	
21-Apr-2013	sub2323	2323	  1	  1	 50	  6	  1	  3	  3	  2	  1	  1	  1	0.39027	  1	0.80000	  0	 13	 32	 33	  1	
21-Apr-2013	sub2323	2323	  1	  1	 51	  6	  1	  5	  5	  5	  1	  2	  0	0.56923	  0	0.70000	  0	 15	 45	 46	  0	
21-Apr-2013	sub2323	2323	  1	  1	 52	  6	  1	  2	  4	  1	  1	  1	  0	0.54420	  0	0.70000	  0	 12	 40	 41	  0	
21-Apr-2013	sub2323	2323	  1	  1	 53	  6	  1	  6	  6	  5	  1	  2	  1	0.60080	  1	0.70000	  0	 16	 35	 36	  0	
21-Apr-2013	sub2323	2323	  1	  1	 54	  6	  1	  5	  5	  5	  1	  1	  1	0.60624	  1	0.70000	  0	 15	 35	 36	  0	
21-Apr-2013	sub2323	2323	  1	  1	 55	  6	  1	  6	  6	  5	  0	  1	  1	0.56276	  0	0.70000	  0	 16	 47	 38	  0	
21-Apr-2013	sub2323	2323	  1	  1	 56	  6	  1	  6	  6	  5	  0	  2	  0	0.59914	  1	0.70000	  0	 16	 37	 48	  0	
21-Apr-2013	sub2323	2323	  1	  1	 57	  6	  1	  3	  3	  2	  1	  1	  1	0.47748	  1	0.70000	  0	 13	 32	 33	  1	
21-Apr-2013	sub2323	2323	  1	  1	 58	  6	  1	  6	  6	  5	  1	  1	  0	0.63074	  0	0.70000	  0	 16	 45	 46	  0	
21-Apr-2013	sub2323	2323	  1	  1	 59	  6	  1	  4	  2	  2	  1	  2	  1	0.60207	  1	0.70000	  0	 14	 32	 33	  0	
21-Apr-2013	sub2323	2323	  1	  1	 60	  6	  1	  5	  5	  5	  1	  2	  0	0.72557	  0	0.70000	  1	 15	 45	 51	  0	
21-Apr-2013	sub2323	2323	  1	  1	 61	  6	  1	  6	  6	  5	  0	  2	  0	0.61024	  1	0.80000	  0	 16	 37	 48	  0	
21-Apr-2013	sub2323	2323	  1	  1	 62	  6	  1	  1	  1	  2	  1	  1	  1	0.53741	  1	0.80000	  0	 11	 30	 31	  0	
21-Apr-2013	sub2323	2323	  1	  1	 63	  6	  1	  2	  4	  1	  1	  1	  0	0.54203	  0	0.80000	  0	 12	 40	 41	  0	
21-Apr-2013	sub2323	2323	  1	  1	 64	  6	  1	  3	  3	  2	  0	  1	  0	0.43127	  1	0.80000	  0	 13	 34	 49	  1	
21-Apr-2013	sub2323	2323	  1	  1	 65	  6	  1	  5	  5	  5	  1	  2	  0	0.65044	  0	0.80000	  0	 15	 45	 46	  0	
21-Apr-2013	sub2323	2323	  1	  1	 66	  6	  1	  4	  2	  2	  1	  2	  1	0.50315	  1	0.80000	  0	 14	 32	 33	  0	
21-Apr-2013	sub2323	2323	  1	  1	 67	  6	  1	  6	  6	  5	  0	  2	  0	0.49342	  1	0.80000	  0	 16	 37	 48	  1	
21-Apr-2013	sub2323	2323	  1	  1	 68	  6	  1	  2	  4	  1	  1	  2	  1	0.67350	  1	0.70000	  0	 12	 30	 31	  0	
21-Apr-2013	sub2323	2323	  1	  1	 69	  6	  1	  2	  4	  1	  1	  2	  1	0.77412	  1	0.70000	  1	 12	 30	 51	  0	
21-Apr-2013	sub2323	2323	  1	  1	 70	  6	  1	  1	  1	  2	  1	  1	  1	0.54264	  1	0.90000	  0	 11	 30	 31	  0	
21-Apr-2013	sub2323	2323	  1	  1	 71	  6	  1	  2	  4	  1	  1	  2	  1	2.18630	  1	0.90000	  1	 12	 30	 51	  0	
21-Apr-2013	sub2323	2323	  1	  1	 72	  6	  1	  4	  2	  2	  1	  2	  1	1.51340	  1	0.90000	  1	 14	 32	 51	  0	
21-Apr-2013	sub2323	2323	  1	  1	 73	  6	  1	  5	  5	  5	  1	  1	  1	0.42146	  1	0.90000	  0	 15	 35	 36	  1	
21-Apr-2013	sub2323	2323	  1	  1	 74	  6	  1	  3	  3	  2	  1	  1	  1	0.51069	  1	0.90000	  0	 13	 32	 33	  0	
21-Apr-2013	sub2323	2323	  1	  1	 75	  6	  1	  1	  1	  2	  1	  1	  1	0.53536	  1	0.90000	  0	 11	 30	 31	  0	
21-Apr-2013	sub2323	2323	  1	  1	 76	  6	  2	  4	  2	  2	  1	  2	  1	0.67484	  1	0.90000	  0	 24	 62	 63	  0	
21-Apr-2013	sub2323	2323	  1	  1	 77	  6	  2	  5	  5	  5	  0	  2	  1	0.66046	  0	0.90000	  0	 25	 87	 68	  0	
21-Apr-2013	sub2323	2323	  1	  1	 78	  6	  2	  5	  5	  5	  0	  2	  1	0.47664	  0	0.90000	  0	 25	 87	 68	  1	
21-Apr-2013	sub2323	2323	  1	  1	 79	  6	  2	  6	  6	  5	  0	  2	  0	0.61232	  1	0.90000	  0	 26	 67	 88	  0	
21-Apr-2013	sub2323	2323	  1	  1	 80	  6	  2	  2	  4	  1	  1	  2	  1	0.78431	  1	0.90000	  0	 22	 60	 61	  0	
21-Apr-2013	sub2323	2323	  1	  1	 81	  6	  2	  5	  5	  5	  0	  2	  1	0.69285	  0	0.90000	  0	 25	 87	 68	  0	
21-Apr-2013	sub2323	2323	  1	  1	 82	  6	  2	  1	  1	  2	  1	  1	  1	0.62111	  1	0.90000	  0	 21	 60	 61	  0	
21-Apr-2013	sub2323	2323	  1	  1	 83	  6	  2	  4	  2	  2	  0	  2	  0	0.56480	  1	0.90000	  0	 24	 64	 89	  0	
21-Apr-2013	sub2323	2323	  1	  1	 84	  6	  2	  1	  1	  2	  1	  1	  1	0.64043	  1	0.90000	  0	 21	 60	 61	  0	
21-Apr-2013	sub2323	2323	  1	  1	 85	  6	  2	  5	  5	  5	  0	  2	  1	0.57324	  0	0.90000	  0	 25	 87	 68	  0	
21-Apr-2013	sub2323	2323	  1	  1	 86	  6	  2	  2	  4	  1	  1	  1	  0	0.54968	  0	0.90000	  0	 22	 80	 81	  0	
21-Apr-2013	sub2323	2323	  1	  1	 87	  6	  2	  4	  2	  2	  1	  2	  1	0.57644	  1	0.90000	  0	 24	 62	 63	  0	
21-Apr-2013	sub2323	2323	  1	  1	 88	  6	  2	  1	  1	  2	  1	  1	  1	0.51187	  1	0.90000	  0	 21	 60	 61	  0	
21-Apr-2013	sub2323	2323	  1	  1	 89	  6	  2	  5	  5	  5	  0	  2	  1	0.53760	  0	0.90000	  0	 25	 87	 68	  0	
21-Apr-2013	sub2323	2323	  1	  1	 90	  6	  2	  6	  6	  5	  0	  1	  1	0.55666	  0	0.90000	  0	 26	 87	 68	  0	
21-Apr-2013	sub2323	2323	  1	  1	 91	  6	  2	  6	  6	  5	  1	  2	  1	1.04736	  1	0.90000	  1	 26	 65	 51	  0	
21-Apr-2013	sub2323	2323	  1	  1	 92	  6	  2	  1	  1	  2	  1	  1	  1	0.60119	  1	0.90000	  0	 21	 60	 61	  0	
21-Apr-2013	sub2323	2323	  1	  1	 93	  6	  2	  5	  5	  5	  0	  2	  1	0.73134	  0	0.90000	  0	 25	 87	 68	  0	
21-Apr-2013	sub2323	2323	  1	  1	 94	  6	  2	  4	  2	  2	  0	  2	  0	0.73346	  1	0.90000	  0	 24	 64	 89	  0	
21-Apr-2013	sub2323	2323	  1	  1	 95	  6	  2	  2	  4	  1	  1	  1	  0	0.46051	  0	0.90000	  0	 22	 80	 81	  1	
21-Apr-2013	sub2323	2323	  1	  1	 96	  6	  2	  1	  1	  2	  1	  2	  0	0.49527	  0	0.90000	  0	 21	 80	 81	  1	
21-Apr-2013	sub2323	2323	  1	  1	 97	  6	  2	  3	  3	  2	  0	  1	  0	0.46414	  1	0.90000	  0	 23	 64	 89	  1	
21-Apr-2013	sub2323	2323	  1	  1	 98	  6	  2	  3	  3	  2	  1	  1	  1	0.41619	  1	0.90000	  0	 23	 62	 63	  1	
21-Apr-2013	sub2323	2323	  1	  1	 99	  6	  2	  5	  5	  5	  0	  2	  1	0.79474	  0	0.90000	  0	 25	 87	 68	  0	
21-Apr-2013	sub2323	2323	  1	  1	100	  6	  2	  5	  5	  5	  0	  2	  1	0.50152	  0	0.90000	  0	 25	 87	 68	  0	
21-Apr-2013	sub2323	2323	  1	  1	101	  6	  2	  2	  4	  1	  1	  1	  0	0.61903	  0	0.90000	  0	 22	 80	 81	  0	
21-Apr-2013	sub2323	2323	  1	  1	102	  6	  2	  6	  6	  5	  1	  1	  0	0.66742	  0	0.90000	  0	 26	 85	 86	  0	
21-Apr-2013	sub2323	2323	  1	  1	103	  6	  2	  2	  4	  1	  1	  2	  1	0.61047	  1	0.90000	  0	 22	 60	 61	  0	
21-Apr-2013	sub2323	2323	  1	  1	104	  6	  2	  1	  1	  2	  1	  1	  1	0.68634	  1	0.90000	  0	 21	 60	 61	  0	
21-Apr-2013	sub2323	2323	  1	  1	105	  6	  2	  6	  6	  5	  0	  1	  1	0.73726	  0	0.90000	  0	 26	 87	 68	  0	
21-Apr-2013	sub2323	2323	  1	  1	106	  6	  2	  5	  5	  5	  0	  2	  1	0.61682	  0	0.90000	  0	 25	 87	 68	  0	
21-Apr-2013	sub2323	2323	  1	  1	107	  6	  2	  3	  3	  2	  1	  1	  1	0.51920	  1	0.90000	  0	 23	 62	 63	  0	
21-Apr-2013	sub2323	2323	  1	  1	108	  6	  2	  6	  6	  5	  0	  1	  1	0.60575	  0	0.90000	  0	 26	 87	 68	  0	
21-Apr-2013	sub2323	2323	  1	  1	109	  6	  2	  6	  6	  5	  1	  1	  0	0.60893	  0	0.90000	  0	 26	 85	 86	  0	
21-Apr-2013	sub2323	2323	  1	  1	110	  6	  2	  6	  6	  5	  0	  1	  1	0.44677	  0	0.90000	  0	 26	 87	 68	  1	
21-Apr-2013	sub2323	2323	  1	  1	111	  6	  2	  4	  2	  2	  1	  2	  1	0.54765	  1	0.90000	  0	 24	 62	 63	  0	
21-Apr-2013	sub2323	2323	  1	  1	112	  6	  2	  6	  6	  5	  1	  1	  0	0.49786	  0	0.90000	  0	 26	 85	 86	  1	
21-Apr-2013	sub2323	2323	  1	  1	113	  6	  2	  3	  3	  2	  0	  1	  0	0.49992	  1	0.90000	  0	 23	 64	 89	  1	
21-Apr-2013	sub2323	2323	  1	  1	114	  6	  2	  3	  3	  2	  1	  1	  1	0.44303	  1	0.90000	  0	 23	 62	 63	  1	
21-Apr-2013	sub2323	2323	  1	  1	115	  6	  2	  4	  2	  2	  1	  2	  1	0.58581	  1	0.90000	  0	 24	 62	 63	  0	
21-Apr-2013	sub2323	2323	  1	  1	116	  6	  2	  2	  4	  1	  1	  2	  1	0.60047	  1	0.80000	  0	 22	 60	 61	  0	
21-Apr-2013	sub2323	2323	  1	  1	117	  6	  2	  3	  3	  2	  1	  1	  1	0.53486	  1	0.80000	  0	 23	 62	 63	  0	
21-Apr-2013	sub2323	2323	  1	  1	118	  6	  2	  3	  3	  2	  1	  1	  1	0.45113	  1	0.80000	  0	 23	 62	 63	  1	
21-Apr-2013	sub2323	2323	  1	  1	119	  6	  2	  6	  6	  5	  1	  1	  0	0.56267	  0	0.80000	  0	 26	 85	 86	  0	
21-Apr-2013	sub2323	2323	  1	  1	120	  6	  2	  2	  4	  1	  1	  2	  1	0.62345	  1	0.80000	  0	 22	 60	 61	  0	
21-Apr-2013	sub2323	2323	  1	  1	121	  6	  2	  1	  1	  2	  1	  1	  1	0.58419	  1	0.80000	  0	 21	 60	 61	  0	
21-Apr-2013	sub2323	2323	  1	  1	122	  6	  2	  6	  6	  5	  0	  1	  1	0.47277	  0	0.80000	  0	 26	 87	 68	  1	
21-Apr-2013	sub2323	2323	  1	  1	123	  6	  2	  4	  2	  2	  1	  2	  1	0.59530	  1	0.80000	  0	 24	 62	 63	  0	
21-Apr-2013	sub2323	2323	  1	  1	124	  6	  2	  2	  4	  1	  1	  2	  1	0.68049	  1	0.80000	  0	 22	 60	 61	  0	
21-Apr-2013	sub2323	2323	  1	  1	125	  6	  2	  5	  5	  5	  0	  2	  1	0.79174	  0	0.80000	  0	 25	 87	 68	  0	
21-Apr-2013	sub2323	2323	  1	  1	126	  6	  2	  3	  3	  2	  1	  1	  1	0.54477	  1	0.80000	  0	 23	 62	 63	  0	
21-Apr-2013	sub2323	2323	  1	  1	127	  6	  2	  2	  4	  1	  1	  2	  1	0.59837	  1	0.80000	  0	 22	 60	 61	  0	
21-Apr-2013	sub2323	2323	  1	  1	128	  6	  2	  1	  1	  2	  1	  1	  1	0.54834	  1	0.80000	  0	 21	 60	 61	  0	
21-Apr-2013	sub2323	2323	  1	  1	129	  6	  2	  1	  1	  2	  1	  1	  1	0.65133	  1	0.80000	  0	 21	 60	 61	  0	
21-Apr-2013	sub2323	2323	  1	  1	130	  6	  2	  1	  1	  2	  1	  1	  1	0.54474	  1	0.80000	  0	 21	 60	 61	  0	
21-Apr-2013	sub2323	2323	  1	  1	131	  6	  2	  4	  2	  2	  1	  2	  1	0.70324	  1	0.80000	  0	 24	 62	 63	  0	
21-Apr-2013	sub2323	2323	  1	  1	132	  6	  2	  2	  4	  1	  1	  2	  1	0.70133	  1	0.80000	  0	 22	 60	 61	  0	
21-Apr-2013	sub2323	2323	  1	  1	133	  6	  2	  1	  1	  2	  1	  1	  1	0.47905	  1	0.80000	  0	 21	 60	 61	  1	
21-Apr-2013	sub2323	2323	  1	  1	134	  6	  2	  3	  3	  2	  1	  1	  1	0.56486	  1	0.80000	  0	 23	 62	 63	  0	
21-Apr-2013	sub2323	2323	  1	  1	135	  6	  2	  2	  4	  1	  1	  2	  1	0.63958	  1	0.70000	  0	 22	 60	 61	  0	
21-Apr-2013	sub2323	2323	  1	  1	136	  6	  2	  5	  5	  5	  0	  2	  1	0.63683	  0	0.70000	  0	 25	 87	 68	  0	
21-Apr-2013	sub2323	2323	  1	  1	137	  6	  2	  3	  3	  2	  1	  1	  1	0.44103	  1	0.70000	  0	 23	 62	 63	  1	
21-Apr-2013	sub2323	2323	  1	  1	138	  6	  2	  4	  2	  2	  1	  2	  1	0.57574	  1	0.70000	  0	 24	 62	 63	  0	
21-Apr-2013	sub2323	2323	  1	  1	139	  6	  2	  5	  5	  5	  0	  2	  1	0.70859	  0	0.70000	  1	 25	 87	 51	  0	
21-Apr-2013	sub2323	2323	  1	  1	140	  6	  2	  3	  3	  2	  1	  1	  1	0.53626	  1	0.80000	  0	 23	 62	 63	  0	
21-Apr-2013	sub2323	2323	  1	  1	141	  6	  2	  2	  4	  1	  1	  2	  1	0.67319	  1	0.80000	  0	 22	 60	 61	  0	
21-Apr-2013	sub2323	2323	  1	  1	142	  6	  2	  6	  6	  5	  1	  1	  0	0.54856	  0	0.80000	  0	 26	 85	 86	  0	
21-Apr-2013	sub2323	2323	  1	  1	143	  6	  2	  4	  2	  2	  1	  2	  1	0.60536	  1	0.80000	  0	 24	 62	 63	  0	
21-Apr-2013	sub2323	2323	  1	  1	144	  6	  2	  4	  2	  2	  0	  1	  1	0.60082	  0	0.80000	  0	 24	 84	 69	  0	
21-Apr-2013	sub2323	2323	  1	  1	145	  6	  2	  4	  2	  2	  1	  2	  1	0.66290	  1	0.80000	  0	 24	 62	 63	  0	
21-Apr-2013	sub2323	2323	  1	  1	146	  6	  2	  1	  1	  2	  1	  1	  1	0.53038	  1	0.80000	  0	 21	 60	 61	  0	
21-Apr-2013	sub2323	2323	  1	  1	147	  6	  2	  4	  2	  2	  1	  2	  1	0.54444	  1	0.80000	  0	 24	 62	 63	  0	
21-Apr-2013	sub2323	2323	  1	  1	148	  6	  2	  3	  3	  2	  1	  1	  1	0.44901	  1	0.80000	  0	 23	 62	 63	  1	
21-Apr-2013	sub2323	2323	  1	  1	149	  6	  2	  5	  5	  5	  0	  2	  1	0.60181	  0	0.80000	  0	 25	 87	 68	  0	
21-Apr-2013	sub2323	2323	  1	  1	150	  6	  2	  1	  1	  2	  1	  1	  1	0.53571	  1	0.80000	  0	 21	 60	 61	  0	
