Date 	 Name 	 ID 	 Gender 	 Appearance 	 Trial 	 Block 	 Bin 	 Condition 	 Category 	 Number 	 Valid 	 Keypress 	 Correct 	 RT 	 Realcorrect 	 Deadline 	 Timeout 	 Stimtrigger 	 Resptrigger 	 Fedtrigger 	 WithinTime 	 
22-Apr-2013	sub2324	2324	  2	  1	  1	  1	  1	  1	  5	  2	  1	  1	  1	3.18229	  1	0.60000	  1	 11	 30	 51	  0	
22-Apr-2013	sub2324	2324	  2	  1	  2	  1	  1	  5	  2	  3	  0	  2	  1	0.66405	  0	0.90000	  0	 15	 47	 38	  0	
22-Apr-2013	sub2324	2324	  2	  1	  3	  1	  1	  3	  1	  5	  1	  1	  1	0.88187	  1	0.90000	  0	 13	 32	 33	  0	
22-Apr-2013	sub2324	2324	  2	  1	  4	  1	  1	  5	  2	  3	  1	  2	  0	0.50984	  0	0.90000	  0	 15	 45	 46	  0	
22-Apr-2013	sub2324	2324	  2	  1	  5	  1	  1	  1	  5	  2	  1	  1	  1	0.68085	  1	0.90000	  0	 11	 30	 31	  0	
22-Apr-2013	sub2324	2324	  2	  1	  6	  1	  1	  1	  5	  2	  1	  1	  1	0.65027	  1	0.90000	  0	 11	 30	 31	  0	
22-Apr-2013	sub2324	2324	  2	  1	  7	  1	  1	  3	  1	  5	  1	  1	  1	0.65226	  1	0.90000	  0	 13	 32	 33	  0	
22-Apr-2013	sub2324	2324	  2	  1	  8	  1	  1	  5	  2	  3	  0	  1	  0	0.97541	  1	0.90000	  1	 15	 37	 51	  0	
22-Apr-2013	sub2324	2324	  2	  1	  9	  1	  1	  4	  4	  5	  0	  1	  1	0.32992	  0	0.90000	  0	 14	 44	 39	  1	
22-Apr-2013	sub2324	2324	  2	  1	 10	  1	  1	  3	  1	  5	  0	  1	  0	0.67231	  1	0.90000	  0	 13	 34	 49	  0	
22-Apr-2013	sub2324	2324	  2	  1	 11	  1	  1	  1	  5	  2	  1	  1	  1	0.49448	  1	0.90000	  0	 11	 30	 31	  1	
22-Apr-2013	sub2324	2324	  2	  1	 12	  1	  1	  4	  4	  5	  1	  2	  1	0.57513	  1	0.90000	  0	 14	 32	 33	  0	
22-Apr-2013	sub2324	2324	  2	  1	 13	  1	  1	  4	  4	  5	  1	  2	  1	0.52831	  1	0.90000	  0	 14	 32	 33	  0	
22-Apr-2013	sub2324	2324	  2	  1	 14	  1	  1	  1	  5	  2	  1	  1	  1	0.46603	  1	0.90000	  0	 11	 30	 31	  1	
22-Apr-2013	sub2324	2324	  2	  1	 15	  1	  1	  6	  3	  3	  0	  1	  1	0.64254	  0	0.90000	  0	 16	 47	 38	  0	
22-Apr-2013	sub2324	2324	  2	  1	 16	  1	  1	  3	  1	  5	  0	  1	  0	0.50893	  1	0.90000	  0	 13	 34	 49	  0	
22-Apr-2013	sub2324	2324	  2	  1	 17	  1	  1	  2	  6	  2	  1	  2	  1	0.71569	  1	0.90000	  0	 12	 30	 31	  0	
22-Apr-2013	sub2324	2324	  2	  1	 18	  1	  1	  4	  4	  5	  0	  2	  0	0.58359	  1	0.90000	  0	 14	 34	 49	  0	
22-Apr-2013	sub2324	2324	  2	  1	 19	  1	  1	  2	  6	  2	  1	  2	  1	0.42770	  1	0.90000	  0	 12	 30	 31	  1	
22-Apr-2013	sub2324	2324	  2	  1	 20	  1	  1	  3	  1	  5	  1	  1	  1	0.57718	  1	0.90000	  0	 13	 32	 33	  0	
22-Apr-2013	sub2324	2324	  2	  1	 21	  1	  1	  2	  6	  2	  1	  1	  0	0.54814	  0	0.90000	  0	 12	 40	 41	  0	
22-Apr-2013	sub2324	2324	  2	  1	 22	  1	  1	  4	  4	  5	  1	  2	  1	0.54195	  1	0.90000	  0	 14	 32	 33	  0	
22-Apr-2013	sub2324	2324	  2	  1	 23	  1	  1	  4	  4	  5	  1	  2	  1	0.56323	  1	0.90000	  0	 14	 32	 33	  0	
22-Apr-2013	sub2324	2324	  2	  1	 24	  1	  1	  2	  6	  2	  1	  2	  1	0.71714	  1	0.90000	  0	 12	 30	 31	  0	
22-Apr-2013	sub2324	2324	  2	  1	 25	  1	  1	  2	  6	  2	  1	  2	  1	0.53163	  1	0.90000	  0	 12	 30	 31	  0	
22-Apr-2013	sub2324	2324	  2	  1	 26	  1	  1	  2	  6	  2	  1	  2	  1	0.39050	  1	0.90000	  0	 12	 30	 31	  1	
22-Apr-2013	sub2324	2324	  2	  1	 27	  1	  1	  2	  6	  2	  1	  2	  1	0.54085	  1	0.90000	  0	 12	 30	 31	  0	
22-Apr-2013	sub2324	2324	  2	  1	 28	  1	  1	  4	  4	  5	  1	  1	  0	0.44906	  0	0.90000	  0	 14	 42	 43	  1	
22-Apr-2013	sub2324	2324	  2	  1	 29	  1	  1	  6	  3	  3	  0	  2	  0	0.60077	  1	0.90000	  0	 16	 37	 48	  0	
22-Apr-2013	sub2324	2324	  2	  1	 30	  1	  1	  6	  3	  3	  1	  1	  0	0.54331	  0	0.80000	  0	 16	 45	 46	  0	
22-Apr-2013	sub2324	2324	  2	  1	 31	  1	  1	  6	  3	  3	  1	  2	  1	0.12275	  1	0.80000	  0	 16	 35	 36	  1	
22-Apr-2013	sub2324	2324	  2	  1	 32	  1	  1	  3	  1	  5	  1	  1	  1	0.50773	  1	0.80000	  0	 13	 32	 33	  0	
22-Apr-2013	sub2324	2324	  2	  1	 33	  1	  1	  4	  4	  5	  1	  2	  1	0.58121	  1	0.80000	  0	 14	 32	 33	  0	
22-Apr-2013	sub2324	2324	  2	  1	 34	  1	  1	  5	  2	  3	  1	  2	  0	0.65622	  0	0.80000	  0	 15	 45	 46	  0	
22-Apr-2013	sub2324	2324	  2	  1	 35	  1	  1	  3	  1	  5	  1	  1	  1	0.49878	  1	0.70000	  0	 13	 32	 33	  1	
22-Apr-2013	sub2324	2324	  2	  1	 36	  1	  1	  1	  5	  2	  1	  2	  0	0.49770	  0	0.70000	  0	 11	 40	 41	  1	
22-Apr-2013	sub2324	2324	  2	  1	 37	  1	  1	  5	  2	  3	  1	  2	  0	0.70848	  0	0.70000	  1	 15	 45	 51	  0	
22-Apr-2013	sub2324	2324	  2	  1	 38	  1	  1	  6	  3	  3	  0	  2	  0	0.29223	  1	0.90000	  0	 16	 37	 48	  1	
22-Apr-2013	sub2324	2324	  2	  1	 39	  1	  1	  1	  5	  2	  1	  1	  1	0.44273	  1	0.90000	  0	 11	 30	 31	  1	
22-Apr-2013	sub2324	2324	  2	  1	 40	  1	  1	  6	  3	  3	  1	  2	  1	0.67072	  1	0.90000	  0	 16	 35	 36	  0	
22-Apr-2013	sub2324	2324	  2	  1	 41	  1	  1	  6	  3	  3	  1	  2	  1	0.47791	  1	0.90000	  0	 16	 35	 36	  1	
22-Apr-2013	sub2324	2324	  2	  1	 42	  1	  1	  5	  2	  3	  1	  2	  0	0.56762	  0	0.90000	  0	 15	 45	 46	  0	
22-Apr-2013	sub2324	2324	  2	  1	 43	  1	  1	  6	  3	  3	  0	  1	  1	0.32030	  0	0.90000	  0	 16	 47	 38	  1	
22-Apr-2013	sub2324	2324	  2	  1	 44	  1	  1	  3	  1	  5	  1	  1	  1	0.50628	  1	0.80000	  0	 13	 32	 33	  0	
22-Apr-2013	sub2324	2324	  2	  1	 45	  1	  1	  1	  5	  2	  1	  1	  1	0.47186	  1	0.80000	  0	 11	 30	 31	  1	
22-Apr-2013	sub2324	2324	  2	  1	 46	  1	  1	  1	  5	  2	  1	  1	  1	0.48997	  1	0.80000	  0	 11	 30	 31	  1	
22-Apr-2013	sub2324	2324	  2	  1	 47	  1	  1	  5	  2	  3	  0	  1	  0	0.42324	  1	0.80000	  0	 15	 37	 48	  1	
22-Apr-2013	sub2324	2324	  2	  1	 48	  1	  1	  5	  2	  3	  0	  2	  1	0.34846	  0	0.80000	  0	 15	 47	 38	  1	
22-Apr-2013	sub2324	2324	  2	  1	 49	  1	  1	  2	  6	  2	  1	  2	  1	0.54440	  1	0.80000	  0	 12	 30	 31	  0	
22-Apr-2013	sub2324	2324	  2	  1	 50	  1	  1	  6	  3	  3	  0	  2	  0	0.69262	  1	0.80000	  0	 16	 37	 48	  0	
22-Apr-2013	sub2324	2324	  2	  1	 51	  1	  1	  2	  6	  2	  1	  2	  1	0.52017	  1	0.70000	  0	 12	 30	 31	  0	
22-Apr-2013	sub2324	2324	  2	  1	 52	  1	  1	  4	  4	  5	  1	  1	  0	0.50793	  0	0.70000	  0	 14	 42	 43	  0	
22-Apr-2013	sub2324	2324	  2	  1	 53	  1	  1	  5	  2	  3	  1	  2	  0	0.28596	  0	0.70000	  0	 15	 45	 46	  1	
22-Apr-2013	sub2324	2324	  2	  1	 54	  1	  1	  3	  1	  5	  1	  2	  0	0.22327	  0	0.70000	  0	 13	 42	 43	  1	
22-Apr-2013	sub2324	2324	  2	  1	 55	  1	  1	  6	  3	  3	  0	  1	  1	0.42610	  0	0.70000	  0	 16	 47	 38	  1	
22-Apr-2013	sub2324	2324	  2	  1	 56	  1	  1	  6	  3	  3	  1	  1	  0	0.37717	  0	0.70000	  0	 16	 45	 46	  1	
22-Apr-2013	sub2324	2324	  2	  1	 57	  1	  1	  2	  6	  2	  1	  2	  1	0.24126	  1	0.70000	  0	 12	 30	 31	  1	
22-Apr-2013	sub2324	2324	  2	  1	 58	  1	  1	  1	  5	  2	  1	  2	  0	0.45750	  0	0.70000	  0	 11	 40	 41	  1	
22-Apr-2013	sub2324	2324	  2	  1	 59	  1	  1	  1	  5	  2	  1	  1	  1	0.40803	  1	0.70000	  0	 11	 30	 31	  1	
22-Apr-2013	sub2324	2324	  2	  1	 60	  1	  1	  4	  4	  5	  1	  2	  1	0.89277	  1	0.70000	  1	 14	 32	 51	  0	
22-Apr-2013	sub2324	2324	  2	  1	 61	  1	  1	  6	  3	  3	  0	  1	  1	0.11200	  0	0.80000	  0	 16	 47	 38	  1	
22-Apr-2013	sub2324	2324	  2	  1	 62	  1	  1	  6	  3	  3	  0	  1	  1	0.39110	  0	0.80000	  0	 16	 47	 38	  1	
22-Apr-2013	sub2324	2324	  2	  1	 63	  1	  1	  2	  6	  2	  1	  2	  1	0.48428	  1	0.80000	  0	 12	 30	 31	  1	
22-Apr-2013	sub2324	2324	  2	  1	 64	  1	  1	  3	  1	  5	  1	  1	  1	0.48858	  1	0.80000	  0	 13	 32	 33	  1	
22-Apr-2013	sub2324	2324	  2	  1	 65	  1	  1	  1	  5	  2	  1	  2	  0	0.68690	  0	0.80000	  0	 11	 40	 41	  0	
22-Apr-2013	sub2324	2324	  2	  1	 66	  1	  1	  2	  6	  2	  1	  1	  0	0.38759	  0	0.80000	  0	 12	 40	 41	  1	
22-Apr-2013	sub2324	2324	  2	  1	 67	  1	  1	  3	  1	  5	  1	  2	  0	0.42437	  0	0.80000	  0	 13	 42	 43	  1	
22-Apr-2013	sub2324	2324	  2	  1	 68	  1	  1	  2	  6	  2	  1	  2	  1	0.66411	  1	0.70000	  0	 12	 30	 31	  0	
22-Apr-2013	sub2324	2324	  2	  1	 69	  1	  1	  4	  4	  5	  1	  1	  0	0.68059	  0	0.70000	  0	 14	 42	 43	  0	
22-Apr-2013	sub2324	2324	  2	  1	 70	  1	  1	  3	  1	  5	  1	  1	  1	0.71082	  1	0.70000	  1	 13	 32	 51	  0	
22-Apr-2013	sub2324	2324	  2	  1	 71	  1	  1	  5	  2	  3	  0	  2	  1	0.47895	  0	0.90000	  0	 15	 47	 38	  1	
22-Apr-2013	sub2324	2324	  2	  1	 72	  1	  1	  4	  4	  5	  1	  1	  0	0.46694	  0	0.90000	  0	 14	 42	 43	  1	
22-Apr-2013	sub2324	2324	  2	  1	 73	  1	  1	  5	  2	  3	  1	  2	  0	0.42251	  0	0.80000	  0	 15	 45	 46	  1	
22-Apr-2013	sub2324	2324	  2	  1	 74	  1	  1	  5	  2	  3	  1	  2	  0	0.43002	  0	0.80000	  0	 15	 45	 46	  1	
22-Apr-2013	sub2324	2324	  2	  1	 75	  1	  1	  3	  1	  5	  0	  1	  0	0.55562	  1	0.80000	  0	 13	 34	 49	  0	
22-Apr-2013	sub2324	2324	  2	  1	  1	  2	  1	  1	  1	  3	  1	  1	  1	0.62768	  1	0.60000	  1	 11	 30	 51	  0	
22-Apr-2013	sub2324	2324	  2	  1	  2	  2	  1	  2	  6	  5	  1	  2	  1	0.51473	  1	0.90000	  0	 12	 30	 31	  0	
22-Apr-2013	sub2324	2324	  2	  1	  3	  2	  1	  2	  6	  5	  1	  2	  1	0.46646	  1	0.90000	  0	 12	 30	 31	  1	
22-Apr-2013	sub2324	2324	  2	  1	  4	  2	  1	  1	  1	  3	  1	  1	  1	0.63447	  1	0.90000	  0	 11	 30	 31	  0	
22-Apr-2013	sub2324	2324	  2	  1	  5	  2	  1	  4	  2	  4	  1	  2	  1	0.62331	  1	0.90000	  0	 14	 32	 33	  0	
22-Apr-2013	sub2324	2324	  2	  1	  6	  2	  1	  5	  4	  3	  1	  1	  1	0.66773	  1	0.90000	  0	 15	 35	 36	  0	
22-Apr-2013	sub2324	2324	  2	  1	  7	  2	  1	  6	  3	  4	  1	  1	  0	0.66145	  0	0.90000	  0	 16	 45	 46	  0	
22-Apr-2013	sub2324	2324	  2	  1	  8	  2	  1	  3	  5	  5	  1	  2	  0	0.48504	  0	0.90000	  0	 13	 42	 43	  1	
22-Apr-2013	sub2324	2324	  2	  1	  9	  2	  1	  6	  3	  4	  0	  1	  1	0.46971	  0	0.90000	  0	 16	 47	 38	  1	
22-Apr-2013	sub2324	2324	  2	  1	 10	  2	  1	  1	  1	  3	  1	  1	  1	0.94170	  1	0.90000	  1	 11	 30	 51	  0	
22-Apr-2013	sub2324	2324	  2	  1	 11	  2	  1	  1	  1	  3	  1	  2	  0	0.39794	  0	0.90000	  0	 11	 40	 41	  1	
22-Apr-2013	sub2324	2324	  2	  1	 12	  2	  1	  4	  2	  4	  1	  2	  1	0.52969	  1	0.90000	  0	 14	 32	 33	  0	
22-Apr-2013	sub2324	2324	  2	  1	 13	  2	  1	  2	  6	  5	  1	  1	  0	0.48942	  0	0.90000	  0	 12	 40	 41	  1	
22-Apr-2013	sub2324	2324	  2	  1	 14	  2	  1	  2	  6	  5	  1	  2	  1	0.45868	  1	0.90000	  0	 12	 30	 31	  1	
22-Apr-2013	sub2324	2324	  2	  1	 15	  2	  1	  6	  3	  4	  0	  1	  1	0.52587	  0	0.90000	  0	 16	 47	 38	  0	
22-Apr-2013	sub2324	2324	  2	  1	 16	  2	  1	  6	  3	  4	  1	  1	  0	0.50239	  0	0.90000	  0	 16	 45	 46	  0	
22-Apr-2013	sub2324	2324	  2	  1	 17	  2	  1	  4	  2	  4	  1	  2	  1	0.40430	  1	0.90000	  0	 14	 32	 33	  1	
22-Apr-2013	sub2324	2324	  2	  1	 18	  2	  1	  2	  6	  5	  1	  2	  1	0.46779	  1	0.90000	  0	 12	 30	 31	  1	
22-Apr-2013	sub2324	2324	  2	  1	 19	  2	  1	  5	  4	  3	  0	  2	  1	0.55892	  0	0.90000	  0	 15	 47	 38	  0	
22-Apr-2013	sub2324	2324	  2	  1	 20	  2	  1	  6	  3	  4	  0	  1	  1	0.45863	  0	0.90000	  0	 16	 47	 38	  1	
22-Apr-2013	sub2324	2324	  2	  1	 21	  2	  1	  3	  5	  5	  1	  2	  0	0.42587	  0	0.90000	  0	 13	 42	 43	  1	
22-Apr-2013	sub2324	2324	  2	  1	 22	  2	  1	  1	  1	  3	  1	  1	  1	0.52794	  1	0.90000	  0	 11	 30	 31	  0	
22-Apr-2013	sub2324	2324	  2	  1	 23	  2	  1	  1	  1	  3	  1	  1	  1	0.41166	  1	0.90000	  0	 11	 30	 31	  1	
22-Apr-2013	sub2324	2324	  2	  1	 24	  2	  1	  2	  6	  5	  1	  2	  1	0.41386	  1	0.90000	  0	 12	 30	 31	  1	
22-Apr-2013	sub2324	2324	  2	  1	 25	  2	  1	  6	  3	  4	  1	  1	  0	0.43682	  0	0.90000	  0	 16	 45	 46	  1	
22-Apr-2013	sub2324	2324	  2	  1	 26	  2	  1	  4	  2	  4	  0	  2	  0	0.49661	  1	0.90000	  0	 14	 34	 49	  1	
22-Apr-2013	sub2324	2324	  2	  1	 27	  2	  1	  2	  6	  5	  1	  2	  1	0.63634	  1	0.90000	  0	 12	 30	 31	  0	
22-Apr-2013	sub2324	2324	  2	  1	 28	  2	  1	  3	  5	  5	  1	  2	  0	0.52957	  0	0.90000	  0	 13	 42	 43	  0	
22-Apr-2013	sub2324	2324	  2	  1	 29	  2	  1	  3	  5	  5	  0	  1	  0	0.41221	  1	0.90000	  0	 13	 34	 49	  1	
22-Apr-2013	sub2324	2324	  2	  1	 30	  2	  1	  6	  3	  4	  0	  1	  1	0.44566	  0	0.80000	  0	 16	 47	 38	  1	
22-Apr-2013	sub2324	2324	  2	  1	 31	  2	  1	  5	  4	  3	  1	  2	  0	0.49056	  0	0.80000	  0	 15	 45	 46	  1	
22-Apr-2013	sub2324	2324	  2	  1	 32	  2	  1	  3	  5	  5	  0	  2	  1	0.36151	  0	0.80000	  0	 13	 44	 39	  1	
22-Apr-2013	sub2324	2324	  2	  1	 33	  2	  1	  6	  3	  4	  0	  1	  1	0.50337	  0	0.80000	  0	 16	 47	 38	  0	
22-Apr-2013	sub2324	2324	  2	  1	 34	  2	  1	  1	  1	  3	  1	  1	  1	0.63887	  1	0.80000	  0	 11	 30	 31	  0	
22-Apr-2013	sub2324	2324	  2	  1	 35	  2	  1	  2	  6	  5	  1	  2	  1	0.43431	  1	0.70000	  0	 12	 30	 31	  1	
22-Apr-2013	sub2324	2324	  2	  1	 36	  2	  1	  6	  3	  4	  0	  2	  0	0.35668	  1	0.70000	  0	 16	 37	 48	  1	
22-Apr-2013	sub2324	2324	  2	  1	 37	  2	  1	  3	  5	  5	  1	  2	  0	0.46227	  0	0.70000	  0	 13	 42	 43	  1	
22-Apr-2013	sub2324	2324	  2	  1	 38	  2	  1	  4	  2	  4	  0	  1	  1	0.68745	  0	0.70000	  0	 14	 44	 39	  0	
22-Apr-2013	sub2324	2324	  2	  1	 39	  2	  1	  4	  2	  4	  1	  2	  1	0.48550	  1	0.70000	  0	 14	 32	 33	  1	
22-Apr-2013	sub2324	2324	  2	  1	 40	  2	  1	  3	  5	  5	  1	  2	  0	0.54359	  0	0.70000	  0	 13	 42	 43	  0	
22-Apr-2013	sub2324	2324	  2	  1	 41	  2	  1	  5	  4	  3	  1	  2	  0	0.54966	  0	0.60000	  0	 15	 45	 46	  0	
22-Apr-2013	sub2324	2324	  2	  1	 42	  2	  1	  2	  6	  5	  1	  2	  1	0.49983	  1	0.60000	  0	 12	 30	 31	  1	
22-Apr-2013	sub2324	2324	  2	  1	 43	  2	  1	  6	  3	  4	  0	  1	  1	0.46650	  0	0.60000	  0	 16	 47	 38	  1	
22-Apr-2013	sub2324	2324	  2	  1	 44	  2	  1	  4	  2	  4	  1	  2	  1	0.44574	  1	0.60000	  0	 14	 32	 33	  1	
22-Apr-2013	sub2324	2324	  2	  1	 45	  2	  1	  4	  2	  4	  1	  2	  1	0.47549	  1	0.60000	  0	 14	 32	 33	  1	
22-Apr-2013	sub2324	2324	  2	  1	 46	  2	  1	  3	  5	  5	  1	  2	  0	0.56960	  0	0.60000	  0	 13	 42	 43	  0	
22-Apr-2013	sub2324	2324	  2	  1	 47	  2	  1	  5	  4	  3	  0	  2	  1	0.50377	  0	0.60000	  0	 15	 47	 38	  0	
22-Apr-2013	sub2324	2324	  2	  1	 48	  2	  1	  6	  3	  4	  1	  1	  0	0.46230	  0	0.60000	  0	 16	 45	 46	  1	
22-Apr-2013	sub2324	2324	  2	  1	 49	  2	  1	  5	  4	  3	  1	  2	  0	0.52524	  0	0.60000	  0	 15	 45	 46	  0	
22-Apr-2013	sub2324	2324	  2	  1	 50	  2	  1	  6	  3	  4	  1	  1	  0	0.43022	  0	0.60000	  0	 16	 45	 46	  1	
22-Apr-2013	sub2324	2324	  2	  1	 51	  2	  1	  5	  4	  3	  0	  2	  1	0.46214	  0	0.50000	  0	 15	 47	 38	  1	
22-Apr-2013	sub2324	2324	  2	  1	 52	  2	  1	  2	  6	  5	  1	  2	  1	0.47632	  1	0.50000	  0	 12	 30	 31	  1	
22-Apr-2013	sub2324	2324	  2	  1	 53	  2	  1	  1	  1	  3	  1	  1	  1	0.55843	  1	0.50000	  1	 11	 30	 51	  0	
22-Apr-2013	sub2324	2324	  2	  1	 54	  2	  1	  5	  4	  3	  1	  2	  0	0.54527	  0	0.70000	  0	 15	 45	 46	  0	
22-Apr-2013	sub2324	2324	  2	  1	 55	  2	  1	  3	  5	  5	  1	  1	  1	0.60407	  1	0.70000	  0	 13	 32	 33	  0	
22-Apr-2013	sub2324	2324	  2	  1	 56	  2	  1	  5	  4	  3	  1	  2	  0	0.47594	  0	0.70000	  0	 15	 45	 46	  1	
22-Apr-2013	sub2324	2324	  2	  1	 57	  2	  1	  5	  4	  3	  1	  1	  1	0.52084	  1	0.70000	  0	 15	 35	 36	  0	
22-Apr-2013	sub2324	2324	  2	  1	 58	  2	  1	  6	  3	  4	  0	  1	  1	0.48289	  0	0.70000	  0	 16	 47	 38	  1	
22-Apr-2013	sub2324	2324	  2	  1	 59	  2	  1	  2	  6	  5	  1	  2	  1	0.50404	  1	0.70000	  0	 12	 30	 31	  0	
22-Apr-2013	sub2324	2324	  2	  1	 60	  2	  1	  1	  1	  3	  1	  1	  1	0.43037	  1	0.70000	  0	 11	 30	 31	  1	
22-Apr-2013	sub2324	2324	  2	  1	 61	  2	  1	  4	  2	  4	  1	  2	  1	0.42755	  1	0.60000	  0	 14	 32	 33	  1	
22-Apr-2013	sub2324	2324	  2	  1	 62	  2	  1	  5	  4	  3	  0	  2	  1	0.42950	  0	0.60000	  0	 15	 47	 38	  1	
22-Apr-2013	sub2324	2324	  2	  1	 63	  2	  1	  3	  5	  5	  1	  1	  1	0.49078	  1	0.60000	  0	 13	 32	 33	  1	
22-Apr-2013	sub2324	2324	  2	  1	 64	  2	  1	  4	  2	  4	  1	  2	  1	0.42516	  1	0.60000	  0	 14	 32	 33	  1	
22-Apr-2013	sub2324	2324	  2	  1	 65	  2	  1	  2	  6	  5	  1	  2	  1	0.42771	  1	0.60000	  0	 12	 30	 31	  1	
22-Apr-2013	sub2324	2324	  2	  1	 66	  2	  1	  3	  5	  5	  1	  1	  1	0.59955	  1	0.60000	  0	 13	 32	 33	  0	
22-Apr-2013	sub2324	2324	  2	  1	 67	  2	  1	  3	  5	  5	  0	  1	  0	0.47744	  1	0.60000	  0	 13	 34	 49	  1	
22-Apr-2013	sub2324	2324	  2	  1	 68	  2	  1	  4	  2	  4	  1	  2	  1	0.47301	  1	0.60000	  0	 14	 32	 33	  1	
22-Apr-2013	sub2324	2324	  2	  1	 69	  2	  1	  4	  2	  4	  1	  2	  1	0.46709	  1	0.60000	  0	 14	 32	 33	  1	
22-Apr-2013	sub2324	2324	  2	  1	 70	  2	  1	  3	  5	  5	  1	  1	  1	0.48880	  1	0.60000	  0	 13	 32	 33	  1	
22-Apr-2013	sub2324	2324	  2	  1	 71	  2	  1	  5	  4	  3	  0	  2	  1	0.52540	  0	0.60000	  0	 15	 47	 38	  0	
22-Apr-2013	sub2324	2324	  2	  1	 72	  2	  1	  1	  1	  3	  1	  1	  1	0.43943	  1	0.60000	  0	 11	 30	 31	  1	
22-Apr-2013	sub2324	2324	  2	  1	 73	  2	  1	  1	  1	  3	  1	  2	  0	0.42084	  0	0.60000	  0	 11	 40	 41	  1	
22-Apr-2013	sub2324	2324	  2	  1	 74	  2	  1	  2	  6	  5	  1	  2	  1	0.57714	  1	0.60000	  0	 12	 30	 31	  0	
22-Apr-2013	sub2324	2324	  2	  1	 75	  2	  1	  1	  1	  3	  1	  1	  1	0.47213	  1	0.60000	  0	 11	 30	 31	  1	
22-Apr-2013	sub2324	2324	  2	  1	 76	  2	  2	  3	  5	  5	  1	  1	  1	0.42184	  1	0.50000	  0	 23	 62	 63	  1	
22-Apr-2013	sub2324	2324	  2	  1	 77	  2	  2	  3	  5	  5	  0	  1	  0	0.48280	  1	0.50000	  0	 23	 64	 89	  1	
22-Apr-2013	sub2324	2324	  2	  1	 78	  2	  2	  5	  4	  3	  0	  2	  1	0.47886	  0	0.50000	  0	 25	 87	 68	  1	
22-Apr-2013	sub2324	2324	  2	  1	 79	  2	  2	  4	  2	  4	  1	  2	  1	0.54969	  1	0.50000	  1	 24	 62	 51	  0	
22-Apr-2013	sub2324	2324	  2	  1	 80	  2	  2	  6	  3	  4	  0	  1	  1	0.47270	  0	0.70000	  0	 26	 87	 68	  1	
22-Apr-2013	sub2324	2324	  2	  1	 81	  2	  2	  6	  3	  4	  0	  1	  1	0.45903	  0	0.60000	  0	 26	 87	 68	  1	
22-Apr-2013	sub2324	2324	  2	  1	 82	  2	  2	  4	  2	  4	  1	  2	  1	0.44991	  1	0.60000	  0	 24	 62	 63	  1	
22-Apr-2013	sub2324	2324	  2	  1	 83	  2	  2	  5	  4	  3	  0	  2	  1	0.48857	  0	0.60000	  0	 25	 87	 68	  1	
22-Apr-2013	sub2324	2324	  2	  1	 84	  2	  2	  4	  2	  4	  0	  2	  0	0.50171	  1	0.60000	  0	 24	 64	 89	  0	
22-Apr-2013	sub2324	2324	  2	  1	 85	  2	  2	  2	  6	  5	  1	  2	  1	0.52666	  1	0.60000	  0	 22	 60	 61	  0	
22-Apr-2013	sub2324	2324	  2	  1	 86	  2	  2	  2	  6	  5	  1	  2	  1	0.46934	  1	0.60000	  0	 22	 60	 61	  1	
22-Apr-2013	sub2324	2324	  2	  1	 87	  2	  2	  6	  3	  4	  0	  1	  1	0.47657	  0	0.60000	  0	 26	 87	 68	  1	
22-Apr-2013	sub2324	2324	  2	  1	 88	  2	  2	  5	  4	  3	  0	  2	  1	0.46790	  0	0.60000	  0	 25	 87	 68	  1	
22-Apr-2013	sub2324	2324	  2	  1	 89	  2	  2	  2	  6	  5	  1	  2	  1	0.51266	  1	0.60000	  0	 22	 60	 61	  0	
22-Apr-2013	sub2324	2324	  2	  1	 90	  2	  2	  3	  5	  5	  1	  1	  1	0.57171	  1	0.60000	  0	 23	 62	 63	  0	
22-Apr-2013	sub2324	2324	  2	  1	 91	  2	  2	  3	  5	  5	  1	  1	  1	0.36926	  1	0.60000	  0	 23	 62	 63	  1	
22-Apr-2013	sub2324	2324	  2	  1	 92	  2	  2	  4	  2	  4	  1	  2	  1	0.47615	  1	0.60000	  0	 24	 62	 63	  1	
22-Apr-2013	sub2324	2324	  2	  1	 93	  2	  2	  3	  5	  5	  1	  1	  1	0.68536	  1	0.60000	  1	 23	 62	 51	  0	
22-Apr-2013	sub2324	2324	  2	  1	 94	  2	  2	  4	  2	  4	  1	  2	  1	0.50722	  1	0.70000	  0	 24	 62	 63	  0	
22-Apr-2013	sub2324	2324	  2	  1	 95	  2	  2	  5	  4	  3	  0	  2	  1	0.48731	  0	0.70000	  0	 25	 87	 68	  1	
22-Apr-2013	sub2324	2324	  2	  1	 96	  2	  2	  6	  3	  4	  1	  1	  0	0.43009	  0	0.70000	  0	 26	 85	 86	  1	
22-Apr-2013	sub2324	2324	  2	  1	 97	  2	  2	  1	  1	  3	  1	  1	  1	0.38852	  1	0.70000	  0	 21	 60	 61	  1	
22-Apr-2013	sub2324	2324	  2	  1	 98	  2	  2	  6	  3	  4	  1	  1	  0	0.47603	  0	0.70000	  0	 26	 85	 86	  1	
22-Apr-2013	sub2324	2324	  2	  1	 99	  2	  2	  6	  3	  4	  1	  1	  0	0.37360	  0	0.70000	  0	 26	 85	 86	  1	
22-Apr-2013	sub2324	2324	  2	  1	100	  2	  2	  5	  4	  3	  0	  2	  1	0.43945	  0	0.70000	  0	 25	 87	 68	  1	
22-Apr-2013	sub2324	2324	  2	  1	101	  2	  2	  2	  6	  5	  1	  2	  1	0.56136	  1	0.60000	  0	 22	 60	 61	  0	
22-Apr-2013	sub2324	2324	  2	  1	102	  2	  2	  2	  6	  5	  1	  2	  1	0.52506	  1	0.60000	  0	 22	 60	 61	  0	
22-Apr-2013	sub2324	2324	  2	  1	103	  2	  2	  1	  1	  3	  1	  1	  1	0.51725	  1	0.60000	  0	 21	 60	 61	  0	
22-Apr-2013	sub2324	2324	  2	  1	104	  2	  2	  3	  5	  5	  1	  1	  1	0.45418	  1	0.60000	  0	 23	 62	 63	  1	
22-Apr-2013	sub2324	2324	  2	  1	105	  2	  2	  5	  4	  3	  0	  2	  1	0.39703	  0	0.60000	  0	 25	 87	 68	  1	
22-Apr-2013	sub2324	2324	  2	  1	106	  2	  2	  5	  4	  3	  0	  1	  0	0.41105	  1	0.60000	  0	 25	 67	 88	  1	
22-Apr-2013	sub2324	2324	  2	  1	107	  2	  2	  2	  6	  5	  1	  2	  1	0.40920	  1	0.60000	  0	 22	 60	 61	  1	
22-Apr-2013	sub2324	2324	  2	  1	108	  2	  2	  5	  4	  3	  0	  2	  1	0.42480	  0	0.60000	  0	 25	 87	 68	  1	
22-Apr-2013	sub2324	2324	  2	  1	109	  2	  2	  4	  2	  4	  1	  2	  1	0.51629	  1	0.60000	  0	 24	 62	 63	  0	
22-Apr-2013	sub2324	2324	  2	  1	110	  2	  2	  5	  4	  3	  0	  1	  0	0.47807	  1	0.60000	  0	 25	 67	 88	  1	
22-Apr-2013	sub2324	2324	  2	  1	111	  2	  2	  1	  1	  3	  1	  1	  1	0.49862	  1	0.60000	  0	 21	 60	 61	  1	
22-Apr-2013	sub2324	2324	  2	  1	112	  2	  2	  4	  2	  4	  1	  2	  1	0.43423	  1	0.60000	  0	 24	 62	 63	  1	
22-Apr-2013	sub2324	2324	  2	  1	113	  2	  2	  1	  1	  3	  1	  1	  1	0.48711	  1	0.60000	  0	 21	 60	 61	  1	
22-Apr-2013	sub2324	2324	  2	  1	114	  2	  2	  2	  6	  5	  1	  2	  1	0.52262	  1	0.60000	  0	 22	 60	 61	  0	
22-Apr-2013	sub2324	2324	  2	  1	115	  2	  2	  3	  5	  5	  1	  1	  1	0.46265	  1	0.60000	  0	 23	 62	 63	  1	
22-Apr-2013	sub2324	2324	  2	  1	116	  2	  2	  5	  4	  3	  0	  2	  1	0.59534	  0	0.60000	  0	 25	 87	 68	  0	
22-Apr-2013	sub2324	2324	  2	  1	117	  2	  2	  4	  2	  4	  1	  1	  0	0.70732	  0	0.60000	  1	 24	 82	 51	  0	
22-Apr-2013	sub2324	2324	  2	  1	118	  2	  2	  4	  2	  4	  1	  2	  1	0.40911	  1	0.70000	  0	 24	 62	 63	  1	
22-Apr-2013	sub2324	2324	  2	  1	119	  2	  2	  4	  2	  4	  1	  2	  1	0.40389	  1	0.70000	  0	 24	 62	 63	  1	
22-Apr-2013	sub2324	2324	  2	  1	120	  2	  2	  1	  1	  3	  1	  1	  1	0.49193	  1	0.70000	  0	 21	 60	 61	  1	
22-Apr-2013	sub2324	2324	  2	  1	121	  2	  2	  2	  6	  5	  1	  2	  1	0.49293	  1	0.60000	  0	 22	 60	 61	  1	
22-Apr-2013	sub2324	2324	  2	  1	122	  2	  2	  1	  1	  3	  1	  1	  1	0.48506	  1	0.60000	  0	 21	 60	 61	  1	
22-Apr-2013	sub2324	2324	  2	  1	123	  2	  2	  1	  1	  3	  1	  2	  0	0.40543	  0	0.60000	  0	 21	 80	 81	  1	
22-Apr-2013	sub2324	2324	  2	  1	124	  2	  2	  1	  1	  3	  1	  1	  1	0.48592	  1	0.60000	  0	 21	 60	 61	  1	
22-Apr-2013	sub2324	2324	  2	  1	125	  2	  2	  3	  5	  5	  1	  2	  0	0.44537	  0	0.60000	  0	 23	 82	 83	  1	
22-Apr-2013	sub2324	2324	  2	  1	126	  2	  2	  2	  6	  5	  1	  2	  1	0.61656	  1	0.60000	  1	 22	 60	 51	  0	
22-Apr-2013	sub2324	2324	  2	  1	127	  2	  2	  3	  5	  5	  1	  1	  1	0.47117	  1	0.70000	  0	 23	 62	 63	  1	
22-Apr-2013	sub2324	2324	  2	  1	128	  2	  2	  6	  3	  4	  1	  1	  0	0.48097	  0	0.70000	  0	 26	 85	 86	  1	
22-Apr-2013	sub2324	2324	  2	  1	129	  2	  2	  4	  2	  4	  0	  2	  0	0.43965	  1	0.70000	  0	 24	 64	 89	  1	
22-Apr-2013	sub2324	2324	  2	  1	130	  2	  2	  2	  6	  5	  1	  2	  1	0.48554	  1	0.70000	  0	 22	 60	 61	  1	
22-Apr-2013	sub2324	2324	  2	  1	131	  2	  2	  3	  5	  5	  0	  2	  1	0.41684	  0	0.70000	  0	 23	 84	 69	  1	
22-Apr-2013	sub2324	2324	  2	  1	132	  2	  2	  5	  4	  3	  0	  2	  1	0.48619	  0	0.70000	  0	 25	 87	 68	  1	
22-Apr-2013	sub2324	2324	  2	  1	133	  2	  2	  1	  1	  3	  1	  1	  1	0.45306	  1	0.70000	  0	 21	 60	 61	  1	
22-Apr-2013	sub2324	2324	  2	  1	134	  2	  2	  1	  1	  3	  1	  1	  1	0.43240	  1	0.70000	  0	 21	 60	 61	  1	
22-Apr-2013	sub2324	2324	  2	  1	135	  2	  2	  6	  3	  4	  0	  1	  1	0.44956	  0	0.70000	  0	 26	 87	 68	  1	
22-Apr-2013	sub2324	2324	  2	  1	136	  2	  2	  6	  3	  4	  0	  1	  1	0.37310	  0	0.70000	  0	 26	 87	 68	  1	
22-Apr-2013	sub2324	2324	  2	  1	137	  2	  2	  1	  1	  3	  1	  1	  1	0.51388	  1	0.70000	  0	 21	 60	 61	  0	
22-Apr-2013	sub2324	2324	  2	  1	138	  2	  2	  6	  3	  4	  0	  1	  1	0.45413	  0	0.70000	  0	 26	 87	 68	  1	
22-Apr-2013	sub2324	2324	  2	  1	139	  2	  2	  3	  5	  5	  1	  2	  0	0.42800	  0	0.70000	  0	 23	 82	 83	  1	
22-Apr-2013	sub2324	2324	  2	  1	140	  2	  2	  2	  6	  5	  1	  2	  1	0.52668	  1	0.70000	  0	 22	 60	 61	  0	
22-Apr-2013	sub2324	2324	  2	  1	141	  2	  2	  6	  3	  4	  1	  1	  0	0.47215	  0	0.60000	  0	 26	 85	 86	  1	
22-Apr-2013	sub2324	2324	  2	  1	142	  2	  2	  6	  3	  4	  1	  1	  0	0.38916	  0	0.60000	  0	 26	 85	 86	  1	
22-Apr-2013	sub2324	2324	  2	  1	143	  2	  2	  1	  1	  3	  1	  1	  1	0.50583	  1	0.60000	  0	 21	 60	 61	  0	
22-Apr-2013	sub2324	2324	  2	  1	144	  2	  2	  5	  4	  3	  0	  2	  1	0.40347	  0	0.60000	  0	 25	 87	 68	  1	
22-Apr-2013	sub2324	2324	  2	  1	145	  2	  2	  2	  6	  5	  1	  2	  1	0.45987	  1	0.60000	  0	 22	 60	 61	  1	
22-Apr-2013	sub2324	2324	  2	  1	146	  2	  2	  4	  2	  4	  0	  2	  0	0.49354	  1	0.60000	  0	 24	 64	 89	  1	
22-Apr-2013	sub2324	2324	  2	  1	147	  2	  2	  4	  2	  4	  1	  2	  1	0.33824	  1	0.60000	  0	 24	 62	 63	  1	
22-Apr-2013	sub2324	2324	  2	  1	148	  2	  2	  3	  5	  5	  1	  1	  1	0.68505	  1	0.60000	  1	 23	 62	 51	  0	
22-Apr-2013	sub2324	2324	  2	  1	149	  2	  2	  5	  4	  3	  0	  2	  1	0.44186	  0	0.70000	  0	 25	 87	 68	  1	
22-Apr-2013	sub2324	2324	  2	  1	150	  2	  2	  1	  1	  3	  1	  1	  1	0.46954	  1	0.70000	  0	 21	 60	 61	  1	
22-Apr-2013	sub2324	2324	  2	  1	  1	  3	  1	  6	  1	  2	  1	  1	  0	0.53620	  0	0.60000	  0	 16	 45	 46	  0	
22-Apr-2013	sub2324	2324	  2	  1	  2	  3	  1	  4	  4	  6	  1	  2	  1	0.47848	  1	0.30000	  1	 14	 32	 51	  1	
22-Apr-2013	sub2324	2324	  2	  1	  3	  3	  1	  4	  4	  6	  1	  2	  1	0.48954	  1	0.90000	  0	 14	 32	 33	  1	
22-Apr-2013	sub2324	2324	  2	  1	  4	  3	  1	  4	  4	  6	  1	  2	  1	0.38353	  1	0.90000	  0	 14	 32	 33	  1	
22-Apr-2013	sub2324	2324	  2	  1	  5	  3	  1	  3	  6	  6	  1	  1	  1	0.44379	  1	0.90000	  0	 13	 32	 33	  1	
22-Apr-2013	sub2324	2324	  2	  1	  6	  3	  1	  1	  2	  2	  1	  2	  0	0.51983	  0	0.90000	  0	 11	 40	 41	  0	
22-Apr-2013	sub2324	2324	  2	  1	  7	  3	  1	  3	  6	  6	  1	  1	  1	0.38658	  1	0.90000	  0	 13	 32	 33	  1	
22-Apr-2013	sub2324	2324	  2	  1	  8	  3	  1	  4	  4	  6	  1	  2	  1	0.47204	  1	0.90000	  0	 14	 32	 33	  1	
22-Apr-2013	sub2324	2324	  2	  1	  9	  3	  1	  5	  5	  6	  0	  2	  1	0.64559	  0	0.90000	  0	 15	 47	 38	  0	
22-Apr-2013	sub2324	2324	  2	  1	 10	  3	  1	  1	  2	  2	  1	  2	  0	0.73171	  0	0.90000	  0	 11	 40	 41	  0	
22-Apr-2013	sub2324	2324	  2	  1	 11	  3	  1	  4	  4	  6	  1	  2	  1	0.53708	  1	0.90000	  0	 14	 32	 33	  0	
22-Apr-2013	sub2324	2324	  2	  1	 12	  3	  1	  3	  6	  6	  0	  1	  0	0.43958	  1	0.90000	  0	 13	 34	 49	  1	
22-Apr-2013	sub2324	2324	  2	  1	 13	  3	  1	  4	  4	  6	  0	  2	  0	0.51952	  1	0.90000	  0	 14	 34	 49	  0	
22-Apr-2013	sub2324	2324	  2	  1	 14	  3	  1	  1	  2	  2	  1	  2	  0	0.42737	  0	0.90000	  0	 11	 40	 41	  1	
22-Apr-2013	sub2324	2324	  2	  1	 15	  3	  1	  5	  5	  6	  1	  1	  1	0.69687	  1	0.90000	  0	 15	 35	 36	  0	
22-Apr-2013	sub2324	2324	  2	  1	 16	  3	  1	  3	  6	  6	  0	  1	  0	0.59741	  1	0.80000	  0	 13	 34	 49	  0	
22-Apr-2013	sub2324	2324	  2	  1	 17	  3	  1	  6	  1	  2	  1	  1	  0	0.50230	  0	0.80000	  0	 16	 45	 46	  0	
22-Apr-2013	sub2324	2324	  2	  1	 18	  3	  1	  3	  6	  6	  0	  2	  1	0.52565	  0	0.70000	  0	 13	 44	 39	  0	
22-Apr-2013	sub2324	2324	  2	  1	 19	  3	  1	  2	  3	  2	  1	  1	  0	0.65854	  0	0.70000	  0	 12	 40	 41	  0	
22-Apr-2013	sub2324	2324	  2	  1	 20	  3	  1	  6	  1	  2	  0	  1	  1	0.58826	  0	0.70000	  0	 16	 47	 38	  0	
22-Apr-2013	sub2324	2324	  2	  1	 21	  3	  1	  6	  1	  2	  1	  1	  0	0.43436	  0	0.60000	  0	 16	 45	 46	  1	
22-Apr-2013	sub2324	2324	  2	  1	 22	  3	  1	  1	  2	  2	  1	  2	  0	0.45414	  0	0.60000	  0	 11	 40	 41	  1	
22-Apr-2013	sub2324	2324	  2	  1	 23	  3	  1	  1	  2	  2	  1	  1	  1	0.40659	  1	0.60000	  0	 11	 30	 31	  1	
22-Apr-2013	sub2324	2324	  2	  1	 24	  3	  1	  4	  4	  6	  1	  2	  1	0.50442	  1	0.60000	  0	 14	 32	 33	  0	
22-Apr-2013	sub2324	2324	  2	  1	 25	  3	  1	  5	  5	  6	  1	  2	  0	0.56304	  0	0.60000	  0	 15	 45	 46	  0	
22-Apr-2013	sub2324	2324	  2	  1	 26	  3	  1	  1	  2	  2	  1	  1	  1	0.68969	  1	0.50000	  1	 11	 30	 51	  0	
22-Apr-2013	sub2324	2324	  2	  1	 27	  3	  1	  4	  4	  6	  1	  1	  0	0.37104	  0	0.90000	  0	 14	 42	 43	  1	
22-Apr-2013	sub2324	2324	  2	  1	 28	  3	  1	  2	  3	  2	  1	  1	  0	0.51967	  0	0.90000	  0	 12	 40	 41	  0	
22-Apr-2013	sub2324	2324	  2	  1	 29	  3	  1	  4	  4	  6	  1	  2	  1	0.41725	  1	0.90000	  0	 14	 32	 33	  1	
22-Apr-2013	sub2324	2324	  2	  1	 30	  3	  1	  5	  5	  6	  0	  2	  1	0.51063	  0	0.80000	  0	 15	 47	 38	  0	
22-Apr-2013	sub2324	2324	  2	  1	 31	  3	  1	  2	  3	  2	  1	  2	  1	0.65098	  1	0.80000	  0	 12	 30	 31	  0	
22-Apr-2013	sub2324	2324	  2	  1	 32	  3	  1	  2	  3	  2	  1	  2	  1	0.40911	  1	0.80000	  0	 12	 30	 31	  1	
22-Apr-2013	sub2324	2324	  2	  1	 33	  3	  1	  3	  6	  6	  1	  1	  1	0.50731	  1	0.80000	  0	 13	 32	 33	  0	
22-Apr-2013	sub2324	2324	  2	  1	 34	  3	  1	  1	  2	  2	  1	  1	  1	0.58514	  1	0.80000	  0	 11	 30	 31	  0	
22-Apr-2013	sub2324	2324	  2	  1	 35	  3	  1	  4	  4	  6	  1	  2	  1	0.45843	  1	0.70000	  0	 14	 32	 33	  1	
22-Apr-2013	sub2324	2324	  2	  1	 36	  3	  1	  5	  5	  6	  1	  2	  0	0.55625	  0	0.70000	  0	 15	 45	 46	  0	
22-Apr-2013	sub2324	2324	  2	  1	 37	  3	  1	  2	  3	  2	  1	  1	  0	0.60747	  0	0.70000	  0	 12	 40	 41	  0	
22-Apr-2013	sub2324	2324	  2	  1	 38	  3	  1	  4	  4	  6	  0	  2	  0	0.50488	  1	0.70000	  0	 14	 34	 49	  0	
22-Apr-2013	sub2324	2324	  2	  1	 39	  3	  1	  5	  5	  6	  1	  1	  1	0.67607	  1	0.70000	  0	 15	 35	 36	  0	
22-Apr-2013	sub2324	2324	  2	  1	 40	  3	  1	  4	  4	  6	  1	  2	  1	0.44108	  1	0.70000	  0	 14	 32	 33	  1	
22-Apr-2013	sub2324	2324	  2	  1	 41	  3	  1	  5	  5	  6	  0	  2	  1	0.56539	  0	0.60000	  0	 15	 47	 38	  0	
22-Apr-2013	sub2324	2324	  2	  1	 42	  3	  1	  2	  3	  2	  1	  2	  1	0.54776	  1	0.60000	  0	 12	 30	 31	  0	
22-Apr-2013	sub2324	2324	  2	  1	 43	  3	  1	  2	  3	  2	  1	  2	  1	0.44452	  1	0.60000	  0	 12	 30	 31	  1	
22-Apr-2013	sub2324	2324	  2	  1	 44	  3	  1	  2	  3	  2	  1	  2	  1	0.40353	  1	0.60000	  0	 12	 30	 31	  1	
22-Apr-2013	sub2324	2324	  2	  1	 45	  3	  1	  3	  6	  6	  1	  1	  1	0.57022	  1	0.60000	  0	 13	 32	 33	  0	
22-Apr-2013	sub2324	2324	  2	  1	 46	  3	  1	  2	  3	  2	  1	  2	  1	0.59557	  1	0.60000	  0	 12	 30	 31	  0	
22-Apr-2013	sub2324	2324	  2	  1	 47	  3	  1	  3	  6	  6	  1	  1	  1	0.51792	  1	0.60000	  0	 13	 32	 33	  0	
22-Apr-2013	sub2324	2324	  2	  1	 48	  3	  1	  6	  1	  2	  0	  1	  1	0.49799	  0	0.60000	  0	 16	 47	 38	  1	
22-Apr-2013	sub2324	2324	  2	  1	 49	  3	  1	  6	  1	  2	  1	  1	  0	0.52950	  0	0.60000	  0	 16	 45	 46	  0	
22-Apr-2013	sub2324	2324	  2	  1	 50	  3	  1	  2	  3	  2	  1	  2	  1	0.40386	  1	0.60000	  0	 12	 30	 31	  1	
22-Apr-2013	sub2324	2324	  2	  1	 51	  3	  1	  1	  2	  2	  1	  1	  1	0.58798	  1	0.50000	  1	 11	 30	 51	  0	
22-Apr-2013	sub2324	2324	  2	  1	 52	  3	  1	  5	  5	  6	  1	  2	  0	0.56801	  0	0.70000	  0	 15	 45	 46	  0	
22-Apr-2013	sub2324	2324	  2	  1	 53	  3	  1	  6	  1	  2	  0	  1	  1	0.50468	  0	0.70000	  0	 16	 47	 38	  0	
22-Apr-2013	sub2324	2324	  2	  1	 54	  3	  1	  6	  1	  2	  0	  1	  1	0.51980	  0	0.70000	  0	 16	 47	 38	  0	
22-Apr-2013	sub2324	2324	  2	  1	 55	  3	  1	  5	  5	  6	  0	  1	  0	0.34429	  1	0.70000	  0	 15	 37	 48	  1	
22-Apr-2013	sub2324	2324	  2	  1	 56	  3	  1	  2	  3	  2	  1	  2	  1	0.42734	  1	0.70000	  0	 12	 30	 31	  1	
22-Apr-2013	sub2324	2324	  2	  1	 57	  3	  1	  6	  1	  2	  1	  1	  0	0.49788	  0	0.70000	  0	 16	 45	 46	  1	
22-Apr-2013	sub2324	2324	  2	  1	 58	  3	  1	  3	  6	  6	  1	  1	  1	0.54587	  1	0.70000	  0	 13	 32	 33	  0	
22-Apr-2013	sub2324	2324	  2	  1	 59	  3	  1	  5	  5	  6	  0	  2	  1	0.44211	  0	0.70000	  0	 15	 47	 38	  1	
22-Apr-2013	sub2324	2324	  2	  1	 60	  3	  1	  1	  2	  2	  1	  1	  1	0.54389	  1	0.70000	  0	 11	 30	 31	  0	
22-Apr-2013	sub2324	2324	  2	  1	 61	  3	  1	  1	  2	  2	  1	  1	  1	0.51402	  1	0.60000	  0	 11	 30	 31	  0	
22-Apr-2013	sub2324	2324	  2	  1	 62	  3	  1	  3	  6	  6	  1	  1	  1	0.47489	  1	0.60000	  0	 13	 32	 33	  1	
22-Apr-2013	sub2324	2324	  2	  1	 63	  3	  1	  6	  1	  2	  0	  1	  1	0.47725	  0	0.60000	  0	 16	 47	 38	  1	
22-Apr-2013	sub2324	2324	  2	  1	 64	  3	  1	  1	  2	  2	  1	  1	  1	0.43136	  1	0.60000	  0	 11	 30	 31	  1	
22-Apr-2013	sub2324	2324	  2	  1	 65	  3	  1	  6	  1	  2	  1	  1	  0	0.44272	  0	0.60000	  0	 16	 45	 46	  1	
22-Apr-2013	sub2324	2324	  2	  1	 66	  3	  1	  3	  6	  6	  1	  1	  1	0.66364	  1	0.60000	  1	 13	 32	 51	  0	
22-Apr-2013	sub2324	2324	  2	  1	 67	  3	  1	  6	  1	  2	  0	  1	  1	0.48805	  0	0.80000	  0	 16	 47	 38	  1	
22-Apr-2013	sub2324	2324	  2	  1	 68	  3	  1	  2	  3	  2	  1	  2	  1	0.44674	  1	0.70000	  0	 12	 30	 31	  1	
22-Apr-2013	sub2324	2324	  2	  1	 69	  3	  1	  5	  5	  6	  0	  1	  0	0.39363	  1	0.70000	  0	 15	 37	 48	  1	
22-Apr-2013	sub2324	2324	  2	  1	 70	  3	  1	  3	  6	  6	  1	  1	  1	0.52588	  1	0.70000	  0	 13	 32	 33	  0	
22-Apr-2013	sub2324	2324	  2	  1	 71	  3	  1	  1	  2	  2	  1	  2	  0	0.34948	  0	0.70000	  0	 11	 40	 41	  1	
22-Apr-2013	sub2324	2324	  2	  1	 72	  3	  1	  5	  5	  6	  1	  1	  1	0.53215	  1	0.70000	  0	 15	 35	 36	  0	
22-Apr-2013	sub2324	2324	  2	  1	 73	  3	  1	  6	  1	  2	  0	  1	  1	0.48112	  0	0.70000	  0	 16	 47	 38	  1	
22-Apr-2013	sub2324	2324	  2	  1	 74	  3	  1	  2	  3	  2	  1	  2	  1	0.43637	  1	0.70000	  0	 12	 30	 31	  1	
22-Apr-2013	sub2324	2324	  2	  1	 75	  3	  1	  3	  6	  6	  1	  1	  1	0.41271	  1	0.70000	  0	 13	 32	 33	  1	
22-Apr-2013	sub2324	2324	  2	  1	 76	  3	  2	  3	  6	  6	  1	  1	  1	0.48539	  1	0.70000	  0	 23	 62	 63	  1	
22-Apr-2013	sub2324	2324	  2	  1	 77	  3	  2	  2	  3	  2	  1	  2	  1	0.46640	  1	0.70000	  0	 22	 60	 61	  1	
22-Apr-2013	sub2324	2324	  2	  1	 78	  3	  2	  5	  5	  6	  0	  1	  0	0.40950	  1	0.70000	  0	 25	 67	 88	  1	
22-Apr-2013	sub2324	2324	  2	  1	 79	  3	  2	  2	  3	  2	  1	  2	  1	0.45515	  1	0.70000	  0	 22	 60	 61	  1	
22-Apr-2013	sub2324	2324	  2	  1	 80	  3	  2	  2	  3	  2	  1	  2	  1	0.49039	  1	0.70000	  0	 22	 60	 61	  1	
22-Apr-2013	sub2324	2324	  2	  1	 81	  3	  2	  3	  6	  6	  1	  1	  1	0.45082	  1	0.60000	  0	 23	 62	 63	  1	
22-Apr-2013	sub2324	2324	  2	  1	 82	  3	  2	  4	  4	  6	  0	  2	  0	0.49166	  1	0.60000	  0	 24	 64	 89	  1	
22-Apr-2013	sub2324	2324	  2	  1	 83	  3	  2	  6	  1	  2	  0	  1	  1	0.46313	  0	0.60000	  0	 26	 87	 68	  1	
22-Apr-2013	sub2324	2324	  2	  1	 84	  3	  2	  6	  1	  2	  0	  1	  1	0.41387	  0	0.60000	  0	 26	 87	 68	  1	
22-Apr-2013	sub2324	2324	  2	  1	 85	  3	  2	  3	  6	  6	  1	  1	  1	0.47279	  1	0.60000	  0	 23	 62	 63	  1	
22-Apr-2013	sub2324	2324	  2	  1	 86	  3	  2	  5	  5	  6	  0	  1	  0	0.57223	  1	0.60000	  0	 25	 67	 88	  0	
22-Apr-2013	sub2324	2324	  2	  1	 87	  3	  2	  2	  3	  2	  1	  2	  1	0.51147	  1	0.60000	  0	 22	 60	 61	  0	
22-Apr-2013	sub2324	2324	  2	  1	 88	  3	  2	  3	  6	  6	  0	  1	  0	0.53495	  1	0.60000	  0	 23	 64	 89	  0	
22-Apr-2013	sub2324	2324	  2	  1	 89	  3	  2	  1	  2	  2	  1	  1	  1	0.51898	  1	0.60000	  0	 21	 60	 61	  0	
22-Apr-2013	sub2324	2324	  2	  1	 90	  3	  2	  2	  3	  2	  1	  2	  1	0.51386	  1	0.60000	  0	 22	 60	 61	  0	
22-Apr-2013	sub2324	2324	  2	  1	 91	  3	  2	  1	  2	  2	  1	  1	  1	0.50275	  1	0.60000	  0	 21	 60	 61	  0	
22-Apr-2013	sub2324	2324	  2	  1	 92	  3	  2	  6	  1	  2	  1	  1	  0	0.43890	  0	0.60000	  0	 26	 85	 86	  1	
22-Apr-2013	sub2324	2324	  2	  1	 93	  3	  2	  4	  4	  6	  0	  2	  0	0.51842	  1	0.60000	  0	 24	 64	 89	  0	
22-Apr-2013	sub2324	2324	  2	  1	 94	  3	  2	  6	  1	  2	  0	  1	  1	0.43919	  0	0.60000	  0	 26	 87	 68	  1	
22-Apr-2013	sub2324	2324	  2	  1	 95	  3	  2	  6	  1	  2	  1	  1	  0	0.53270	  0	0.60000	  0	 26	 85	 86	  0	
22-Apr-2013	sub2324	2324	  2	  1	 96	  3	  2	  5	  5	  6	  0	  1	  0	0.52915	  1	0.60000	  0	 25	 67	 88	  0	
22-Apr-2013	sub2324	2324	  2	  1	 97	  3	  2	  4	  4	  6	  1	  2	  1	0.48770	  1	0.60000	  0	 24	 62	 63	  1	
22-Apr-2013	sub2324	2324	  2	  1	 98	  3	  2	  1	  2	  2	  1	  1	  1	0.47258	  1	0.60000	  0	 21	 60	 61	  1	
22-Apr-2013	sub2324	2324	  2	  1	 99	  3	  2	  5	  5	  6	  0	  2	  1	1.17360	  0	0.60000	  1	 25	 87	 51	  0	
22-Apr-2013	sub2324	2324	  2	  1	100	  3	  2	  4	  4	  6	  1	  2	  1	0.50676	  1	0.70000	  0	 24	 62	 63	  0	
22-Apr-2013	sub2324	2324	  2	  1	101	  3	  2	  5	  5	  6	  0	  2	  1	0.40209	  0	0.60000	  0	 25	 87	 68	  1	
22-Apr-2013	sub2324	2324	  2	  1	102	  3	  2	  1	  2	  2	  1	  1	  1	0.43709	  1	0.60000	  0	 21	 60	 61	  1	
22-Apr-2013	sub2324	2324	  2	  1	103	  3	  2	  1	  2	  2	  1	  1	  1	0.38366	  1	0.60000	  0	 21	 60	 61	  1	
22-Apr-2013	sub2324	2324	  2	  1	104	  3	  2	  3	  6	  6	  1	  1	  1	0.49393	  1	0.60000	  0	 23	 62	 63	  1	
22-Apr-2013	sub2324	2324	  2	  1	105	  3	  2	  1	  2	  2	  1	  1	  1	0.42185	  1	0.60000	  0	 21	 60	 61	  1	
22-Apr-2013	sub2324	2324	  2	  1	106	  3	  2	  6	  1	  2	  0	  1	  1	0.49175	  0	0.60000	  0	 26	 87	 68	  1	
22-Apr-2013	sub2324	2324	  2	  1	107	  3	  2	  5	  5	  6	  0	  1	  0	0.58435	  1	0.60000	  0	 25	 67	 88	  0	
22-Apr-2013	sub2324	2324	  2	  1	108	  3	  2	  4	  4	  6	  1	  2	  1	0.48510	  1	0.60000	  0	 24	 62	 63	  1	
22-Apr-2013	sub2324	2324	  2	  1	109	  3	  2	  4	  4	  6	  1	  2	  1	0.53325	  1	0.60000	  0	 24	 62	 63	  0	
22-Apr-2013	sub2324	2324	  2	  1	110	  3	  2	  2	  3	  2	  1	  2	  1	0.44357	  1	0.60000	  0	 22	 60	 61	  1	
22-Apr-2013	sub2324	2324	  2	  1	111	  3	  2	  5	  5	  6	  0	  1	  0	0.49024	  1	0.60000	  0	 25	 67	 88	  1	
22-Apr-2013	sub2324	2324	  2	  1	112	  3	  2	  3	  6	  6	  1	  1	  1	0.52286	  1	0.60000	  0	 23	 62	 63	  0	
22-Apr-2013	sub2324	2324	  2	  1	113	  3	  2	  3	  6	  6	  1	  1	  1	0.54022	  1	0.60000	  0	 23	 62	 63	  0	
22-Apr-2013	sub2324	2324	  2	  1	114	  3	  2	  4	  4	  6	  1	  2	  1	0.41921	  1	0.60000	  0	 24	 62	 63	  1	
22-Apr-2013	sub2324	2324	  2	  1	115	  3	  2	  1	  2	  2	  1	  1	  1	0.45489	  1	0.60000	  0	 21	 60	 61	  1	
22-Apr-2013	sub2324	2324	  2	  1	116	  3	  2	  5	  5	  6	  0	  1	  0	0.57069	  1	0.60000	  0	 25	 67	 88	  0	
22-Apr-2013	sub2324	2324	  2	  1	117	  3	  2	  4	  4	  6	  1	  2	  1	0.46413	  1	0.60000	  0	 24	 62	 63	  1	
22-Apr-2013	sub2324	2324	  2	  1	118	  3	  2	  3	  6	  6	  1	  1	  1	0.49264	  1	0.60000	  0	 23	 62	 63	  1	
22-Apr-2013	sub2324	2324	  2	  1	119	  3	  2	  1	  2	  2	  1	  1	  1	0.52213	  1	0.60000	  0	 21	 60	 61	  0	
22-Apr-2013	sub2324	2324	  2	  1	120	  3	  2	  1	  2	  2	  1	  1	  1	0.36662	  1	0.60000	  0	 21	 60	 61	  1	
22-Apr-2013	sub2324	2324	  2	  1	121	  3	  2	  5	  5	  6	  0	  2	  1	0.46373	  0	0.60000	  0	 25	 87	 68	  1	
22-Apr-2013	sub2324	2324	  2	  1	122	  3	  2	  3	  6	  6	  0	  1	  0	0.44397	  1	0.60000	  0	 23	 64	 89	  1	
22-Apr-2013	sub2324	2324	  2	  1	123	  3	  2	  1	  2	  2	  1	  2	  0	0.44390	  0	0.60000	  0	 21	 80	 81	  1	
22-Apr-2013	sub2324	2324	  2	  1	124	  3	  2	  5	  5	  6	  0	  1	  0	0.40997	  1	0.60000	  0	 25	 67	 88	  1	
22-Apr-2013	sub2324	2324	  2	  1	125	  3	  2	  6	  1	  2	  0	  1	  1	0.43193	  0	0.60000	  0	 26	 87	 68	  1	
22-Apr-2013	sub2324	2324	  2	  1	126	  3	  2	  2	  3	  2	  1	  2	  1	0.41330	  1	0.50000	  0	 22	 60	 61	  1	
22-Apr-2013	sub2324	2324	  2	  1	127	  3	  2	  2	  3	  2	  1	  2	  1	0.49989	  1	0.50000	  0	 22	 60	 61	  1	
22-Apr-2013	sub2324	2324	  2	  1	128	  3	  2	  1	  2	  2	  1	  1	  1	0.40263	  1	0.50000	  0	 21	 60	 61	  1	
22-Apr-2013	sub2324	2324	  2	  1	129	  3	  2	  4	  4	  6	  1	  2	  1	0.45072	  1	0.50000	  0	 24	 62	 63	  1	
22-Apr-2013	sub2324	2324	  2	  1	130	  3	  2	  6	  1	  2	  0	  1	  1	0.41664	  0	0.50000	  0	 26	 87	 68	  1	
22-Apr-2013	sub2324	2324	  2	  1	131	  3	  2	  6	  1	  2	  1	  1	  0	0.49231	  0	0.50000	  0	 26	 85	 86	  1	
22-Apr-2013	sub2324	2324	  2	  1	132	  3	  2	  3	  6	  6	  1	  1	  1	0.55496	  1	0.50000	  1	 23	 62	 51	  0	
22-Apr-2013	sub2324	2324	  2	  1	133	  3	  2	  4	  4	  6	  1	  2	  1	0.43377	  1	0.60000	  0	 24	 62	 63	  1	
22-Apr-2013	sub2324	2324	  2	  1	134	  3	  2	  6	  1	  2	  1	  1	  0	0.51017	  0	0.60000	  0	 26	 85	 86	  0	
22-Apr-2013	sub2324	2324	  2	  1	135	  3	  2	  5	  5	  6	  0	  2	  1	0.48126	  0	0.60000	  0	 25	 87	 68	  1	
22-Apr-2013	sub2324	2324	  2	  1	136	  3	  2	  6	  1	  2	  1	  1	  0	0.46367	  0	0.60000	  0	 26	 85	 86	  1	
22-Apr-2013	sub2324	2324	  2	  1	137	  3	  2	  1	  2	  2	  1	  1	  1	0.50774	  1	0.60000	  0	 21	 60	 61	  0	
22-Apr-2013	sub2324	2324	  2	  1	138	  3	  2	  2	  3	  2	  1	  2	  1	0.45733	  1	0.60000	  0	 22	 60	 61	  1	
22-Apr-2013	sub2324	2324	  2	  1	139	  3	  2	  4	  4	  6	  1	  2	  1	0.46611	  1	0.60000	  0	 24	 62	 63	  1	
22-Apr-2013	sub2324	2324	  2	  1	140	  3	  2	  1	  2	  2	  1	  1	  1	0.41211	  1	0.60000	  0	 21	 60	 61	  1	
22-Apr-2013	sub2324	2324	  2	  1	141	  3	  2	  4	  4	  6	  0	  2	  0	0.45782	  1	0.60000	  0	 24	 64	 89	  1	
22-Apr-2013	sub2324	2324	  2	  1	142	  3	  2	  4	  4	  6	  1	  2	  1	0.49808	  1	0.60000	  0	 24	 62	 63	  1	
22-Apr-2013	sub2324	2324	  2	  1	143	  3	  2	  2	  3	  2	  1	  2	  1	0.50957	  1	0.60000	  0	 22	 60	 61	  0	
22-Apr-2013	sub2324	2324	  2	  1	144	  3	  2	  5	  5	  6	  0	  1	  0	0.61906	  1	0.60000	  1	 25	 67	 51	  0	
22-Apr-2013	sub2324	2324	  2	  1	145	  3	  2	  6	  1	  2	  1	  1	  0	0.44862	  0	0.60000	  0	 26	 85	 86	  1	
22-Apr-2013	sub2324	2324	  2	  1	146	  3	  2	  2	  3	  2	  1	  2	  1	0.42891	  1	0.60000	  0	 22	 60	 61	  1	
22-Apr-2013	sub2324	2324	  2	  1	147	  3	  2	  3	  6	  6	  1	  1	  1	0.46408	  1	0.60000	  0	 23	 62	 63	  1	
22-Apr-2013	sub2324	2324	  2	  1	148	  3	  2	  5	  5	  6	  0	  2	  1	0.35210	  0	0.60000	  0	 25	 87	 68	  1	
22-Apr-2013	sub2324	2324	  2	  1	149	  3	  2	  3	  6	  6	  1	  1	  1	0.46621	  1	0.60000	  0	 23	 62	 63	  1	
22-Apr-2013	sub2324	2324	  2	  1	150	  3	  2	  2	  3	  2	  1	  2	  1	0.39435	  1	0.60000	  0	 22	 60	 61	  1	
22-Apr-2013	sub2324	2324	  2	  1	  1	  4	  1	  1	  4	  1	  1	  1	  1	0.69282	  1	0.60000	  1	 11	 30	 51	  0	
22-Apr-2013	sub2324	2324	  2	  1	  2	  4	  1	  4	  2	  1	  1	  2	  1	0.28964	  1	0.90000	  0	 14	 32	 33	  1	
22-Apr-2013	sub2324	2324	  2	  1	  3	  4	  1	  3	  1	  4	  1	  1	  1	0.41238	  1	0.90000	  0	 13	 32	 33	  1	
22-Apr-2013	sub2324	2324	  2	  1	  4	  4	  1	  5	  6	  1	  1	  2	  0	0.58472	  0	0.90000	  0	 15	 45	 46	  0	
22-Apr-2013	sub2324	2324	  2	  1	  5	  4	  1	  6	  5	  1	  0	  1	  1	0.46670	  0	0.90000	  0	 16	 47	 38	  1	
22-Apr-2013	sub2324	2324	  2	  1	  6	  4	  1	  2	  3	  1	  1	  1	  0	0.53044	  0	0.90000	  0	 12	 40	 41	  0	
22-Apr-2013	sub2324	2324	  2	  1	  7	  4	  1	  1	  4	  1	  1	  2	  0	0.59236	  0	0.90000	  0	 11	 40	 41	  0	
22-Apr-2013	sub2324	2324	  2	  1	  8	  4	  1	  4	  2	  1	  1	  1	  0	0.30067	  0	0.90000	  0	 14	 42	 43	  1	
22-Apr-2013	sub2324	2324	  2	  1	  9	  4	  1	  6	  5	  1	  1	  2	  1	0.70360	  1	0.90000	  0	 16	 35	 36	  0	
22-Apr-2013	sub2324	2324	  2	  1	 10	  4	  1	  6	  5	  1	  0	  2	  0	0.39808	  1	0.90000	  0	 16	 37	 48	  1	
22-Apr-2013	sub2324	2324	  2	  1	 11	  4	  1	  1	  4	  1	  1	  2	  0	0.49564	  0	0.90000	  0	 11	 40	 41	  1	
22-Apr-2013	sub2324	2324	  2	  1	 12	  4	  1	  3	  1	  4	  1	  1	  1	0.44544	  1	0.90000	  0	 13	 32	 33	  1	
22-Apr-2013	sub2324	2324	  2	  1	 13	  4	  1	  4	  2	  1	  1	  2	  1	0.50759	  1	0.90000	  0	 14	 32	 33	  0	
22-Apr-2013	sub2324	2324	  2	  1	 14	  4	  1	  2	  3	  1	  1	  1	  0	0.46501	  0	0.90000	  0	 12	 40	 41	  1	
22-Apr-2013	sub2324	2324	  2	  1	 15	  4	  1	  6	  5	  1	  1	  2	  1	0.44985	  1	0.90000	  0	 16	 35	 36	  1	
22-Apr-2013	sub2324	2324	  2	  1	 16	  4	  1	  3	  1	  4	  0	  1	  0	0.53387	  1	0.80000	  0	 13	 34	 49	  0	
22-Apr-2013	sub2324	2324	  2	  1	 17	  4	  1	  2	  3	  1	  1	  1	  0	0.54437	  0	0.80000	  0	 12	 40	 41	  0	
22-Apr-2013	sub2324	2324	  2	  1	 18	  4	  1	  1	  4	  1	  1	  2	  0	0.45038	  0	0.70000	  0	 11	 40	 41	  1	
22-Apr-2013	sub2324	2324	  2	  1	 19	  4	  1	  2	  3	  1	  1	  1	  0	0.46780	  0	0.70000	  0	 12	 40	 41	  1	
22-Apr-2013	sub2324	2324	  2	  1	 20	  4	  1	  3	  1	  4	  1	  1	  1	0.63169	  1	0.70000	  0	 13	 32	 33	  0	
22-Apr-2013	sub2324	2324	  2	  1	 21	  4	  1	  2	  3	  1	  1	  2	  1	0.43362	  1	0.60000	  0	 12	 30	 31	  1	
22-Apr-2013	sub2324	2324	  2	  1	 22	  4	  1	  4	  2	  1	  1	  2	  1	0.58407	  1	0.60000	  0	 14	 32	 33	  0	
22-Apr-2013	sub2324	2324	  2	  1	 23	  4	  1	  1	  4	  1	  1	  2	  0	0.47768	  0	0.60000	  0	 11	 40	 41	  1	
22-Apr-2013	sub2324	2324	  2	  1	 24	  4	  1	  6	  5	  1	  0	  1	  1	0.53380	  0	0.60000	  0	 16	 47	 38	  0	
22-Apr-2013	sub2324	2324	  2	  1	 25	  4	  1	  4	  2	  1	  0	  2	  0	0.63828	  1	0.60000	  1	 14	 34	 51	  0	
22-Apr-2013	sub2324	2324	  2	  1	 26	  4	  1	  3	  1	  4	  1	  1	  1	0.49890	  1	0.90000	  0	 13	 32	 33	  1	
22-Apr-2013	sub2324	2324	  2	  1	 27	  4	  1	  3	  1	  4	  1	  1	  1	0.49640	  1	0.90000	  0	 13	 32	 33	  1	
22-Apr-2013	sub2324	2324	  2	  1	 28	  4	  1	  2	  3	  1	  1	  1	  0	0.47367	  0	0.90000	  0	 12	 40	 41	  1	
22-Apr-2013	sub2324	2324	  2	  1	 29	  4	  1	  1	  4	  1	  1	  2	  0	0.45789	  0	0.90000	  0	 11	 40	 41	  1	
22-Apr-2013	sub2324	2324	  2	  1	 30	  4	  1	  3	  1	  4	  0	  1	  0	0.50295	  1	0.80000	  0	 13	 34	 49	  0	
22-Apr-2013	sub2324	2324	  2	  1	 31	  4	  1	  4	  2	  1	  1	  2	  1	0.51093	  1	0.80000	  0	 14	 32	 33	  0	
22-Apr-2013	sub2324	2324	  2	  1	 32	  4	  1	  6	  5	  1	  0	  1	  1	0.59581	  0	0.80000	  0	 16	 47	 38	  0	
22-Apr-2013	sub2324	2324	  2	  1	 33	  4	  1	  1	  4	  1	  1	  2	  0	0.48109	  0	0.80000	  0	 11	 40	 41	  1	
22-Apr-2013	sub2324	2324	  2	  1	 34	  4	  1	  3	  1	  4	  1	  1	  1	0.47773	  1	0.80000	  0	 13	 32	 33	  1	
22-Apr-2013	sub2324	2324	  2	  1	 35	  4	  1	  5	  6	  1	  1	  2	  0	0.50483	  0	0.70000	  0	 15	 45	 46	  0	
22-Apr-2013	sub2324	2324	  2	  1	 36	  4	  1	  4	  2	  1	  1	  2	  1	0.61485	  1	0.70000	  0	 14	 32	 33	  0	
22-Apr-2013	sub2324	2324	  2	  1	 37	  4	  1	  2	  3	  1	  1	  1	  0	0.44173	  0	0.70000	  0	 12	 40	 41	  1	
22-Apr-2013	sub2324	2324	  2	  1	 38	  4	  1	  1	  4	  1	  1	  2	  0	0.56373	  0	0.70000	  0	 11	 40	 41	  0	
22-Apr-2013	sub2324	2324	  2	  1	 39	  4	  1	  4	  2	  1	  1	  2	  1	0.66222	  1	0.70000	  0	 14	 32	 33	  0	
22-Apr-2013	sub2324	2324	  2	  1	 40	  4	  1	  6	  5	  1	  1	  1	  0	0.54195	  0	0.70000	  0	 16	 45	 46	  0	
22-Apr-2013	sub2324	2324	  2	  1	 41	  4	  1	  3	  1	  4	  1	  1	  1	0.48678	  1	0.60000	  0	 13	 32	 33	  1	
22-Apr-2013	sub2324	2324	  2	  1	 42	  4	  1	  5	  6	  1	  0	  2	  1	0.57665	  0	0.60000	  0	 15	 47	 38	  0	
22-Apr-2013	sub2324	2324	  2	  1	 43	  4	  1	  5	  6	  1	  0	  2	  1	0.47151	  0	0.60000	  0	 15	 47	 38	  1	
22-Apr-2013	sub2324	2324	  2	  1	 44	  4	  1	  3	  1	  4	  1	  1	  1	0.48423	  1	0.60000	  0	 13	 32	 33	  1	
22-Apr-2013	sub2324	2324	  2	  1	 45	  4	  1	  5	  6	  1	  0	  1	  0	0.73452	  1	0.60000	  1	 15	 37	 51	  0	
22-Apr-2013	sub2324	2324	  2	  1	 46	  4	  1	  2	  3	  1	  1	  1	  0	0.46562	  0	0.80000	  0	 12	 40	 41	  1	
22-Apr-2013	sub2324	2324	  2	  1	 47	  4	  1	  6	  5	  1	  1	  2	  1	0.54622	  1	0.80000	  0	 16	 35	 36	  0	
22-Apr-2013	sub2324	2324	  2	  1	 48	  4	  1	  2	  3	  1	  1	  2	  1	0.41906	  1	0.80000	  0	 12	 30	 31	  1	
22-Apr-2013	sub2324	2324	  2	  1	 49	  4	  1	  3	  1	  4	  1	  1	  1	0.51044	  1	0.80000	  0	 13	 32	 33	  0	
22-Apr-2013	sub2324	2324	  2	  1	 50	  4	  1	  5	  6	  1	  0	  2	  1	0.51930	  0	0.80000	  0	 15	 47	 38	  0	
22-Apr-2013	sub2324	2324	  2	  1	 51	  4	  1	  5	  6	  1	  0	  2	  1	0.51727	  0	0.70000	  0	 15	 47	 38	  0	
22-Apr-2013	sub2324	2324	  2	  1	 52	  4	  1	  6	  5	  1	  1	  2	  1	0.46575	  1	0.70000	  0	 16	 35	 36	  1	
22-Apr-2013	sub2324	2324	  2	  1	 53	  4	  1	  1	  4	  1	  1	  1	  1	0.73365	  1	0.70000	  1	 11	 30	 51	  0	
22-Apr-2013	sub2324	2324	  2	  1	 54	  4	  1	  5	  6	  1	  1	  2	  0	0.48334	  0	0.90000	  0	 15	 45	 46	  1	
22-Apr-2013	sub2324	2324	  2	  1	 55	  4	  1	  4	  2	  1	  1	  2	  1	0.65771	  1	0.90000	  0	 14	 32	 33	  0	
22-Apr-2013	sub2324	2324	  2	  1	 56	  4	  1	  5	  6	  1	  1	  2	  0	0.52329	  0	0.90000	  0	 15	 45	 46	  0	
22-Apr-2013	sub2324	2324	  2	  1	 57	  4	  1	  6	  5	  1	  0	  1	  1	0.63211	  0	0.90000	  0	 16	 47	 38	  0	
22-Apr-2013	sub2324	2324	  2	  1	 58	  4	  1	  6	  5	  1	  1	  1	  0	0.41307	  0	0.90000	  0	 16	 45	 46	  1	
22-Apr-2013	sub2324	2324	  2	  1	 59	  4	  1	  5	  6	  1	  1	  2	  0	0.49661	  0	0.80000	  0	 15	 45	 46	  1	
22-Apr-2013	sub2324	2324	  2	  1	 60	  4	  1	  2	  3	  1	  1	  1	  0	0.43648	  0	0.80000	  0	 12	 40	 41	  1	
22-Apr-2013	sub2324	2324	  2	  1	 61	  4	  1	  6	  5	  1	  0	  2	  0	0.56927	  1	0.80000	  0	 16	 37	 48	  0	
22-Apr-2013	sub2324	2324	  2	  1	 62	  4	  1	  2	  3	  1	  1	  1	  0	0.49847	  0	0.80000	  0	 12	 40	 41	  1	
22-Apr-2013	sub2324	2324	  2	  1	 63	  4	  1	  6	  5	  1	  0	  1	  1	0.72040	  0	0.80000	  0	 16	 47	 38	  0	
22-Apr-2013	sub2324	2324	  2	  1	 64	  4	  1	  4	  2	  1	  1	  2	  1	0.50645	  1	0.80000	  0	 14	 32	 33	  0	
22-Apr-2013	sub2324	2324	  2	  1	 65	  4	  1	  2	  3	  1	  1	  1	  0	0.47125	  0	0.80000	  0	 12	 40	 41	  1	
22-Apr-2013	sub2324	2324	  2	  1	 66	  4	  1	  4	  2	  1	  0	  2	  0	0.48605	  1	0.80000	  0	 14	 34	 49	  1	
22-Apr-2013	sub2324	2324	  2	  1	 67	  4	  1	  1	  4	  1	  1	  2	  0	0.55122	  0	0.80000	  0	 11	 40	 41	  0	
22-Apr-2013	sub2324	2324	  2	  1	 68	  4	  1	  2	  3	  1	  1	  2	  1	0.74634	  1	0.70000	  1	 12	 30	 51	  0	
22-Apr-2013	sub2324	2324	  2	  1	 69	  4	  1	  3	  1	  4	  1	  1	  1	0.51489	  1	0.90000	  0	 13	 32	 33	  0	
22-Apr-2013	sub2324	2324	  2	  1	 70	  4	  1	  1	  4	  1	  1	  2	  0	0.49519	  0	0.90000	  0	 11	 40	 41	  1	
22-Apr-2013	sub2324	2324	  2	  1	 71	  4	  1	  5	  6	  1	  1	  2	  0	0.52867	  0	0.90000	  0	 15	 45	 46	  0	
22-Apr-2013	sub2324	2324	  2	  1	 72	  4	  1	  5	  6	  1	  0	  2	  1	0.37206	  0	0.90000	  0	 15	 47	 38	  1	
22-Apr-2013	sub2324	2324	  2	  1	 73	  4	  1	  4	  2	  1	  1	  2	  1	0.49008	  1	0.80000	  0	 14	 32	 33	  1	
22-Apr-2013	sub2324	2324	  2	  1	 74	  4	  1	  1	  4	  1	  1	  1	  1	0.63548	  1	0.80000	  0	 11	 30	 31	  0	
22-Apr-2013	sub2324	2324	  2	  1	 75	  4	  1	  3	  1	  4	  0	  1	  0	0.44162	  1	0.80000	  0	 13	 34	 49	  1	
22-Apr-2013	sub2324	2324	  2	  1	 76	  4	  2	  1	  4	  1	  1	  1	  1	0.60544	  1	0.80000	  0	 21	 60	 61	  0	
22-Apr-2013	sub2324	2324	  2	  1	 77	  4	  2	  5	  6	  1	  0	  2	  1	0.49181	  0	0.80000	  0	 25	 87	 68	  1	
22-Apr-2013	sub2324	2324	  2	  1	 78	  4	  2	  2	  3	  1	  1	  1	  0	0.49606	  0	0.80000	  0	 22	 80	 81	  1	
22-Apr-2013	sub2324	2324	  2	  1	 79	  4	  2	  6	  5	  1	  1	  1	  0	0.64075	  0	0.80000	  0	 26	 85	 86	  0	
22-Apr-2013	sub2324	2324	  2	  1	 80	  4	  2	  5	  6	  1	  0	  2	  1	0.53158	  0	0.80000	  0	 25	 87	 68	  0	
22-Apr-2013	sub2324	2324	  2	  1	 81	  4	  2	  4	  2	  1	  1	  2	  1	0.53040	  1	0.80000	  0	 24	 62	 63	  0	
22-Apr-2013	sub2324	2324	  2	  1	 82	  4	  2	  1	  4	  1	  1	  2	  0	0.55346	  0	0.80000	  0	 21	 80	 81	  0	
22-Apr-2013	sub2324	2324	  2	  1	 83	  4	  2	  4	  2	  1	  1	  2	  1	0.48249	  1	0.80000	  0	 24	 62	 63	  1	
22-Apr-2013	sub2324	2324	  2	  1	 84	  4	  2	  4	  2	  1	  1	  2	  1	0.45376	  1	0.80000	  0	 24	 62	 63	  1	
22-Apr-2013	sub2324	2324	  2	  1	 85	  4	  2	  5	  6	  1	  0	  2	  1	0.54193	  0	0.70000	  0	 25	 87	 68	  0	
22-Apr-2013	sub2324	2324	  2	  1	 86	  4	  2	  5	  6	  1	  0	  2	  1	0.43233	  0	0.70000	  0	 25	 87	 68	  1	
22-Apr-2013	sub2324	2324	  2	  1	 87	  4	  2	  5	  6	  1	  0	  2	  1	0.40249	  0	0.70000	  0	 25	 87	 68	  1	
22-Apr-2013	sub2324	2324	  2	  1	 88	  4	  2	  3	  1	  4	  1	  1	  1	0.51462	  1	0.70000	  0	 23	 62	 63	  0	
22-Apr-2013	sub2324	2324	  2	  1	 89	  4	  2	  4	  2	  1	  1	  2	  1	0.49471	  1	0.70000	  0	 24	 62	 63	  1	
22-Apr-2013	sub2324	2324	  2	  1	 90	  4	  2	  5	  6	  1	  0	  2	  1	0.45813	  0	0.70000	  0	 25	 87	 68	  1	
22-Apr-2013	sub2324	2324	  2	  1	 91	  4	  2	  2	  3	  1	  1	  1	  0	0.47187	  0	0.70000	  0	 22	 80	 81	  1	
22-Apr-2013	sub2324	2324	  2	  1	 92	  4	  2	  2	  3	  1	  1	  2	  1	0.42694	  1	0.70000	  0	 22	 60	 61	  1	
22-Apr-2013	sub2324	2324	  2	  1	 93	  4	  2	  5	  6	  1	  0	  2	  1	0.56555	  0	0.70000	  0	 25	 87	 68	  0	
22-Apr-2013	sub2324	2324	  2	  1	 94	  4	  2	  2	  3	  1	  1	  2	  1	0.37333	  1	0.70000	  0	 22	 60	 61	  1	
22-Apr-2013	sub2324	2324	  2	  1	 95	  4	  2	  2	  3	  1	  1	  2	  1	0.40406	  1	0.70000	  0	 22	 60	 61	  1	
22-Apr-2013	sub2324	2324	  2	  1	 96	  4	  2	  2	  3	  1	  1	  2	  1	0.40691	  1	0.70000	  0	 22	 60	 61	  1	
22-Apr-2013	sub2324	2324	  2	  1	 97	  4	  2	  6	  5	  1	  1	  1	  0	0.64566	  0	0.70000	  0	 26	 85	 86	  0	
22-Apr-2013	sub2324	2324	  2	  1	 98	  4	  2	  6	  5	  1	  1	  1	  0	0.39330	  0	0.70000	  0	 26	 85	 86	  1	
22-Apr-2013	sub2324	2324	  2	  1	 99	  4	  2	  6	  5	  1	  0	  2	  0	0.40197	  1	0.70000	  0	 26	 67	 88	  1	
22-Apr-2013	sub2324	2324	  2	  1	100	  4	  2	  1	  4	  1	  1	  1	  1	0.53756	  1	0.70000	  0	 21	 60	 61	  0	
22-Apr-2013	sub2324	2324	  2	  1	101	  4	  2	  3	  1	  4	  1	  1	  1	0.51259	  1	0.60000	  0	 23	 62	 63	  0	
22-Apr-2013	sub2324	2324	  2	  1	102	  4	  2	  5	  6	  1	  0	  2	  1	0.58007	  0	0.60000	  0	 25	 87	 68	  0	
22-Apr-2013	sub2324	2324	  2	  1	103	  4	  2	  1	  4	  1	  1	  1	  1	0.57749	  1	0.60000	  0	 21	 60	 61	  0	
22-Apr-2013	sub2324	2324	  2	  1	104	  4	  2	  1	  4	  1	  1	  1	  1	0.52407	  1	0.60000	  0	 21	 60	 61	  0	
22-Apr-2013	sub2324	2324	  2	  1	105	  4	  2	  5	  6	  1	  0	  2	  1	0.52318	  0	0.60000	  0	 25	 87	 68	  0	
22-Apr-2013	sub2324	2324	  2	  1	106	  4	  2	  1	  4	  1	  1	  2	  0	0.46449	  0	0.60000	  0	 21	 80	 81	  1	
22-Apr-2013	sub2324	2324	  2	  1	107	  4	  2	  3	  1	  4	  1	  1	  1	0.54837	  1	0.60000	  0	 23	 62	 63	  0	
22-Apr-2013	sub2324	2324	  2	  1	108	  4	  2	  5	  6	  1	  0	  2	  1	0.74554	  0	0.60000	  1	 25	 87	 51	  0	
22-Apr-2013	sub2324	2324	  2	  1	109	  4	  2	  1	  4	  1	  1	  2	  0	0.51229	  0	0.70000	  0	 21	 80	 81	  0	
22-Apr-2013	sub2324	2324	  2	  1	110	  4	  2	  1	  4	  1	  1	  1	  1	0.44214	  1	0.70000	  0	 21	 60	 61	  1	
22-Apr-2013	sub2324	2324	  2	  1	111	  4	  2	  2	  3	  1	  1	  2	  1	0.64774	  1	0.70000	  0	 22	 60	 61	  0	
22-Apr-2013	sub2324	2324	  2	  1	112	  4	  2	  6	  5	  1	  1	  1	  0	0.51847	  0	0.70000	  0	 26	 85	 86	  0	
22-Apr-2013	sub2324	2324	  2	  1	113	  4	  2	  4	  2	  1	  1	  2	  1	0.46887	  1	0.70000	  0	 24	 62	 63	  1	
22-Apr-2013	sub2324	2324	  2	  1	114	  4	  2	  6	  5	  1	  0	  2	  0	0.51793	  1	0.70000	  0	 26	 67	 88	  0	
22-Apr-2013	sub2324	2324	  2	  1	115	  4	  2	  1	  4	  1	  1	  1	  1	0.50357	  1	0.70000	  0	 21	 60	 61	  0	
22-Apr-2013	sub2324	2324	  2	  1	116	  4	  2	  4	  2	  1	  1	  2	  1	0.52884	  1	0.70000	  0	 24	 62	 63	  0	
22-Apr-2013	sub2324	2324	  2	  1	117	  4	  2	  2	  3	  1	  1	  2	  1	0.60645	  1	0.70000	  0	 22	 60	 61	  0	
22-Apr-2013	sub2324	2324	  2	  1	118	  4	  2	  3	  1	  4	  1	  1	  1	0.46471	  1	0.70000	  0	 23	 62	 63	  1	
22-Apr-2013	sub2324	2324	  2	  1	119	  4	  2	  4	  2	  1	  1	  2	  1	0.52931	  1	0.70000	  0	 24	 62	 63	  0	
22-Apr-2013	sub2324	2324	  2	  1	120	  4	  2	  4	  2	  1	  1	  2	  1	0.50592	  1	0.70000	  0	 24	 62	 63	  0	
22-Apr-2013	sub2324	2324	  2	  1	121	  4	  2	  1	  4	  1	  1	  1	  1	0.54647	  1	0.60000	  0	 21	 60	 61	  0	
22-Apr-2013	sub2324	2324	  2	  1	122	  4	  2	  6	  5	  1	  0	  1	  1	0.55291	  0	0.60000	  0	 26	 87	 68	  0	
22-Apr-2013	sub2324	2324	  2	  1	123	  4	  2	  2	  3	  1	  1	  1	  0	0.55453	  0	0.60000	  0	 22	 80	 81	  0	
22-Apr-2013	sub2324	2324	  2	  1	124	  4	  2	  1	  4	  1	  1	  1	  1	0.57693	  1	0.60000	  0	 21	 60	 61	  0	
22-Apr-2013	sub2324	2324	  2	  1	125	  4	  2	  3	  1	  4	  1	  1	  1	0.46684	  1	0.60000	  0	 23	 62	 63	  1	
22-Apr-2013	sub2324	2324	  2	  1	126	  4	  2	  4	  2	  1	  1	  2	  1	0.49377	  1	0.60000	  0	 24	 62	 63	  1	
22-Apr-2013	sub2324	2324	  2	  1	127	  4	  2	  4	  2	  1	  0	  2	  0	0.47339	  1	0.60000	  0	 24	 64	 89	  1	
22-Apr-2013	sub2324	2324	  2	  1	128	  4	  2	  4	  2	  1	  0	  2	  0	0.38870	  1	0.60000	  0	 24	 64	 89	  1	
22-Apr-2013	sub2324	2324	  2	  1	129	  4	  2	  6	  5	  1	  1	  1	  0	0.50986	  0	0.60000	  0	 26	 85	 86	  0	
22-Apr-2013	sub2324	2324	  2	  1	130	  4	  2	  6	  5	  1	  0	  2	  0	0.39180	  1	0.60000	  0	 26	 67	 88	  1	
22-Apr-2013	sub2324	2324	  2	  1	131	  4	  2	  5	  6	  1	  0	  2	  1	0.43047	  0	0.60000	  0	 25	 87	 68	  1	
22-Apr-2013	sub2324	2324	  2	  1	132	  4	  2	  1	  4	  1	  1	  2	  0	0.39359	  0	0.60000	  0	 21	 80	 81	  1	
22-Apr-2013	sub2324	2324	  2	  1	133	  4	  2	  4	  2	  1	  0	  2	  0	0.45084	  1	0.60000	  0	 24	 64	 89	  1	
22-Apr-2013	sub2324	2324	  2	  1	134	  4	  2	  2	  3	  1	  1	  2	  1	0.58883	  1	0.60000	  0	 22	 60	 61	  0	
22-Apr-2013	sub2324	2324	  2	  1	135	  4	  2	  2	  3	  1	  1	  2	  1	0.39563	  1	0.60000	  0	 22	 60	 61	  1	
22-Apr-2013	sub2324	2324	  2	  1	136	  4	  2	  3	  1	  4	  1	  1	  1	0.49814	  1	0.60000	  0	 23	 62	 63	  1	
22-Apr-2013	sub2324	2324	  2	  1	137	  4	  2	  3	  1	  4	  1	  1	  1	0.48964	  1	0.60000	  0	 23	 62	 63	  1	
22-Apr-2013	sub2324	2324	  2	  1	138	  4	  2	  3	  1	  4	  0	  1	  0	0.53135	  1	0.60000	  0	 23	 64	 89	  0	
22-Apr-2013	sub2324	2324	  2	  1	139	  4	  2	  4	  2	  1	  1	  2	  1	0.41879	  1	0.60000	  0	 24	 62	 63	  1	
22-Apr-2013	sub2324	2324	  2	  1	140	  4	  2	  2	  3	  1	  1	  2	  1	0.73205	  1	0.60000	  1	 22	 60	 51	  0	
22-Apr-2013	sub2324	2324	  2	  1	141	  4	  2	  1	  4	  1	  1	  1	  1	0.46255	  1	0.60000	  0	 21	 60	 61	  1	
22-Apr-2013	sub2324	2324	  2	  1	142	  4	  2	  3	  1	  4	  1	  1	  1	0.48154	  1	0.60000	  0	 23	 62	 63	  1	
22-Apr-2013	sub2324	2324	  2	  1	143	  4	  2	  3	  1	  4	  0	  1	  0	0.52197	  1	0.60000	  0	 23	 64	 89	  0	
22-Apr-2013	sub2324	2324	  2	  1	144	  4	  2	  6	  5	  1	  1	  1	  0	0.65721	  0	0.60000	  1	 26	 85	 51	  0	
22-Apr-2013	sub2324	2324	  2	  1	145	  4	  2	  5	  6	  1	  0	  2	  1	0.43158	  0	0.70000	  0	 25	 87	 68	  1	
22-Apr-2013	sub2324	2324	  2	  1	146	  4	  2	  5	  6	  1	  0	  2	  1	0.46406	  0	0.70000	  0	 25	 87	 68	  1	
22-Apr-2013	sub2324	2324	  2	  1	147	  4	  2	  6	  5	  1	  0	  2	  0	0.50143	  1	0.70000	  0	 26	 67	 88	  0	
22-Apr-2013	sub2324	2324	  2	  1	148	  4	  2	  3	  1	  4	  1	  1	  1	0.52649	  1	0.70000	  0	 23	 62	 63	  0	
22-Apr-2013	sub2324	2324	  2	  1	149	  4	  2	  6	  5	  1	  0	  1	  1	0.45060	  0	0.70000	  0	 26	 87	 68	  1	
22-Apr-2013	sub2324	2324	  2	  1	150	  4	  2	  3	  1	  4	  1	  1	  1	0.47683	  1	0.70000	  0	 23	 62	 63	  1	
22-Apr-2013	sub2324	2324	  2	  1	  1	  5	  1	  4	  2	  6	  1	  1	  0	0.41473	  0	0.60000	  0	 14	 42	 43	  1	
22-Apr-2013	sub2324	2324	  2	  1	  2	  5	  1	  6	  6	  3	  0	  2	  0	0.44980	  1	0.30000	  1	 16	 37	 51	  1	
22-Apr-2013	sub2324	2324	  2	  1	  3	  5	  1	  6	  6	  3	  0	  2	  0	0.37339	  1	0.90000	  0	 16	 37	 48	  1	
22-Apr-2013	sub2324	2324	  2	  1	  4	  5	  1	  4	  2	  6	  1	  1	  0	0.52673	  0	0.90000	  0	 14	 42	 43	  0	
22-Apr-2013	sub2324	2324	  2	  1	  5	  5	  1	  3	  5	  3	  0	  2	  1	0.51215	  0	0.90000	  0	 13	 44	 39	  0	
22-Apr-2013	sub2324	2324	  2	  1	  6	  5	  1	  3	  5	  3	  1	  2	  0	0.44225	  0	0.90000	  0	 13	 42	 43	  1	
22-Apr-2013	sub2324	2324	  2	  1	  7	  5	  1	  2	  3	  6	  1	  2	  1	0.55692	  1	0.90000	  0	 12	 30	 31	  0	
22-Apr-2013	sub2324	2324	  2	  1	  8	  5	  1	  4	  2	  6	  1	  1	  0	0.51233	  0	0.90000	  0	 14	 42	 43	  0	
22-Apr-2013	sub2324	2324	  2	  1	  9	  5	  1	  3	  5	  3	  1	  2	  0	0.47444	  0	0.90000	  0	 13	 42	 43	  1	
22-Apr-2013	sub2324	2324	  2	  1	 10	  5	  1	  2	  3	  6	  1	  2	  1	0.47515	  1	0.90000	  0	 12	 30	 31	  1	
22-Apr-2013	sub2324	2324	  2	  1	 11	  5	  1	  5	  4	  4	  1	  2	  0	0.51752	  0	0.90000	  0	 15	 45	 46	  0	
22-Apr-2013	sub2324	2324	  2	  1	 12	  5	  1	  1	  1	  1	  1	  1	  1	0.52079	  1	0.90000	  0	 11	 30	 31	  0	
22-Apr-2013	sub2324	2324	  2	  1	 13	  5	  1	  6	  6	  3	  0	  1	  1	0.56062	  0	0.90000	  0	 16	 47	 38	  0	
22-Apr-2013	sub2324	2324	  2	  1	 14	  5	  1	  2	  3	  6	  1	  1	  0	0.49122	  0	0.90000	  0	 12	 40	 41	  1	
22-Apr-2013	sub2324	2324	  2	  1	 15	  5	  1	  3	  5	  3	  1	  2	  0	0.59137	  0	0.90000	  0	 13	 42	 43	  0	
22-Apr-2013	sub2324	2324	  2	  1	 16	  5	  1	  2	  3	  6	  1	  2	  1	0.59684	  1	0.80000	  0	 12	 30	 31	  0	
22-Apr-2013	sub2324	2324	  2	  1	 17	  5	  1	  1	  1	  1	  1	  1	  1	0.46553	  1	0.80000	  0	 11	 30	 31	  1	
22-Apr-2013	sub2324	2324	  2	  1	 18	  5	  1	  5	  4	  4	  0	  2	  1	0.48700	  0	0.70000	  0	 15	 47	 38	  1	
22-Apr-2013	sub2324	2324	  2	  1	 19	  5	  1	  4	  2	  6	  1	  1	  0	0.66484	  0	0.70000	  0	 14	 42	 43	  0	
22-Apr-2013	sub2324	2324	  2	  1	 20	  5	  1	  6	  6	  3	  1	  1	  0	0.45422	  0	0.70000	  0	 16	 45	 46	  1	
22-Apr-2013	sub2324	2324	  2	  1	 21	  5	  1	  3	  5	  3	  1	  2	  0	0.48246	  0	0.60000	  0	 13	 42	 43	  1	
22-Apr-2013	sub2324	2324	  2	  1	 22	  5	  1	  3	  5	  3	  0	  1	  0	0.41597	  1	0.60000	  0	 13	 34	 49	  1	
22-Apr-2013	sub2324	2324	  2	  1	 23	  5	  1	  2	  3	  6	  1	  2	  1	0.64805	  1	0.60000	  1	 12	 30	 51	  0	
22-Apr-2013	sub2324	2324	  2	  1	 24	  5	  1	  1	  1	  1	  1	  1	  1	0.49154	  1	0.90000	  0	 11	 30	 31	  1	
22-Apr-2013	sub2324	2324	  2	  1	 25	  5	  1	  3	  5	  3	  1	  2	  0	0.57233	  0	0.90000	  0	 13	 42	 43	  0	
22-Apr-2013	sub2324	2324	  2	  1	 26	  5	  1	  3	  5	  3	  1	  1	  1	0.42361	  1	0.90000	  0	 13	 32	 33	  1	
22-Apr-2013	sub2324	2324	  2	  1	 27	  5	  1	  3	  5	  3	  1	  1	  1	0.42600	  1	0.90000	  0	 13	 32	 33	  1	
22-Apr-2013	sub2324	2324	  2	  1	 28	  5	  1	  5	  4	  4	  1	  2	  0	0.67332	  0	0.90000	  0	 15	 45	 46	  0	
22-Apr-2013	sub2324	2324	  2	  1	 29	  5	  1	  5	  4	  4	  0	  2	  1	0.47367	  0	0.90000	  0	 15	 47	 38	  1	
22-Apr-2013	sub2324	2324	  2	  1	 30	  5	  1	  5	  4	  4	  0	  2	  1	0.44716	  0	0.80000	  0	 15	 47	 38	  1	
22-Apr-2013	sub2324	2324	  2	  1	 31	  5	  1	  4	  2	  6	  0	  1	  1	0.57919	  0	0.80000	  0	 14	 44	 39	  0	
22-Apr-2013	sub2324	2324	  2	  1	 32	  5	  1	  6	  6	  3	  0	  1	  1	0.42882	  0	0.80000	  0	 16	 47	 38	  1	
22-Apr-2013	sub2324	2324	  2	  1	 33	  5	  1	  2	  3	  6	  1	  2	  1	0.54274	  1	0.80000	  0	 12	 30	 31	  0	
22-Apr-2013	sub2324	2324	  2	  1	 34	  5	  1	  4	  2	  6	  0	  1	  1	0.53503	  0	0.80000	  0	 14	 44	 39	  0	
22-Apr-2013	sub2324	2324	  2	  1	 35	  5	  1	  5	  4	  4	  1	  2	  0	0.47513	  0	0.70000	  0	 15	 45	 46	  1	
22-Apr-2013	sub2324	2324	  2	  1	 36	  5	  1	  3	  5	  3	  1	  2	  0	0.44507	  0	0.70000	  0	 13	 42	 43	  1	
22-Apr-2013	sub2324	2324	  2	  1	 37	  5	  1	  2	  3	  6	  1	  2	  1	0.56459	  1	0.70000	  0	 12	 30	 31	  0	
22-Apr-2013	sub2324	2324	  2	  1	 38	  5	  1	  2	  3	  6	  1	  2	  1	0.46197	  1	0.70000	  0	 12	 30	 31	  1	
22-Apr-2013	sub2324	2324	  2	  1	 39	  5	  1	  4	  2	  6	  1	  1	  0	0.47575	  0	0.70000	  0	 14	 42	 43	  1	
22-Apr-2013	sub2324	2324	  2	  1	 40	  5	  1	  2	  3	  6	  1	  2	  1	0.46031	  1	0.70000	  0	 12	 30	 31	  1	
22-Apr-2013	sub2324	2324	  2	  1	 41	  5	  1	  1	  1	  1	  1	  1	  1	0.48255	  1	0.60000	  0	 11	 30	 31	  1	
22-Apr-2013	sub2324	2324	  2	  1	 42	  5	  1	  3	  5	  3	  1	  2	  0	0.49686	  0	0.60000	  0	 13	 42	 43	  1	
22-Apr-2013	sub2324	2324	  2	  1	 43	  5	  1	  4	  2	  6	  1	  1	  0	0.37805	  0	0.60000	  0	 14	 42	 43	  1	
22-Apr-2013	sub2324	2324	  2	  1	 44	  5	  1	  1	  1	  1	  1	  2	  0	0.28091	  0	0.60000	  0	 11	 40	 41	  1	
22-Apr-2013	sub2324	2324	  2	  1	 45	  5	  1	  1	  1	  1	  1	  1	  1	0.42129	  1	0.60000	  0	 11	 30	 31	  1	
22-Apr-2013	sub2324	2324	  2	  1	 46	  5	  1	  6	  6	  3	  1	  1	  0	0.50171	  0	0.60000	  0	 16	 45	 46	  0	
22-Apr-2013	sub2324	2324	  2	  1	 47	  5	  1	  6	  6	  3	  1	  2	  1	0.40779	  1	0.60000	  0	 16	 35	 36	  1	
22-Apr-2013	sub2324	2324	  2	  1	 48	  5	  1	  6	  6	  3	  1	  2	  1	0.41436	  1	0.60000	  0	 16	 35	 36	  1	
22-Apr-2013	sub2324	2324	  2	  1	 49	  5	  1	  6	  6	  3	  1	  2	  1	0.46903	  1	0.60000	  0	 16	 35	 36	  1	
22-Apr-2013	sub2324	2324	  2	  1	 50	  5	  1	  5	  4	  4	  0	  2	  1	0.55091	  0	0.60000	  0	 15	 47	 38	  0	
22-Apr-2013	sub2324	2324	  2	  1	 51	  5	  1	  2	  3	  6	  1	  2	  1	0.51126	  1	0.50000	  1	 12	 30	 51	  0	
22-Apr-2013	sub2324	2324	  2	  1	 52	  5	  1	  1	  1	  1	  1	  1	  1	0.47208	  1	0.70000	  0	 11	 30	 31	  1	
22-Apr-2013	sub2324	2324	  2	  1	 53	  5	  1	  1	  1	  1	  1	  1	  1	0.42162	  1	0.70000	  0	 11	 30	 31	  1	
22-Apr-2013	sub2324	2324	  2	  1	 54	  5	  1	  5	  4	  4	  0	  2	  1	0.43184	  0	0.70000	  0	 15	 47	 38	  1	
22-Apr-2013	sub2324	2324	  2	  1	 55	  5	  1	  5	  4	  4	  1	  2	  0	0.39416	  0	0.70000	  0	 15	 45	 46	  1	
22-Apr-2013	sub2324	2324	  2	  1	 56	  5	  1	  1	  1	  1	  1	  1	  1	0.50567	  1	0.70000	  0	 11	 30	 31	  0	
22-Apr-2013	sub2324	2324	  2	  1	 57	  5	  1	  5	  4	  4	  1	  1	  1	0.56754	  1	0.70000	  0	 15	 35	 36	  0	
22-Apr-2013	sub2324	2324	  2	  1	 58	  5	  1	  4	  2	  6	  1	  1	  0	0.65211	  0	0.70000	  0	 14	 42	 43	  0	
22-Apr-2013	sub2324	2324	  2	  1	 59	  5	  1	  6	  6	  3	  1	  2	  1	0.62096	  1	0.70000	  0	 16	 35	 36	  0	
22-Apr-2013	sub2324	2324	  2	  1	 60	  5	  1	  6	  6	  3	  0	  2	  0	0.40511	  1	0.70000	  0	 16	 37	 48	  1	
22-Apr-2013	sub2324	2324	  2	  1	 61	  5	  1	  4	  2	  6	  1	  1	  0	0.46085	  0	0.60000	  0	 14	 42	 43	  1	
22-Apr-2013	sub2324	2324	  2	  1	 62	  5	  1	  6	  6	  3	  0	  2	  0	0.41777	  1	0.60000	  0	 16	 37	 48	  1	
22-Apr-2013	sub2324	2324	  2	  1	 63	  5	  1	  1	  1	  1	  1	  1	  1	0.47098	  1	0.60000	  0	 11	 30	 31	  1	
22-Apr-2013	sub2324	2324	  2	  1	 64	  5	  1	  5	  4	  4	  1	  2	  0	0.53013	  0	0.60000	  0	 15	 45	 46	  0	
22-Apr-2013	sub2324	2324	  2	  1	 65	  5	  1	  6	  6	  3	  0	  2	  0	0.43429	  1	0.60000	  0	 16	 37	 48	  1	
22-Apr-2013	sub2324	2324	  2	  1	 66	  5	  1	  2	  3	  6	  1	  2	  1	0.53208	  1	0.60000	  0	 12	 30	 31	  0	
22-Apr-2013	sub2324	2324	  2	  1	 67	  5	  1	  1	  1	  1	  1	  1	  1	0.49111	  1	0.60000	  0	 11	 30	 31	  1	
22-Apr-2013	sub2324	2324	  2	  1	 68	  5	  1	  3	  5	  3	  0	  2	  1	0.55322	  0	0.60000	  0	 13	 44	 39	  0	
22-Apr-2013	sub2324	2324	  2	  1	 69	  5	  1	  3	  5	  3	  1	  2	  0	0.46290	  0	0.60000	  0	 13	 42	 43	  1	
22-Apr-2013	sub2324	2324	  2	  1	 70	  5	  1	  4	  2	  6	  1	  2	  1	0.42083	  1	0.60000	  0	 14	 32	 33	  1	
22-Apr-2013	sub2324	2324	  2	  1	 71	  5	  1	  5	  4	  4	  1	  2	  0	0.52003	  0	0.60000	  0	 15	 45	 46	  0	
22-Apr-2013	sub2324	2324	  2	  1	 72	  5	  1	  2	  3	  6	  1	  2	  1	0.47121	  1	0.60000	  0	 12	 30	 31	  1	
22-Apr-2013	sub2324	2324	  2	  1	 73	  5	  1	  4	  2	  6	  1	  1	  0	0.53929	  0	0.60000	  0	 14	 42	 43	  0	
22-Apr-2013	sub2324	2324	  2	  1	 74	  5	  1	  1	  1	  1	  1	  2	  0	0.40596	  0	0.60000	  0	 11	 40	 41	  1	
22-Apr-2013	sub2324	2324	  2	  1	 75	  5	  1	  2	  3	  6	  1	  2	  1	0.50593	  1	0.60000	  0	 12	 30	 31	  0	
22-Apr-2013	sub2324	2324	  2	  1	 76	  5	  2	  2	  3	  6	  1	  2	  1	0.49561	  1	0.50000	  0	 22	 60	 61	  1	
22-Apr-2013	sub2324	2324	  2	  1	 77	  5	  2	  5	  4	  4	  0	  2	  1	0.52165	  0	0.50000	  1	 25	 87	 51	  0	
22-Apr-2013	sub2324	2324	  2	  1	 78	  5	  2	  4	  2	  6	  1	  1	  0	0.50274	  0	0.70000	  0	 24	 82	 83	  0	
22-Apr-2013	sub2324	2324	  2	  1	 79	  5	  2	  4	  2	  6	  1	  2	  1	0.32053	  1	0.70000	  0	 24	 62	 63	  1	
22-Apr-2013	sub2324	2324	  2	  1	 80	  5	  2	  4	  2	  6	  1	  2	  1	0.45674	  1	0.70000	  0	 24	 62	 63	  1	
22-Apr-2013	sub2324	2324	  2	  1	 81	  5	  2	  1	  1	  1	  1	  1	  1	0.48332	  1	0.60000	  0	 21	 60	 61	  1	
22-Apr-2013	sub2324	2324	  2	  1	 82	  5	  2	  6	  6	  3	  1	  2	  1	0.56745	  1	0.60000	  0	 26	 65	 66	  0	
22-Apr-2013	sub2324	2324	  2	  1	 83	  5	  2	  4	  2	  6	  1	  1	  0	0.59584	  0	0.60000	  0	 24	 82	 83	  0	
22-Apr-2013	sub2324	2324	  2	  1	 84	  5	  2	  3	  5	  3	  1	  2	  0	0.52873	  0	0.60000	  0	 23	 82	 83	  0	
22-Apr-2013	sub2324	2324	  2	  1	 85	  5	  2	  3	  5	  3	  1	  1	  1	0.36623	  1	0.60000	  0	 23	 62	 63	  1	
22-Apr-2013	sub2324	2324	  2	  1	 86	  5	  2	  5	  4	  4	  0	  2	  1	0.55374	  0	0.60000	  0	 25	 87	 68	  0	
22-Apr-2013	sub2324	2324	  2	  1	 87	  5	  2	  6	  6	  3	  1	  2	  1	0.52365	  1	0.60000	  0	 26	 65	 66	  0	
22-Apr-2013	sub2324	2324	  2	  1	 88	  5	  2	  3	  5	  3	  1	  2	  0	0.54331	  0	0.60000	  0	 23	 82	 83	  0	
22-Apr-2013	sub2324	2324	  2	  1	 89	  5	  2	  1	  1	  1	  1	  1	  1	0.48218	  1	0.60000	  0	 21	 60	 61	  1	
22-Apr-2013	sub2324	2324	  2	  1	 90	  5	  2	  1	  1	  1	  1	  1	  1	0.42492	  1	0.60000	  0	 21	 60	 61	  1	
22-Apr-2013	sub2324	2324	  2	  1	 91	  5	  2	  3	  5	  3	  0	  1	  0	0.45291	  1	0.60000	  0	 23	 64	 89	  1	
22-Apr-2013	sub2324	2324	  2	  1	 92	  5	  2	  2	  3	  6	  1	  2	  1	0.47954	  1	0.60000	  0	 22	 60	 61	  1	
22-Apr-2013	sub2324	2324	  2	  1	 93	  5	  2	  4	  2	  6	  1	  1	  0	0.57045	  0	0.60000	  0	 24	 82	 83	  0	
22-Apr-2013	sub2324	2324	  2	  1	 94	  5	  2	  5	  4	  4	  0	  2	  1	0.48727	  0	0.60000	  0	 25	 87	 68	  1	
22-Apr-2013	sub2324	2324	  2	  1	 95	  5	  2	  3	  5	  3	  1	  2	  0	0.35654	  0	0.60000	  0	 23	 82	 83	  1	
22-Apr-2013	sub2324	2324	  2	  1	 96	  5	  2	  1	  1	  1	  1	  1	  1	0.48954	  1	0.60000	  0	 21	 60	 61	  1	
22-Apr-2013	sub2324	2324	  2	  1	 97	  5	  2	  2	  3	  6	  1	  2	  1	0.49835	  1	0.60000	  0	 22	 60	 61	  1	
22-Apr-2013	sub2324	2324	  2	  1	 98	  5	  2	  5	  4	  4	  0	  2	  1	0.55335	  0	0.60000	  0	 25	 87	 68	  0	
22-Apr-2013	sub2324	2324	  2	  1	 99	  5	  2	  2	  3	  6	  1	  1	  0	0.41421	  0	0.60000	  0	 22	 80	 81	  1	
22-Apr-2013	sub2324	2324	  2	  1	100	  5	  2	  1	  1	  1	  1	  1	  1	0.49863	  1	0.60000	  0	 21	 60	 61	  1	
22-Apr-2013	sub2324	2324	  2	  1	101	  5	  2	  2	  3	  6	  1	  2	  1	0.46365	  1	0.50000	  0	 22	 60	 61	  1	
22-Apr-2013	sub2324	2324	  2	  1	102	  5	  2	  6	  6	  3	  0	  2	  0	0.62726	  1	0.50000	  1	 26	 67	 51	  0	
22-Apr-2013	sub2324	2324	  2	  1	103	  5	  2	  3	  5	  3	  1	  2	  0	0.55354	  0	0.60000	  0	 23	 82	 83	  0	
22-Apr-2013	sub2324	2324	  2	  1	104	  5	  2	  6	  6	  3	  1	  2	  1	0.47903	  1	0.60000	  0	 26	 65	 66	  1	
22-Apr-2013	sub2324	2324	  2	  1	105	  5	  2	  1	  1	  1	  1	  1	  1	0.48972	  1	0.60000	  0	 21	 60	 61	  1	
22-Apr-2013	sub2324	2324	  2	  1	106	  5	  2	  6	  6	  3	  1	  2	  1	0.60419	  1	0.60000	  1	 26	 65	 51	  0	
22-Apr-2013	sub2324	2324	  2	  1	107	  5	  2	  2	  3	  6	  1	  2	  1	0.47382	  1	0.70000	  0	 22	 60	 61	  1	
22-Apr-2013	sub2324	2324	  2	  1	108	  5	  2	  3	  5	  3	  0	  2	  1	0.55857	  0	0.70000	  0	 23	 84	 69	  0	
22-Apr-2013	sub2324	2324	  2	  1	109	  5	  2	  4	  2	  6	  1	  2	  1	0.50263	  1	0.70000	  0	 24	 62	 63	  0	
22-Apr-2013	sub2324	2324	  2	  1	110	  5	  2	  1	  1	  1	  1	  1	  1	0.50546	  1	0.70000	  0	 21	 60	 61	  0	
22-Apr-2013	sub2324	2324	  2	  1	111	  5	  2	  2	  3	  6	  1	  2	  1	0.42573	  1	0.70000	  0	 22	 60	 61	  1	
22-Apr-2013	sub2324	2324	  2	  1	112	  5	  2	  5	  4	  4	  0	  2	  1	0.47897	  0	0.70000	  0	 25	 87	 68	  1	
22-Apr-2013	sub2324	2324	  2	  1	113	  5	  2	  4	  2	  6	  0	  1	  1	0.57439	  0	0.70000	  0	 24	 84	 69	  0	
22-Apr-2013	sub2324	2324	  2	  1	114	  5	  2	  2	  3	  6	  1	  2	  1	0.47242	  1	0.70000	  0	 22	 60	 61	  1	
22-Apr-2013	sub2324	2324	  2	  1	115	  5	  2	  6	  6	  3	  0	  2	  0	0.55254	  1	0.70000	  0	 26	 67	 88	  0	
22-Apr-2013	sub2324	2324	  2	  1	116	  5	  2	  4	  2	  6	  1	  1	  0	0.63022	  0	0.70000	  0	 24	 82	 83	  0	
22-Apr-2013	sub2324	2324	  2	  1	117	  5	  2	  1	  1	  1	  1	  1	  1	0.51451	  1	0.70000	  0	 21	 60	 61	  0	
22-Apr-2013	sub2324	2324	  2	  1	118	  5	  2	  4	  2	  6	  1	  1	  0	0.46143	  0	0.70000	  0	 24	 82	 83	  1	
22-Apr-2013	sub2324	2324	  2	  1	119	  5	  2	  1	  1	  1	  1	  1	  1	0.55569	  1	0.70000	  0	 21	 60	 61	  0	
22-Apr-2013	sub2324	2324	  2	  1	120	  5	  2	  6	  6	  3	  0	  2	  0	0.47793	  1	0.70000	  0	 26	 67	 88	  1	
22-Apr-2013	sub2324	2324	  2	  1	121	  5	  2	  5	  4	  4	  0	  2	  1	0.52314	  0	0.60000	  0	 25	 87	 68	  0	
22-Apr-2013	sub2324	2324	  2	  1	122	  5	  2	  3	  5	  3	  1	  2	  0	0.71527	  0	0.60000	  1	 23	 82	 51	  0	
22-Apr-2013	sub2324	2324	  2	  1	123	  5	  2	  6	  6	  3	  1	  2	  1	0.49250	  1	0.70000	  0	 26	 65	 66	  1	
22-Apr-2013	sub2324	2324	  2	  1	124	  5	  2	  5	  4	  4	  0	  2	  1	0.43503	  0	0.70000	  0	 25	 87	 68	  1	
22-Apr-2013	sub2324	2324	  2	  1	125	  5	  2	  3	  5	  3	  1	  2	  0	0.49544	  0	0.70000	  0	 23	 82	 83	  1	
22-Apr-2013	sub2324	2324	  2	  1	126	  5	  2	  6	  6	  3	  0	  2	  0	0.47196	  1	0.70000	  0	 26	 67	 88	  1	
22-Apr-2013	sub2324	2324	  2	  1	127	  5	  2	  3	  5	  3	  1	  1	  1	0.63149	  1	0.70000	  0	 23	 62	 63	  0	
22-Apr-2013	sub2324	2324	  2	  1	128	  5	  2	  2	  3	  6	  1	  2	  1	0.50518	  1	0.70000	  0	 22	 60	 61	  0	
22-Apr-2013	sub2324	2324	  2	  1	129	  5	  2	  2	  3	  6	  1	  2	  1	0.53546	  1	0.70000	  0	 22	 60	 61	  0	
22-Apr-2013	sub2324	2324	  2	  1	130	  5	  2	  6	  6	  3	  1	  2	  1	0.52968	  1	0.70000	  0	 26	 65	 66	  0	
22-Apr-2013	sub2324	2324	  2	  1	131	  5	  2	  3	  5	  3	  1	  1	  1	0.49567	  1	0.70000	  0	 23	 62	 63	  1	
22-Apr-2013	sub2324	2324	  2	  1	132	  5	  2	  6	  6	  3	  0	  2	  0	0.52250	  1	0.70000	  0	 26	 67	 88	  0	
22-Apr-2013	sub2324	2324	  2	  1	133	  5	  2	  1	  1	  1	  1	  1	  1	0.49787	  1	0.70000	  0	 21	 60	 61	  1	
22-Apr-2013	sub2324	2324	  2	  1	134	  5	  2	  5	  4	  4	  0	  2	  1	0.50536	  0	0.70000	  0	 25	 87	 68	  0	
22-Apr-2013	sub2324	2324	  2	  1	135	  5	  2	  6	  6	  3	  0	  1	  1	0.49540	  0	0.70000	  0	 26	 87	 68	  1	
22-Apr-2013	sub2324	2324	  2	  1	136	  5	  2	  4	  2	  6	  1	  1	  0	0.55610	  0	0.70000	  0	 24	 82	 83	  0	
22-Apr-2013	sub2324	2324	  2	  1	137	  5	  2	  5	  4	  4	  0	  2	  1	0.51298	  0	0.70000	  0	 25	 87	 68	  0	
22-Apr-2013	sub2324	2324	  2	  1	138	  5	  2	  5	  4	  4	  0	  2	  1	0.48646	  0	0.70000	  0	 25	 87	 68	  1	
22-Apr-2013	sub2324	2324	  2	  1	139	  5	  2	  4	  2	  6	  1	  2	  1	0.44498	  1	0.70000	  0	 24	 62	 63	  1	
22-Apr-2013	sub2324	2324	  2	  1	140	  5	  2	  1	  1	  1	  1	  1	  1	0.43340	  1	0.70000	  0	 21	 60	 61	  1	
22-Apr-2013	sub2324	2324	  2	  1	141	  5	  2	  5	  4	  4	  0	  2	  1	0.43364	  0	0.60000	  0	 25	 87	 68	  1	
22-Apr-2013	sub2324	2324	  2	  1	142	  5	  2	  5	  4	  4	  0	  2	  1	0.45910	  0	0.60000	  0	 25	 87	 68	  1	
22-Apr-2013	sub2324	2324	  2	  1	143	  5	  2	  2	  3	  6	  1	  2	  1	0.46189	  1	0.60000	  0	 22	 60	 61	  1	
22-Apr-2013	sub2324	2324	  2	  1	144	  5	  2	  1	  1	  1	  1	  1	  1	0.43343	  1	0.60000	  0	 21	 60	 61	  1	
22-Apr-2013	sub2324	2324	  2	  1	145	  5	  2	  3	  5	  3	  1	  2	  0	0.40679	  0	0.60000	  0	 23	 82	 83	  1	
22-Apr-2013	sub2324	2324	  2	  1	146	  5	  2	  4	  2	  6	  0	  2	  0	0.48283	  1	0.60000	  0	 24	 64	 89	  1	
22-Apr-2013	sub2324	2324	  2	  1	147	  5	  2	  4	  2	  6	  0	  2	  0	0.48074	  1	0.60000	  0	 24	 64	 89	  1	
22-Apr-2013	sub2324	2324	  2	  1	148	  5	  2	  5	  4	  4	  0	  2	  1	0.50611	  0	0.60000	  0	 25	 87	 68	  0	
22-Apr-2013	sub2324	2324	  2	  1	149	  5	  2	  2	  3	  6	  1	  2	  1	0.54240	  1	0.60000	  0	 22	 60	 61	  0	
22-Apr-2013	sub2324	2324	  2	  1	150	  5	  2	  1	  1	  1	  1	  1	  1	0.98642	  1	0.60000	  1	 21	 60	 51	  0	
22-Apr-2013	sub2324	2324	  2	  1	  1	  6	  1	  6	  4	  2	  0	  2	  0	0.47167	  1	0.60000	  0	 16	 37	 48	  1	
22-Apr-2013	sub2324	2324	  2	  1	  2	  6	  1	  3	  6	  4	  1	  2	  0	0.42060	  0	0.30000	  1	 13	 42	 51	  1	
22-Apr-2013	sub2324	2324	  2	  1	  3	  6	  1	  3	  6	  4	  0	  2	  1	0.47127	  0	0.90000	  0	 13	 44	 39	  1	
22-Apr-2013	sub2324	2324	  2	  1	  4	  6	  1	  5	  3	  5	  0	  2	  1	0.53217	  0	0.90000	  0	 15	 47	 38	  0	
22-Apr-2013	sub2324	2324	  2	  1	  5	  6	  1	  1	  1	  6	  1	  1	  1	0.50118	  1	0.90000	  0	 11	 30	 31	  0	
22-Apr-2013	sub2324	2324	  2	  1	  6	  6	  1	  1	  1	  6	  1	  1	  1	0.51117	  1	0.90000	  0	 11	 30	 31	  0	
22-Apr-2013	sub2324	2324	  2	  1	  7	  6	  1	  6	  4	  2	  0	  2	  0	0.57774	  1	0.90000	  0	 16	 37	 48	  0	
22-Apr-2013	sub2324	2324	  2	  1	  8	  6	  1	  3	  6	  4	  1	  2	  0	0.48078	  0	0.90000	  0	 13	 42	 43	  1	
22-Apr-2013	sub2324	2324	  2	  1	  9	  6	  1	  5	  3	  5	  1	  2	  0	0.64776	  0	0.90000	  0	 15	 45	 46	  0	
22-Apr-2013	sub2324	2324	  2	  1	 10	  6	  1	  2	  2	  5	  1	  1	  0	0.57545	  0	0.90000	  0	 12	 40	 41	  0	
22-Apr-2013	sub2324	2324	  2	  1	 11	  6	  1	  3	  6	  4	  1	  2	  0	0.50406	  0	0.90000	  0	 13	 42	 43	  0	
22-Apr-2013	sub2324	2324	  2	  1	 12	  6	  1	  4	  5	  4	  1	  1	  0	0.59851	  0	0.90000	  0	 14	 42	 43	  0	
22-Apr-2013	sub2324	2324	  2	  1	 13	  6	  1	  3	  6	  4	  1	  2	  0	0.49629	  0	0.90000	  0	 13	 42	 43	  1	
22-Apr-2013	sub2324	2324	  2	  1	 14	  6	  1	  5	  3	  5	  0	  1	  0	0.55126	  1	0.90000	  0	 15	 37	 48	  0	
22-Apr-2013	sub2324	2324	  2	  1	 15	  6	  1	  4	  5	  4	  1	  2	  1	0.51448	  1	0.90000	  0	 14	 32	 33	  0	
22-Apr-2013	sub2324	2324	  2	  1	 16	  6	  1	  1	  1	  6	  1	  1	  1	0.54173	  1	0.80000	  0	 11	 30	 31	  0	
22-Apr-2013	sub2324	2324	  2	  1	 17	  6	  1	  2	  2	  5	  1	  2	  1	0.56320	  1	0.80000	  0	 12	 30	 31	  0	
22-Apr-2013	sub2324	2324	  2	  1	 18	  6	  1	  3	  6	  4	  1	  2	  0	0.54262	  0	0.70000	  0	 13	 42	 43	  0	
22-Apr-2013	sub2324	2324	  2	  1	 19	  6	  1	  5	  3	  5	  0	  2	  1	0.55787	  0	0.70000	  0	 15	 47	 38	  0	
22-Apr-2013	sub2324	2324	  2	  1	 20	  6	  1	  1	  1	  6	  1	  1	  1	0.48946	  1	0.70000	  0	 11	 30	 31	  1	
22-Apr-2013	sub2324	2324	  2	  1	 21	  6	  1	  2	  2	  5	  1	  1	  0	0.51318	  0	0.60000	  0	 12	 40	 41	  0	
22-Apr-2013	sub2324	2324	  2	  1	 22	  6	  1	  4	  5	  4	  1	  1	  0	0.61353	  0	0.60000	  1	 14	 42	 51	  0	
22-Apr-2013	sub2324	2324	  2	  1	 23	  6	  1	  6	  4	  2	  0	  1	  1	0.57771	  0	0.90000	  0	 16	 47	 38	  0	
22-Apr-2013	sub2324	2324	  2	  1	 24	  6	  1	  6	  4	  2	  0	  1	  1	0.45253	  0	0.90000	  0	 16	 47	 38	  1	
22-Apr-2013	sub2324	2324	  2	  1	 25	  6	  1	  5	  3	  5	  0	  2	  1	0.49624	  0	0.90000	  0	 15	 47	 38	  1	
22-Apr-2013	sub2324	2324	  2	  1	 26	  6	  1	  6	  4	  2	  1	  1	  0	0.60096	  0	0.90000	  0	 16	 45	 46	  0	
22-Apr-2013	sub2324	2324	  2	  1	 27	  6	  1	  5	  3	  5	  1	  2	  0	0.42519	  0	0.90000	  0	 15	 45	 46	  1	
22-Apr-2013	sub2324	2324	  2	  1	 28	  6	  1	  4	  5	  4	  1	  1	  0	0.64148	  0	0.90000	  0	 14	 42	 43	  0	
22-Apr-2013	sub2324	2324	  2	  1	 29	  6	  1	  4	  5	  4	  1	  2	  1	0.32736	  1	0.90000	  0	 14	 32	 33	  1	
22-Apr-2013	sub2324	2324	  2	  1	 30	  6	  1	  1	  1	  6	  1	  1	  1	0.46185	  1	0.80000	  0	 11	 30	 31	  1	
22-Apr-2013	sub2324	2324	  2	  1	 31	  6	  1	  3	  6	  4	  1	  2	  0	0.50016	  0	0.80000	  0	 13	 42	 43	  1	
22-Apr-2013	sub2324	2324	  2	  1	 32	  6	  1	  6	  4	  2	  0	  1	  1	0.49870	  0	0.80000	  0	 16	 47	 38	  1	
22-Apr-2013	sub2324	2324	  2	  1	 33	  6	  1	  1	  1	  6	  1	  1	  1	0.46935	  1	0.80000	  0	 11	 30	 31	  1	
22-Apr-2013	sub2324	2324	  2	  1	 34	  6	  1	  4	  5	  4	  1	  1	  0	0.56516	  0	0.80000	  0	 14	 42	 43	  0	
22-Apr-2013	sub2324	2324	  2	  1	 35	  6	  1	  4	  5	  4	  1	  2	  1	0.47489	  1	0.70000	  0	 14	 32	 33	  1	
22-Apr-2013	sub2324	2324	  2	  1	 36	  6	  1	  1	  1	  6	  1	  1	  1	0.48246	  1	0.70000	  0	 11	 30	 31	  1	
22-Apr-2013	sub2324	2324	  2	  1	 37	  6	  1	  4	  5	  4	  1	  2	  1	0.80507	  1	0.70000	  1	 14	 32	 51	  0	
22-Apr-2013	sub2324	2324	  2	  1	 38	  6	  1	  4	  5	  4	  0	  2	  0	0.46466	  1	0.90000	  0	 14	 34	 49	  1	
22-Apr-2013	sub2324	2324	  2	  1	 39	  6	  1	  4	  5	  4	  1	  2	  1	0.41001	  1	0.90000	  0	 14	 32	 33	  1	
22-Apr-2013	sub2324	2324	  2	  1	 40	  6	  1	  2	  2	  5	  1	  2	  1	0.60870	  1	0.90000	  0	 12	 30	 31	  0	
22-Apr-2013	sub2324	2324	  2	  1	 41	  6	  1	  6	  4	  2	  1	  1	  0	0.43129	  0	0.90000	  0	 16	 45	 46	  1	
22-Apr-2013	sub2324	2324	  2	  1	 42	  6	  1	  5	  3	  5	  1	  2	  0	0.54673	  0	0.90000	  0	 15	 45	 46	  0	
22-Apr-2013	sub2324	2324	  2	  1	 43	  6	  1	  6	  4	  2	  1	  1	  0	0.52958	  0	0.90000	  0	 16	 45	 46	  0	
22-Apr-2013	sub2324	2324	  2	  1	 44	  6	  1	  5	  3	  5	  1	  2	  0	0.38091	  0	0.80000	  0	 15	 45	 46	  1	
22-Apr-2013	sub2324	2324	  2	  1	 45	  6	  1	  6	  4	  2	  0	  1	  1	0.56562	  0	0.80000	  0	 16	 47	 38	  0	
22-Apr-2013	sub2324	2324	  2	  1	 46	  6	  1	  3	  6	  4	  1	  2	  0	0.63543	  0	0.80000	  0	 13	 42	 43	  0	
22-Apr-2013	sub2324	2324	  2	  1	 47	  6	  1	  6	  4	  2	  1	  1	  0	0.49633	  0	0.80000	  0	 16	 45	 46	  1	
22-Apr-2013	sub2324	2324	  2	  1	 48	  6	  1	  2	  2	  5	  1	  1	  0	0.56218	  0	0.80000	  0	 12	 40	 41	  0	
22-Apr-2013	sub2324	2324	  2	  1	 49	  6	  1	  2	  2	  5	  1	  2	  1	0.42245	  1	0.80000	  0	 12	 30	 31	  1	
22-Apr-2013	sub2324	2324	  2	  1	 50	  6	  1	  4	  5	  4	  1	  2	  1	0.60188	  1	0.80000	  0	 14	 32	 33	  0	
22-Apr-2013	sub2324	2324	  2	  1	 51	  6	  1	  6	  4	  2	  0	  1	  1	0.53282	  0	0.70000	  0	 16	 47	 38	  0	
22-Apr-2013	sub2324	2324	  2	  1	 52	  6	  1	  3	  6	  4	  0	  2	  1	0.52098	  0	0.70000	  0	 13	 44	 39	  0	
22-Apr-2013	sub2324	2324	  2	  1	 53	  6	  1	  3	  6	  4	  1	  1	  1	0.51249	  1	0.70000	  0	 13	 32	 33	  0	
22-Apr-2013	sub2324	2324	  2	  1	 54	  6	  1	  5	  3	  5	  1	  2	  0	0.52412	  0	0.70000	  0	 15	 45	 46	  0	
22-Apr-2013	sub2324	2324	  2	  1	 55	  6	  1	  1	  1	  6	  1	  1	  1	0.50481	  1	0.70000	  0	 11	 30	 31	  0	
22-Apr-2013	sub2324	2324	  2	  1	 56	  6	  1	  2	  2	  5	  1	  2	  1	0.58031	  1	0.70000	  0	 12	 30	 31	  0	
22-Apr-2013	sub2324	2324	  2	  1	 57	  6	  1	  5	  3	  5	  1	  2	  0	0.63096	  0	0.70000	  0	 15	 45	 46	  0	
22-Apr-2013	sub2324	2324	  2	  1	 58	  6	  1	  2	  2	  5	  1	  2	  1	0.65883	  1	0.70000	  0	 12	 30	 31	  0	
22-Apr-2013	sub2324	2324	  2	  1	 59	  6	  1	  1	  1	  6	  1	  1	  1	0.43973	  1	0.70000	  0	 11	 30	 31	  1	
22-Apr-2013	sub2324	2324	  2	  1	 60	  6	  1	  2	  2	  5	  1	  2	  1	0.55012	  1	0.70000	  0	 12	 30	 31	  0	
22-Apr-2013	sub2324	2324	  2	  1	 61	  6	  1	  2	  2	  5	  1	  2	  1	0.48979	  1	0.60000	  0	 12	 30	 31	  1	
22-Apr-2013	sub2324	2324	  2	  1	 62	  6	  1	  4	  5	  4	  0	  2	  0	0.52998	  1	0.60000	  0	 14	 34	 49	  0	
22-Apr-2013	sub2324	2324	  2	  1	 63	  6	  1	  2	  2	  5	  1	  2	  1	0.54914	  1	0.60000	  0	 12	 30	 31	  0	
22-Apr-2013	sub2324	2324	  2	  1	 64	  6	  1	  5	  3	  5	  1	  2	  0	0.53092	  0	0.60000	  0	 15	 45	 46	  0	
22-Apr-2013	sub2324	2324	  2	  1	 65	  6	  1	  2	  2	  5	  1	  2	  1	0.53530	  1	0.60000	  0	 12	 30	 31	  0	
22-Apr-2013	sub2324	2324	  2	  1	 66	  6	  1	  5	  3	  5	  0	  2	  1	0.38152	  0	0.60000	  0	 15	 47	 38	  1	
22-Apr-2013	sub2324	2324	  2	  1	 67	  6	  1	  3	  6	  4	  0	  2	  1	0.53759	  0	0.60000	  0	 13	 44	 39	  0	
22-Apr-2013	sub2324	2324	  2	  1	 68	  6	  1	  2	  2	  5	  1	  2	  1	0.50726	  1	0.60000	  0	 12	 30	 31	  0	
22-Apr-2013	sub2324	2324	  2	  1	 69	  6	  1	  1	  1	  6	  1	  1	  1	0.44446	  1	0.60000	  0	 11	 30	 31	  1	
22-Apr-2013	sub2324	2324	  2	  1	 70	  6	  1	  3	  6	  4	  1	  2	  0	0.48751	  0	0.60000	  0	 13	 42	 43	  1	
22-Apr-2013	sub2324	2324	  2	  1	 71	  6	  1	  3	  6	  4	  1	  1	  1	0.46407	  1	0.60000	  0	 13	 32	 33	  1	
22-Apr-2013	sub2324	2324	  2	  1	 72	  6	  1	  6	  4	  2	  0	  1	  1	0.60368	  0	0.60000	  1	 16	 47	 51	  0	
22-Apr-2013	sub2324	2324	  2	  1	 73	  6	  1	  1	  1	  6	  1	  1	  1	0.47122	  1	0.70000	  0	 11	 30	 31	  1	
22-Apr-2013	sub2324	2324	  2	  1	 74	  6	  1	  1	  1	  6	  1	  1	  1	0.37565	  1	0.70000	  0	 11	 30	 31	  1	
22-Apr-2013	sub2324	2324	  2	  1	 75	  6	  1	  6	  4	  2	  1	  1	  0	0.42708	  0	0.70000	  0	 16	 45	 46	  1	
22-Apr-2013	sub2324	2324	  2	  1	 76	  6	  2	  3	  6	  4	  1	  2	  0	0.40820	  0	0.70000	  0	 23	 82	 83	  1	
22-Apr-2013	sub2324	2324	  2	  1	 77	  6	  2	  2	  2	  5	  1	  2	  1	0.54837	  1	0.70000	  0	 22	 60	 61	  0	
22-Apr-2013	sub2324	2324	  2	  1	 78	  6	  2	  3	  6	  4	  1	  2	  0	0.45858	  0	0.70000	  0	 23	 82	 83	  1	
22-Apr-2013	sub2324	2324	  2	  1	 79	  6	  2	  5	  3	  5	  0	  2	  1	0.50483	  0	0.70000	  0	 25	 87	 68	  0	
22-Apr-2013	sub2324	2324	  2	  1	 80	  6	  2	  3	  6	  4	  1	  1	  1	0.67664	  1	0.70000	  0	 23	 62	 63	  0	
22-Apr-2013	sub2324	2324	  2	  1	 81	  6	  2	  5	  3	  5	  0	  1	  0	0.45108	  1	0.60000	  0	 25	 67	 88	  1	
22-Apr-2013	sub2324	2324	  2	  1	 82	  6	  2	  1	  1	  6	  1	  1	  1	0.47713	  1	0.60000	  0	 21	 60	 61	  1	
22-Apr-2013	sub2324	2324	  2	  1	 83	  6	  2	  1	  1	  6	  1	  1	  1	0.49071	  1	0.60000	  0	 21	 60	 61	  1	
22-Apr-2013	sub2324	2324	  2	  1	 84	  6	  2	  6	  4	  2	  1	  1	  0	0.53832	  0	0.60000	  0	 26	 85	 86	  0	
22-Apr-2013	sub2324	2324	  2	  1	 85	  6	  2	  4	  5	  4	  0	  2	  0	0.49086	  1	0.60000	  0	 24	 64	 89	  1	
22-Apr-2013	sub2324	2324	  2	  1	 86	  6	  2	  5	  3	  5	  0	  2	  1	0.56595	  0	0.60000	  0	 25	 87	 68	  0	
22-Apr-2013	sub2324	2324	  2	  1	 87	  6	  2	  6	  4	  2	  0	  1	  1	0.54202	  0	0.60000	  0	 26	 87	 68	  0	
22-Apr-2013	sub2324	2324	  2	  1	 88	  6	  2	  4	  5	  4	  1	  2	  1	0.48605	  1	0.60000	  0	 24	 62	 63	  1	
22-Apr-2013	sub2324	2324	  2	  1	 89	  6	  2	  2	  2	  5	  1	  2	  1	0.56116	  1	0.60000	  0	 22	 60	 61	  0	
22-Apr-2013	sub2324	2324	  2	  1	 90	  6	  2	  4	  5	  4	  1	  2	  1	0.51292	  1	0.60000	  0	 24	 62	 63	  0	
22-Apr-2013	sub2324	2324	  2	  1	 91	  6	  2	  2	  2	  5	  1	  2	  1	0.51275	  1	0.60000	  0	 22	 60	 61	  0	
22-Apr-2013	sub2324	2324	  2	  1	 92	  6	  2	  1	  1	  6	  1	  1	  1	0.49784	  1	0.60000	  0	 21	 60	 61	  1	
22-Apr-2013	sub2324	2324	  2	  1	 93	  6	  2	  2	  2	  5	  1	  2	  1	0.52450	  1	0.60000	  0	 22	 60	 61	  0	
22-Apr-2013	sub2324	2324	  2	  1	 94	  6	  2	  1	  1	  6	  1	  1	  1	0.49543	  1	0.60000	  0	 21	 60	 61	  1	
22-Apr-2013	sub2324	2324	  2	  1	 95	  6	  2	  4	  5	  4	  1	  2	  1	0.46696	  1	0.60000	  0	 24	 62	 63	  1	
22-Apr-2013	sub2324	2324	  2	  1	 96	  6	  2	  5	  3	  5	  0	  2	  1	0.52046	  0	0.60000	  0	 25	 87	 68	  0	
22-Apr-2013	sub2324	2324	  2	  1	 97	  6	  2	  4	  5	  4	  1	  2	  1	0.50761	  1	0.60000	  0	 24	 62	 63	  0	
22-Apr-2013	sub2324	2324	  2	  1	 98	  6	  2	  6	  4	  2	  0	  1	  1	0.53647	  0	0.60000	  0	 26	 87	 68	  0	
22-Apr-2013	sub2324	2324	  2	  1	 99	  6	  2	  1	  1	  6	  1	  1	  1	0.56177	  1	0.60000	  0	 21	 60	 61	  0	
22-Apr-2013	sub2324	2324	  2	  1	100	  6	  2	  1	  1	  6	  1	  1	  1	0.53812	  1	0.60000	  0	 21	 60	 61	  0	
22-Apr-2013	sub2324	2324	  2	  1	101	  6	  2	  6	  4	  2	  0	  1	  1	0.52188	  0	0.50000	  1	 26	 87	 51	  0	
22-Apr-2013	sub2324	2324	  2	  1	102	  6	  2	  2	  2	  5	  1	  2	  1	0.48792	  1	0.60000	  0	 22	 60	 61	  1	
22-Apr-2013	sub2324	2324	  2	  1	103	  6	  2	  3	  6	  4	  0	  1	  0	0.60801	  1	0.60000	  1	 23	 64	 51	  0	
22-Apr-2013	sub2324	2324	  2	  1	104	  6	  2	  3	  6	  4	  1	  1	  1	0.38307	  1	0.70000	  0	 23	 62	 63	  1	
22-Apr-2013	sub2324	2324	  2	  1	105	  6	  2	  3	  6	  4	  0	  1	  0	0.38070	  1	0.70000	  0	 23	 64	 89	  1	
22-Apr-2013	sub2324	2324	  2	  1	106	  6	  2	  4	  5	  4	  1	  2	  1	0.46439	  1	0.70000	  0	 24	 62	 63	  1	
22-Apr-2013	sub2324	2324	  2	  1	107	  6	  2	  6	  4	  2	  0	  1	  1	0.56532	  0	0.70000	  0	 26	 87	 68	  0	
22-Apr-2013	sub2324	2324	  2	  1	108	  6	  2	  2	  2	  5	  1	  2	  1	0.45224	  1	0.70000	  0	 22	 60	 61	  1	
22-Apr-2013	sub2324	2324	  2	  1	109	  6	  2	  5	  3	  5	  0	  2	  1	0.50041	  0	0.70000	  0	 25	 87	 68	  0	
22-Apr-2013	sub2324	2324	  2	  1	110	  6	  2	  5	  3	  5	  0	  2	  1	0.47796	  0	0.70000	  0	 25	 87	 68	  1	
22-Apr-2013	sub2324	2324	  2	  1	111	  6	  2	  4	  5	  4	  1	  2	  1	0.43399	  1	0.70000	  0	 24	 62	 63	  1	
22-Apr-2013	sub2324	2324	  2	  1	112	  6	  2	  3	  6	  4	  1	  1	  1	0.41722	  1	0.70000	  0	 23	 62	 63	  1	
22-Apr-2013	sub2324	2324	  2	  1	113	  6	  2	  4	  5	  4	  1	  2	  1	0.44442	  1	0.70000	  0	 24	 62	 63	  1	
22-Apr-2013	sub2324	2324	  2	  1	114	  6	  2	  1	  1	  6	  1	  1	  1	0.44533	  1	0.70000	  0	 21	 60	 61	  1	
22-Apr-2013	sub2324	2324	  2	  1	115	  6	  2	  4	  5	  4	  0	  2	  0	0.48188	  1	0.70000	  0	 24	 64	 89	  1	
22-Apr-2013	sub2324	2324	  2	  1	116	  6	  2	  4	  5	  4	  1	  2	  1	0.39014	  1	0.70000	  0	 24	 62	 63	  1	
22-Apr-2013	sub2324	2324	  2	  1	117	  6	  2	  1	  1	  6	  1	  1	  1	0.49379	  1	0.70000	  0	 21	 60	 61	  1	
22-Apr-2013	sub2324	2324	  2	  1	118	  6	  2	  4	  5	  4	  1	  2	  1	0.55333	  1	0.70000	  0	 24	 62	 63	  0	
22-Apr-2013	sub2324	2324	  2	  1	119	  6	  2	  1	  1	  6	  1	  1	  1	0.46745	  1	0.70000	  0	 21	 60	 61	  1	
22-Apr-2013	sub2324	2324	  2	  1	120	  6	  2	  5	  3	  5	  0	  2	  1	0.47275	  0	0.70000	  0	 25	 87	 68	  1	
22-Apr-2013	sub2324	2324	  2	  1	121	  6	  2	  5	  3	  5	  0	  2	  1	0.44260	  0	0.60000	  0	 25	 87	 68	  1	
22-Apr-2013	sub2324	2324	  2	  1	122	  6	  2	  2	  2	  5	  1	  2	  1	0.53034	  1	0.60000	  0	 22	 60	 61	  0	
22-Apr-2013	sub2324	2324	  2	  1	123	  6	  2	  1	  1	  6	  1	  1	  1	0.48635	  1	0.60000	  0	 21	 60	 61	  1	
22-Apr-2013	sub2324	2324	  2	  1	124	  6	  2	  6	  4	  2	  1	  1	  0	0.52694	  0	0.60000	  0	 26	 85	 86	  0	
22-Apr-2013	sub2324	2324	  2	  1	125	  6	  2	  6	  4	  2	  1	  1	  0	0.36731	  0	0.60000	  0	 26	 85	 86	  1	
22-Apr-2013	sub2324	2324	  2	  1	126	  6	  2	  3	  6	  4	  1	  1	  1	0.61304	  1	0.60000	  1	 23	 62	 51	  0	
22-Apr-2013	sub2324	2324	  2	  1	127	  6	  2	  5	  3	  5	  0	  2	  1	0.52304	  0	0.70000	  0	 25	 87	 68	  0	
22-Apr-2013	sub2324	2324	  2	  1	128	  6	  2	  3	  6	  4	  1	  1	  1	0.48611	  1	0.70000	  0	 23	 62	 63	  1	
22-Apr-2013	sub2324	2324	  2	  1	129	  6	  2	  2	  2	  5	  1	  2	  1	0.44666	  1	0.70000	  0	 22	 60	 61	  1	
22-Apr-2013	sub2324	2324	  2	  1	130	  6	  2	  1	  1	  6	  1	  1	  1	0.46055	  1	0.70000	  0	 21	 60	 61	  1	
22-Apr-2013	sub2324	2324	  2	  1	131	  6	  2	  6	  4	  2	  0	  1	  1	0.52688	  0	0.70000	  0	 26	 87	 68	  0	
22-Apr-2013	sub2324	2324	  2	  1	132	  6	  2	  3	  6	  4	  1	  1	  1	0.44785	  1	0.70000	  0	 23	 62	 63	  1	
22-Apr-2013	sub2324	2324	  2	  1	133	  6	  2	  5	  3	  5	  0	  2	  1	0.45166	  0	0.70000	  0	 25	 87	 68	  1	
22-Apr-2013	sub2324	2324	  2	  1	134	  6	  2	  5	  3	  5	  0	  2	  1	0.44975	  0	0.70000	  0	 25	 87	 68	  1	
22-Apr-2013	sub2324	2324	  2	  1	135	  6	  2	  6	  4	  2	  0	  1	  1	0.45085	  0	0.70000	  0	 26	 87	 68	  1	
22-Apr-2013	sub2324	2324	  2	  1	136	  6	  2	  2	  2	  5	  1	  2	  1	0.55799	  1	0.70000	  0	 22	 60	 61	  0	
22-Apr-2013	sub2324	2324	  2	  1	137	  6	  2	  2	  2	  5	  1	  2	  1	0.46509	  1	0.70000	  0	 22	 60	 61	  1	
22-Apr-2013	sub2324	2324	  2	  1	138	  6	  2	  6	  4	  2	  1	  1	  0	0.49693	  0	0.70000	  0	 26	 85	 86	  1	
22-Apr-2013	sub2324	2324	  2	  1	139	  6	  2	  1	  1	  6	  1	  1	  1	0.49976	  1	0.70000	  0	 21	 60	 61	  1	
22-Apr-2013	sub2324	2324	  2	  1	140	  6	  2	  6	  4	  2	  1	  1	  0	0.46834	  0	0.70000	  0	 26	 85	 86	  1	
22-Apr-2013	sub2324	2324	  2	  1	141	  6	  2	  4	  5	  4	  0	  2	  0	0.52618	  1	0.60000	  0	 24	 64	 89	  0	
22-Apr-2013	sub2324	2324	  2	  1	142	  6	  2	  6	  4	  2	  1	  1	  0	0.55554	  0	0.60000	  0	 26	 85	 86	  0	
22-Apr-2013	sub2324	2324	  2	  1	143	  6	  2	  4	  5	  4	  1	  2	  1	0.51523	  1	0.60000	  0	 24	 62	 63	  0	
22-Apr-2013	sub2324	2324	  2	  1	144	  6	  2	  1	  1	  6	  1	  1	  1	0.46575	  1	0.60000	  0	 21	 60	 61	  1	
22-Apr-2013	sub2324	2324	  2	  1	145	  6	  2	  2	  2	  5	  1	  2	  1	0.55767	  1	0.60000	  0	 22	 60	 61	  0	
22-Apr-2013	sub2324	2324	  2	  1	146	  6	  2	  3	  6	  4	  1	  1	  1	0.46112	  1	0.60000	  0	 23	 62	 63	  1	
22-Apr-2013	sub2324	2324	  2	  1	147	  6	  2	  5	  3	  5	  0	  2	  1	0.42749	  0	0.60000	  0	 25	 87	 68	  1	
22-Apr-2013	sub2324	2324	  2	  1	148	  6	  2	  5	  3	  5	  0	  2	  1	0.46738	  0	0.60000	  0	 25	 87	 68	  1	
22-Apr-2013	sub2324	2324	  2	  1	149	  6	  2	  2	  2	  5	  1	  2	  1	0.51753	  1	0.60000	  0	 22	 60	 61	  0	
22-Apr-2013	sub2324	2324	  2	  1	150	  6	  2	  3	  6	  4	  1	  1	  1	0.41998	  1	0.60000	  0	 23	 62	 63	  1	
