Date 	 Name 	 ID 	 Gender 	 Appearance 	 Trial 	 Block 	 Bin 	 Condition 	 Category 	 Number 	 Valid 	 Keypress 	 Correct 	 RT 	 Realcorrect 	 Deadline 	 Timeout 	 Stimtrigger 	 Resptrigger 	 Fedtrigger 	 WithinTime 	 
22-Apr-2013	sub2325	2325	  1	  0	  1	  1	  1	  5	  2	  3	  1	  1	  1	2.34891	  1	0.60000	  1	 15	 35	 51	  0	
22-Apr-2013	sub2325	2325	  1	  0	  2	  1	  1	  3	  5	  4	  1	  1	  1	0.32354	  1	0.90000	  0	 13	 32	 33	  1	
22-Apr-2013	sub2325	2325	  1	  0	  3	  1	  1	  3	  5	  4	  1	  1	  1	0.60039	  1	0.90000	  0	 13	 32	 33	  0	
22-Apr-2013	sub2325	2325	  1	  0	  4	  1	  1	  5	  2	  3	  1	  2	  0	1.06532	  0	0.90000	  1	 15	 45	 51	  0	
22-Apr-2013	sub2325	2325	  1	  0	  5	  1	  1	  5	  2	  3	  1	  2	  0	0.12394	  0	0.90000	  0	 15	 45	 46	  1	
22-Apr-2013	sub2325	2325	  1	  0	  6	  1	  1	  5	  2	  3	  1	  2	  0	0.57560	  0	0.90000	  0	 15	 45	 46	  0	
22-Apr-2013	sub2325	2325	  1	  0	  7	  1	  1	  1	  4	  2	  1	  1	  1	0.86843	  1	0.90000	  0	 11	 30	 31	  0	
22-Apr-2013	sub2325	2325	  1	  0	  8	  1	  1	  6	  3	  3	  0	  2	  0	0.56361	  1	0.90000	  0	 16	 37	 48	  0	
22-Apr-2013	sub2325	2325	  1	  0	  9	  1	  1	  4	  1	  1	  1	  2	  1	0.54144	  1	0.90000	  0	 14	 32	 33	  0	
22-Apr-2013	sub2325	2325	  1	  0	 10	  1	  1	  6	  3	  3	  0	  2	  0	0.48462	  1	0.90000	  0	 16	 37	 48	  1	
22-Apr-2013	sub2325	2325	  1	  0	 11	  1	  1	  5	  2	  3	  0	  2	  1	0.26826	  0	0.90000	  0	 15	 47	 38	  1	
22-Apr-2013	sub2325	2325	  1	  0	 12	  1	  1	  3	  5	  4	  1	  1	  1	0.55411	  1	0.90000	  0	 13	 32	 33	  0	
22-Apr-2013	sub2325	2325	  1	  0	 13	  1	  1	  2	  6	  4	  1	  2	  1	0.45377	  1	0.90000	  0	 12	 30	 31	  1	
22-Apr-2013	sub2325	2325	  1	  0	 14	  1	  1	  6	  3	  3	  0	  2	  0	0.41940	  1	0.90000	  0	 16	 37	 48	  1	
22-Apr-2013	sub2325	2325	  1	  0	 15	  1	  1	  4	  1	  1	  0	  2	  0	0.46553	  1	0.90000	  0	 14	 34	 49	  1	
22-Apr-2013	sub2325	2325	  1	  0	 16	  1	  1	  2	  6	  4	  1	  2	  1	0.30032	  1	0.90000	  0	 12	 30	 31	  1	
22-Apr-2013	sub2325	2325	  1	  0	 17	  1	  1	  3	  5	  4	  1	  2	  0	0.40120	  0	0.90000	  0	 13	 42	 43	  1	
22-Apr-2013	sub2325	2325	  1	  0	 18	  1	  1	  1	  4	  2	  1	  2	  0	0.43612	  0	0.90000	  0	 11	 40	 41	  1	
22-Apr-2013	sub2325	2325	  1	  0	 19	  1	  1	  4	  1	  1	  1	  1	  0	0.34272	  0	0.90000	  0	 14	 42	 43	  1	
22-Apr-2013	sub2325	2325	  1	  0	 20	  1	  1	  4	  1	  1	  1	  2	  1	0.46209	  1	0.90000	  0	 14	 32	 33	  1	
22-Apr-2013	sub2325	2325	  1	  0	 21	  1	  1	  1	  4	  2	  1	  1	  1	0.38207	  1	0.90000	  0	 11	 30	 31	  1	
22-Apr-2013	sub2325	2325	  1	  0	 22	  1	  1	  1	  4	  2	  1	  1	  1	0.43100	  1	0.90000	  0	 11	 30	 31	  1	
22-Apr-2013	sub2325	2325	  1	  0	 23	  1	  1	  2	  6	  4	  1	  2	  1	0.48193	  1	0.90000	  0	 12	 30	 31	  1	
22-Apr-2013	sub2325	2325	  1	  0	 24	  1	  1	  6	  3	  3	  1	  2	  1	0.52375	  1	0.90000	  0	 16	 35	 36	  0	
22-Apr-2013	sub2325	2325	  1	  0	 25	  1	  1	  3	  5	  4	  0	  1	  0	0.60648	  1	0.90000	  0	 13	 34	 49	  0	
22-Apr-2013	sub2325	2325	  1	  0	 26	  1	  1	  2	  6	  4	  1	  2	  1	0.41825	  1	0.90000	  0	 12	 30	 31	  1	
22-Apr-2013	sub2325	2325	  1	  0	 27	  1	  1	  3	  5	  4	  1	  2	  0	0.40900	  0	0.90000	  0	 13	 42	 43	  1	
22-Apr-2013	sub2325	2325	  1	  0	 28	  1	  1	  2	  6	  4	  1	  2	  1	0.41159	  1	0.90000	  0	 12	 30	 31	  1	
22-Apr-2013	sub2325	2325	  1	  0	 29	  1	  1	  3	  5	  4	  0	  2	  1	0.60150	  0	0.90000	  0	 13	 44	 39	  0	
22-Apr-2013	sub2325	2325	  1	  0	 30	  1	  1	  5	  2	  3	  0	  1	  0	0.59726	  1	0.80000	  0	 15	 37	 48	  0	
22-Apr-2013	sub2325	2325	  1	  0	 31	  1	  1	  4	  1	  1	  0	  2	  0	0.44682	  1	0.80000	  0	 14	 34	 49	  1	
22-Apr-2013	sub2325	2325	  1	  0	 32	  1	  1	  4	  1	  1	  1	  2	  1	0.38273	  1	0.80000	  0	 14	 32	 33	  1	
22-Apr-2013	sub2325	2325	  1	  0	 33	  1	  1	  2	  6	  4	  1	  2	  1	0.57028	  1	0.80000	  0	 12	 30	 31	  0	
22-Apr-2013	sub2325	2325	  1	  0	 34	  1	  1	  1	  4	  2	  1	  2	  0	0.42722	  0	0.80000	  0	 11	 40	 41	  1	
22-Apr-2013	sub2325	2325	  1	  0	 35	  1	  1	  3	  5	  4	  1	  2	  0	0.35010	  0	0.70000	  0	 13	 42	 43	  1	
22-Apr-2013	sub2325	2325	  1	  0	 36	  1	  1	  1	  4	  2	  1	  1	  1	0.27196	  1	0.70000	  0	 11	 30	 31	  1	
22-Apr-2013	sub2325	2325	  1	  0	 37	  1	  1	  4	  1	  1	  1	  2	  1	0.44126	  1	0.70000	  0	 14	 32	 33	  1	
22-Apr-2013	sub2325	2325	  1	  0	 38	  1	  1	  2	  6	  4	  1	  2	  1	0.34288	  1	0.70000	  0	 12	 30	 31	  1	
22-Apr-2013	sub2325	2325	  1	  0	 39	  1	  1	  6	  3	  3	  1	  2	  1	0.39455	  1	0.70000	  0	 16	 35	 36	  1	
22-Apr-2013	sub2325	2325	  1	  0	 40	  1	  1	  5	  2	  3	  1	  1	  1	0.52229	  1	0.70000	  0	 15	 35	 36	  0	
22-Apr-2013	sub2325	2325	  1	  0	 41	  1	  1	  3	  5	  4	  1	  1	  1	0.63954	  1	0.60000	  1	 13	 32	 51	  0	
22-Apr-2013	sub2325	2325	  1	  0	 42	  1	  1	  2	  6	  4	  1	  1	  0	0.32352	  0	0.90000	  0	 12	 40	 41	  1	
22-Apr-2013	sub2325	2325	  1	  0	 43	  1	  1	  2	  6	  4	  1	  2	  1	0.34851	  1	0.90000	  0	 12	 30	 31	  1	
22-Apr-2013	sub2325	2325	  1	  0	 44	  1	  1	  3	  5	  4	  1	  2	  0	0.46769	  0	0.80000	  0	 13	 42	 43	  1	
22-Apr-2013	sub2325	2325	  1	  0	 45	  1	  1	  5	  2	  3	  0	  1	  0	0.62876	  1	0.80000	  0	 15	 37	 48	  0	
22-Apr-2013	sub2325	2325	  1	  0	 46	  1	  1	  3	  5	  4	  0	  2	  1	0.38045	  0	0.80000	  0	 13	 44	 39	  1	
22-Apr-2013	sub2325	2325	  1	  0	 47	  1	  1	  1	  4	  2	  1	  2	  0	0.37531	  0	0.80000	  0	 11	 40	 41	  1	
22-Apr-2013	sub2325	2325	  1	  0	 48	  1	  1	  6	  3	  3	  0	  2	  0	0.53464	  1	0.80000	  0	 16	 37	 48	  0	
22-Apr-2013	sub2325	2325	  1	  0	 49	  1	  1	  1	  4	  2	  1	  2	  0	0.44766	  0	0.80000	  0	 11	 40	 41	  1	
22-Apr-2013	sub2325	2325	  1	  0	 50	  1	  1	  4	  1	  1	  1	  1	  0	0.40232	  0	0.80000	  0	 14	 42	 43	  1	
22-Apr-2013	sub2325	2325	  1	  0	 51	  1	  1	  2	  6	  4	  1	  1	  0	0.32206	  0	0.70000	  0	 12	 40	 41	  1	
22-Apr-2013	sub2325	2325	  1	  0	 52	  1	  1	  6	  3	  3	  1	  2	  1	0.44343	  1	0.70000	  0	 16	 35	 36	  1	
22-Apr-2013	sub2325	2325	  1	  0	 53	  1	  1	  2	  6	  4	  1	  2	  1	0.54609	  1	0.70000	  0	 12	 30	 31	  0	
22-Apr-2013	sub2325	2325	  1	  0	 54	  1	  1	  6	  3	  3	  1	  2	  1	0.50924	  1	0.70000	  0	 16	 35	 36	  0	
22-Apr-2013	sub2325	2325	  1	  0	 55	  1	  1	  6	  3	  3	  1	  2	  1	0.47055	  1	0.70000	  0	 16	 35	 36	  1	
22-Apr-2013	sub2325	2325	  1	  0	 56	  1	  1	  6	  3	  3	  1	  2	  1	0.41022	  1	0.70000	  0	 16	 35	 36	  1	
22-Apr-2013	sub2325	2325	  1	  0	 57	  1	  1	  4	  1	  1	  1	  1	  0	0.52732	  0	0.70000	  0	 14	 42	 43	  0	
22-Apr-2013	sub2325	2325	  1	  0	 58	  1	  1	  5	  2	  3	  0	  2	  1	0.44110	  0	0.70000	  0	 15	 47	 38	  1	
22-Apr-2013	sub2325	2325	  1	  0	 59	  1	  1	  1	  4	  2	  1	  2	  0	0.47144	  0	0.70000	  0	 11	 40	 41	  1	
22-Apr-2013	sub2325	2325	  1	  0	 60	  1	  1	  5	  2	  3	  0	  2	  1	0.41689	  0	0.70000	  0	 15	 47	 38	  1	
22-Apr-2013	sub2325	2325	  1	  0	 61	  1	  1	  6	  3	  3	  0	  2	  0	0.54387	  1	0.60000	  0	 16	 37	 48	  0	
22-Apr-2013	sub2325	2325	  1	  0	 62	  1	  1	  4	  1	  1	  1	  2	  1	0.45659	  1	0.60000	  0	 14	 32	 33	  1	
22-Apr-2013	sub2325	2325	  1	  0	 63	  1	  1	  5	  2	  3	  1	  2	  0	0.64692	  0	0.60000	  1	 15	 45	 51	  0	
22-Apr-2013	sub2325	2325	  1	  0	 64	  1	  1	  5	  2	  3	  0	  2	  1	0.34246	  0	0.80000	  0	 15	 47	 38	  1	
22-Apr-2013	sub2325	2325	  1	  0	 65	  1	  1	  4	  1	  1	  1	  2	  1	0.64804	  1	0.80000	  0	 14	 32	 33	  0	
22-Apr-2013	sub2325	2325	  1	  0	 66	  1	  1	  2	  6	  4	  1	  2	  1	0.47813	  1	0.80000	  0	 12	 30	 31	  1	
22-Apr-2013	sub2325	2325	  1	  0	 67	  1	  1	  3	  5	  4	  1	  2	  0	0.50841	  0	0.80000	  0	 13	 42	 43	  0	
22-Apr-2013	sub2325	2325	  1	  0	 68	  1	  1	  1	  4	  2	  1	  1	  1	0.46216	  1	0.70000	  0	 11	 30	 31	  1	
22-Apr-2013	sub2325	2325	  1	  0	 69	  1	  1	  1	  4	  2	  1	  1	  1	0.45646	  1	0.70000	  0	 11	 30	 31	  1	
22-Apr-2013	sub2325	2325	  1	  0	 70	  1	  1	  3	  5	  4	  1	  1	  1	0.58912	  1	0.70000	  0	 13	 32	 33	  0	
22-Apr-2013	sub2325	2325	  1	  0	 71	  1	  1	  2	  6	  4	  1	  1	  0	0.41488	  0	0.70000	  0	 12	 40	 41	  1	
22-Apr-2013	sub2325	2325	  1	  0	 72	  1	  1	  6	  3	  3	  1	  2	  1	0.44890	  1	0.70000	  0	 16	 35	 36	  1	
22-Apr-2013	sub2325	2325	  1	  0	 73	  1	  1	  4	  1	  1	  1	  2	  1	0.37622	  1	0.70000	  0	 14	 32	 33	  1	
22-Apr-2013	sub2325	2325	  1	  0	 74	  1	  1	  1	  4	  2	  1	  1	  1	0.52961	  1	0.70000	  0	 11	 30	 31	  0	
22-Apr-2013	sub2325	2325	  1	  0	 75	  1	  1	  6	  3	  3	  0	  1	  1	0.57947	  0	0.70000	  0	 16	 47	 38	  0	
22-Apr-2013	sub2325	2325	  1	  0	  1	  2	  1	  5	  3	  5	  1	  2	  0	0.60129	  0	0.60000	  1	 15	 45	 51	  0	
22-Apr-2013	sub2325	2325	  1	  0	  2	  2	  1	  3	  1	  5	  1	  2	  0	0.00093	  0	0.90000	  0	 13	 42	 43	  1	
22-Apr-2013	sub2325	2325	  1	  0	  3	  2	  1	  2	  5	  6	  1	  2	  1	0.35693	  1	0.90000	  0	 12	 30	 31	  1	
22-Apr-2013	sub2325	2325	  1	  0	  4	  2	  1	  6	  2	  5	  1	  2	  1	0.39815	  1	0.90000	  0	 16	 35	 36	  1	
22-Apr-2013	sub2325	2325	  1	  0	  5	  2	  1	  3	  1	  5	  1	  2	  0	0.39293	  0	0.90000	  0	 13	 42	 43	  1	
22-Apr-2013	sub2325	2325	  1	  0	  6	  2	  1	  2	  5	  6	  1	  2	  1	0.43466	  1	0.90000	  0	 12	 30	 31	  1	
22-Apr-2013	sub2325	2325	  1	  0	  7	  2	  1	  5	  3	  5	  1	  2	  0	0.39272	  0	0.90000	  0	 15	 45	 46	  1	
22-Apr-2013	sub2325	2325	  1	  0	  8	  2	  1	  5	  3	  5	  0	  2	  1	0.38786	  0	0.90000	  0	 15	 47	 38	  1	
22-Apr-2013	sub2325	2325	  1	  0	  9	  2	  1	  4	  6	  6	  1	  2	  1	0.55510	  1	0.90000	  0	 14	 32	 33	  0	
22-Apr-2013	sub2325	2325	  1	  0	 10	  2	  1	  6	  2	  5	  0	  1	  1	0.52275	  0	0.90000	  0	 16	 47	 38	  0	
22-Apr-2013	sub2325	2325	  1	  0	 11	  2	  1	  1	  4	  3	  1	  2	  0	0.38406	  0	0.90000	  0	 11	 40	 41	  1	
22-Apr-2013	sub2325	2325	  1	  0	 12	  2	  1	  4	  6	  6	  0	  2	  0	0.45998	  1	0.90000	  0	 14	 34	 49	  1	
22-Apr-2013	sub2325	2325	  1	  0	 13	  2	  1	  4	  6	  6	  1	  2	  1	0.26893	  1	0.90000	  0	 14	 32	 33	  1	
22-Apr-2013	sub2325	2325	  1	  0	 14	  2	  1	  3	  1	  5	  1	  2	  0	0.41812	  0	0.90000	  0	 13	 42	 43	  1	
22-Apr-2013	sub2325	2325	  1	  0	 15	  2	  1	  5	  3	  5	  0	  2	  1	0.27635	  0	0.90000	  0	 15	 47	 38	  1	
22-Apr-2013	sub2325	2325	  1	  0	 16	  2	  1	  1	  4	  3	  1	  2	  0	0.35513	  0	0.80000	  0	 11	 40	 41	  1	
22-Apr-2013	sub2325	2325	  1	  0	 17	  2	  1	  4	  6	  6	  1	  2	  1	0.64517	  1	0.80000	  0	 14	 32	 33	  0	
22-Apr-2013	sub2325	2325	  1	  0	 18	  2	  1	  1	  4	  3	  1	  2	  0	0.31765	  0	0.70000	  0	 11	 40	 41	  1	
22-Apr-2013	sub2325	2325	  1	  0	 19	  2	  1	  2	  5	  6	  1	  2	  1	0.35769	  1	0.70000	  0	 12	 30	 31	  1	
22-Apr-2013	sub2325	2325	  1	  0	 20	  2	  1	  5	  3	  5	  1	  2	  0	0.25352	  0	0.70000	  0	 15	 45	 46	  1	
22-Apr-2013	sub2325	2325	  1	  0	 21	  2	  1	  4	  6	  6	  1	  1	  0	0.52599	  0	0.60000	  0	 14	 42	 43	  0	
22-Apr-2013	sub2325	2325	  1	  0	 22	  2	  1	  1	  4	  3	  1	  2	  0	0.42041	  0	0.60000	  0	 11	 40	 41	  1	
22-Apr-2013	sub2325	2325	  1	  0	 23	  2	  1	  5	  3	  5	  0	  2	  1	0.40122	  0	0.60000	  0	 15	 47	 38	  1	
22-Apr-2013	sub2325	2325	  1	  0	 24	  2	  1	  4	  6	  6	  1	  2	  1	0.43319	  1	0.60000	  0	 14	 32	 33	  1	
22-Apr-2013	sub2325	2325	  1	  0	 25	  2	  1	  1	  4	  3	  1	  1	  1	0.48165	  1	0.60000	  0	 11	 30	 31	  1	
22-Apr-2013	sub2325	2325	  1	  0	 26	  2	  1	  3	  1	  5	  1	  2	  0	0.40160	  0	0.50000	  0	 13	 42	 43	  1	
22-Apr-2013	sub2325	2325	  1	  0	 27	  2	  1	  1	  4	  3	  1	  1	  1	0.27660	  1	0.50000	  0	 11	 30	 31	  1	
22-Apr-2013	sub2325	2325	  1	  0	 28	  2	  1	  3	  1	  5	  1	  2	  0	0.41833	  0	0.50000	  0	 13	 42	 43	  1	
22-Apr-2013	sub2325	2325	  1	  0	 29	  2	  1	  6	  2	  5	  0	  2	  0	0.64670	  1	0.50000	  1	 16	 37	 51	  0	
22-Apr-2013	sub2325	2325	  1	  0	 30	  2	  1	  3	  1	  5	  0	  2	  1	0.24778	  0	0.80000	  0	 13	 44	 39	  1	
22-Apr-2013	sub2325	2325	  1	  0	 31	  2	  1	  1	  4	  3	  1	  2	  0	0.38638	  0	0.80000	  0	 11	 40	 41	  1	
22-Apr-2013	sub2325	2325	  1	  0	 32	  2	  1	  2	  5	  6	  1	  1	  0	0.49817	  0	0.80000	  0	 12	 40	 41	  1	
22-Apr-2013	sub2325	2325	  1	  0	 33	  2	  1	  2	  5	  6	  1	  2	  1	0.37169	  1	0.80000	  0	 12	 30	 31	  1	
22-Apr-2013	sub2325	2325	  1	  0	 34	  2	  1	  3	  1	  5	  1	  2	  0	0.41921	  0	0.80000	  0	 13	 42	 43	  1	
22-Apr-2013	sub2325	2325	  1	  0	 35	  2	  1	  2	  5	  6	  1	  2	  1	0.29340	  1	0.70000	  0	 12	 30	 31	  1	
22-Apr-2013	sub2325	2325	  1	  0	 36	  2	  1	  3	  1	  5	  1	  1	  1	0.37222	  1	0.70000	  0	 13	 32	 33	  1	
22-Apr-2013	sub2325	2325	  1	  0	 37	  2	  1	  5	  3	  5	  0	  2	  1	0.45933	  0	0.70000	  0	 15	 47	 38	  1	
22-Apr-2013	sub2325	2325	  1	  0	 38	  2	  1	  6	  2	  5	  1	  1	  0	0.46349	  0	0.70000	  0	 16	 45	 46	  1	
22-Apr-2013	sub2325	2325	  1	  0	 39	  2	  1	  2	  5	  6	  1	  2	  1	0.38131	  1	0.70000	  0	 12	 30	 31	  1	
22-Apr-2013	sub2325	2325	  1	  0	 40	  2	  1	  4	  6	  6	  1	  1	  0	0.48476	  0	0.70000	  0	 14	 42	 43	  1	
22-Apr-2013	sub2325	2325	  1	  0	 41	  2	  1	  6	  2	  5	  1	  2	  1	0.40099	  1	0.60000	  0	 16	 35	 36	  1	
22-Apr-2013	sub2325	2325	  1	  0	 42	  2	  1	  1	  4	  3	  1	  2	  0	0.39527	  0	0.60000	  0	 11	 40	 41	  1	
22-Apr-2013	sub2325	2325	  1	  0	 43	  2	  1	  1	  4	  3	  1	  2	  0	0.33054	  0	0.60000	  0	 11	 40	 41	  1	
22-Apr-2013	sub2325	2325	  1	  0	 44	  2	  1	  3	  1	  5	  1	  2	  0	0.29574	  0	0.60000	  0	 13	 42	 43	  1	
22-Apr-2013	sub2325	2325	  1	  0	 45	  2	  1	  6	  2	  5	  1	  1	  0	0.41493	  0	0.60000	  0	 16	 45	 46	  1	
22-Apr-2013	sub2325	2325	  1	  0	 46	  2	  1	  3	  1	  5	  1	  2	  0	0.29245	  0	0.60000	  0	 13	 42	 43	  1	
22-Apr-2013	sub2325	2325	  1	  0	 47	  2	  1	  6	  2	  5	  0	  1	  1	0.50429	  0	0.60000	  0	 16	 47	 38	  0	
22-Apr-2013	sub2325	2325	  1	  0	 48	  2	  1	  2	  5	  6	  1	  1	  0	0.39327	  0	0.60000	  0	 12	 40	 41	  1	
22-Apr-2013	sub2325	2325	  1	  0	 49	  2	  1	  6	  2	  5	  0	  2	  0	0.31936	  1	0.60000	  0	 16	 37	 48	  1	
22-Apr-2013	sub2325	2325	  1	  0	 50	  2	  1	  2	  5	  6	  1	  1	  0	0.36004	  0	0.60000	  0	 12	 40	 41	  1	
22-Apr-2013	sub2325	2325	  1	  0	 51	  2	  1	  4	  6	  6	  1	  2	  1	0.30265	  1	0.50000	  0	 14	 32	 33	  1	
22-Apr-2013	sub2325	2325	  1	  0	 52	  2	  1	  5	  3	  5	  1	  2	  0	0.40898	  0	0.50000	  0	 15	 45	 46	  1	
22-Apr-2013	sub2325	2325	  1	  0	 53	  2	  1	  1	  4	  3	  1	  2	  0	0.25940	  0	0.50000	  0	 11	 40	 41	  1	
22-Apr-2013	sub2325	2325	  1	  0	 54	  2	  1	  6	  2	  5	  0	  1	  1	0.25491	  0	0.50000	  0	 16	 47	 38	  1	
22-Apr-2013	sub2325	2325	  1	  0	 55	  2	  1	  4	  6	  6	  0	  2	  0	0.50686	  1	0.50000	  1	 14	 34	 51	  0	
22-Apr-2013	sub2325	2325	  1	  0	 56	  2	  1	  3	  1	  5	  0	  2	  1	0.34442	  0	0.70000	  0	 13	 44	 39	  1	
22-Apr-2013	sub2325	2325	  1	  0	 57	  2	  1	  6	  2	  5	  0	  1	  1	0.49554	  0	0.70000	  0	 16	 47	 38	  1	
22-Apr-2013	sub2325	2325	  1	  0	 58	  2	  1	  5	  3	  5	  1	  2	  0	0.49864	  0	0.70000	  0	 15	 45	 46	  1	
22-Apr-2013	sub2325	2325	  1	  0	 59	  2	  1	  2	  5	  6	  1	  1	  0	0.58073	  0	0.70000	  0	 12	 40	 41	  0	
22-Apr-2013	sub2325	2325	  1	  0	 60	  2	  1	  5	  3	  5	  1	  2	  0	0.42187	  0	0.70000	  0	 15	 45	 46	  1	
22-Apr-2013	sub2325	2325	  1	  0	 61	  2	  1	  3	  1	  5	  1	  1	  1	0.53612	  1	0.60000	  0	 13	 32	 33	  0	
22-Apr-2013	sub2325	2325	  1	  0	 62	  2	  1	  4	  6	  6	  1	  2	  1	0.55267	  1	0.60000	  0	 14	 32	 33	  0	
22-Apr-2013	sub2325	2325	  1	  0	 63	  2	  1	  5	  3	  5	  0	  1	  0	0.40076	  1	0.60000	  0	 15	 37	 48	  1	
22-Apr-2013	sub2325	2325	  1	  0	 64	  2	  1	  1	  4	  3	  1	  2	  0	0.36243	  0	0.60000	  0	 11	 40	 41	  1	
22-Apr-2013	sub2325	2325	  1	  0	 65	  2	  1	  6	  2	  5	  0	  2	  0	0.36192	  1	0.60000	  0	 16	 37	 48	  1	
22-Apr-2013	sub2325	2325	  1	  0	 66	  2	  1	  4	  6	  6	  1	  2	  1	7.87869	  1	0.60000	  1	 14	 32	 51	  0	
22-Apr-2013	sub2325	2325	  1	  0	 67	  2	  1	  5	  3	  5	  1	  2	  0	0.33048	  0	0.80000	  0	 15	 45	 46	  1	
22-Apr-2013	sub2325	2325	  1	  0	 68	  2	  1	  1	  4	  3	  1	  1	  1	0.52833	  1	0.70000	  0	 11	 30	 31	  0	
22-Apr-2013	sub2325	2325	  1	  0	 69	  2	  1	  6	  2	  5	  0	  2	  0	0.32963	  1	0.70000	  0	 16	 37	 48	  1	
22-Apr-2013	sub2325	2325	  1	  0	 70	  2	  1	  2	  5	  6	  1	  1	  0	0.08925	  0	0.70000	  0	 12	 40	 41	  1	
22-Apr-2013	sub2325	2325	  1	  0	 71	  2	  1	  6	  2	  5	  1	  2	  1	0.00009	  1	0.70000	  0	 16	 35	 36	  1	
22-Apr-2013	sub2325	2325	  1	  0	 72	  2	  1	  3	  1	  5	  0	  1	  0	0.20638	  1	0.70000	  0	 13	 34	 49	  1	
22-Apr-2013	sub2325	2325	  1	  0	 73	  2	  1	  4	  6	  6	  1	  2	  1	0.34934	  1	0.70000	  0	 14	 32	 33	  1	
22-Apr-2013	sub2325	2325	  1	  0	 74	  2	  1	  2	  5	  6	  1	  1	  0	0.29650	  0	0.70000	  0	 12	 40	 41	  1	
22-Apr-2013	sub2325	2325	  1	  0	 75	  2	  1	  2	  5	  6	  1	  2	  1	2.42271	  1	0.70000	  1	 12	 30	 51	  0	
22-Apr-2013	sub2325	2325	  1	  0	 76	  2	  2	  5	  3	  5	  0	  2	  1	0.36678	  0	0.80000	  0	 25	 87	 68	  1	
22-Apr-2013	sub2325	2325	  1	  0	 77	  2	  2	  2	  5	  6	  1	  1	  0	0.29222	  0	0.80000	  0	 22	 80	 81	  1	
22-Apr-2013	sub2325	2325	  1	  0	 78	  2	  2	  3	  1	  5	  1	  2	  0	1.87262	  0	0.80000	  1	 23	 82	 51	  0	
22-Apr-2013	sub2325	2325	  1	  0	 79	  2	  2	  5	  3	  5	  0	  2	  1	0.33512	  0	0.90000	  0	 25	 87	 68	  1	
22-Apr-2013	sub2325	2325	  1	  0	 80	  2	  2	  5	  3	  5	  0	  1	  0	0.38838	  1	0.90000	  0	 25	 67	 88	  1	
22-Apr-2013	sub2325	2325	  1	  0	 81	  2	  2	  5	  3	  5	  0	  2	  1	0.38132	  0	0.90000	  0	 25	 87	 68	  1	
22-Apr-2013	sub2325	2325	  1	  0	 82	  2	  2	  1	  4	  3	  1	  2	  0	0.43287	  0	0.90000	  0	 21	 80	 81	  1	
22-Apr-2013	sub2325	2325	  1	  0	 83	  2	  2	  3	  1	  5	  1	  2	  0	0.35350	  0	0.90000	  0	 23	 82	 83	  1	
22-Apr-2013	sub2325	2325	  1	  0	 84	  2	  2	  5	  3	  5	  0	  2	  1	0.45514	  0	0.90000	  0	 25	 87	 68	  1	
22-Apr-2013	sub2325	2325	  1	  0	 85	  2	  2	  6	  2	  5	  0	  1	  1	0.36254	  0	0.90000	  0	 26	 87	 68	  1	
22-Apr-2013	sub2325	2325	  1	  0	 86	  2	  2	  1	  4	  3	  1	  2	  0	0.40829	  0	0.90000	  0	 21	 80	 81	  1	
22-Apr-2013	sub2325	2325	  1	  0	 87	  2	  2	  4	  6	  6	  0	  2	  0	0.46512	  1	0.80000	  0	 24	 64	 89	  1	
22-Apr-2013	sub2325	2325	  1	  0	 88	  2	  2	  4	  6	  6	  1	  1	  0	0.51159	  0	0.80000	  0	 24	 82	 83	  0	
22-Apr-2013	sub2325	2325	  1	  0	 89	  2	  2	  1	  4	  3	  1	  2	  0	0.43466	  0	0.80000	  0	 21	 80	 81	  1	
22-Apr-2013	sub2325	2325	  1	  0	 90	  2	  2	  1	  4	  3	  1	  1	  1	0.36546	  1	0.80000	  0	 21	 60	 61	  1	
22-Apr-2013	sub2325	2325	  1	  0	 91	  2	  2	  4	  6	  6	  1	  2	  1	0.61946	  1	0.80000	  0	 24	 62	 63	  0	
22-Apr-2013	sub2325	2325	  1	  0	 92	  2	  2	  1	  4	  3	  1	  1	  1	0.40278	  1	0.80000	  0	 21	 60	 61	  1	
22-Apr-2013	sub2325	2325	  1	  0	 93	  2	  2	  5	  3	  5	  0	  2	  1	0.45559	  0	0.80000	  0	 25	 87	 68	  1	
22-Apr-2013	sub2325	2325	  1	  0	 94	  2	  2	  4	  6	  6	  1	  1	  0	0.39245	  0	0.80000	  0	 24	 82	 83	  1	
22-Apr-2013	sub2325	2325	  1	  0	 95	  2	  2	  1	  4	  3	  1	  1	  1	0.41506	  1	0.80000	  0	 21	 60	 61	  1	
22-Apr-2013	sub2325	2325	  1	  0	 96	  2	  2	  3	  1	  5	  1	  2	  0	0.51399	  0	0.80000	  0	 23	 82	 83	  0	
22-Apr-2013	sub2325	2325	  1	  0	 97	  2	  2	  2	  5	  6	  1	  1	  0	0.41636	  0	0.80000	  0	 22	 80	 81	  1	
22-Apr-2013	sub2325	2325	  1	  0	 98	  2	  2	  4	  6	  6	  0	  1	  1	0.42552	  0	0.80000	  0	 24	 84	 69	  1	
22-Apr-2013	sub2325	2325	  1	  0	 99	  2	  2	  6	  2	  5	  0	  1	  1	0.40004	  0	0.80000	  0	 26	 87	 68	  1	
22-Apr-2013	sub2325	2325	  1	  0	100	  2	  2	  4	  6	  6	  1	  1	  0	0.47208	  0	0.80000	  0	 24	 82	 83	  1	
22-Apr-2013	sub2325	2325	  1	  0	101	  2	  2	  4	  6	  6	  0	  2	  0	0.33909	  1	0.70000	  0	 24	 64	 89	  1	
22-Apr-2013	sub2325	2325	  1	  0	102	  2	  2	  6	  2	  5	  1	  1	  0	0.29181	  0	0.70000	  0	 26	 85	 86	  1	
22-Apr-2013	sub2325	2325	  1	  0	103	  2	  2	  1	  4	  3	  1	  1	  1	0.53200	  1	0.70000	  0	 21	 60	 61	  0	
22-Apr-2013	sub2325	2325	  1	  0	104	  2	  2	  4	  6	  6	  1	  2	  1	0.40218	  1	0.70000	  0	 24	 62	 63	  1	
22-Apr-2013	sub2325	2325	  1	  0	105	  2	  2	  5	  3	  5	  0	  2	  1	0.50454	  0	0.70000	  0	 25	 87	 68	  0	
22-Apr-2013	sub2325	2325	  1	  0	106	  2	  2	  2	  5	  6	  1	  1	  0	0.44131	  0	0.70000	  0	 22	 80	 81	  1	
22-Apr-2013	sub2325	2325	  1	  0	107	  2	  2	  1	  4	  3	  1	  2	  0	0.36014	  0	0.70000	  0	 21	 80	 81	  1	
22-Apr-2013	sub2325	2325	  1	  0	108	  2	  2	  6	  2	  5	  0	  1	  1	0.44750	  0	0.70000	  0	 26	 87	 68	  1	
22-Apr-2013	sub2325	2325	  1	  0	109	  2	  2	  2	  5	  6	  1	  2	  1	0.55953	  1	0.70000	  0	 22	 60	 61	  0	
22-Apr-2013	sub2325	2325	  1	  0	110	  2	  2	  1	  4	  3	  1	  1	  1	0.57488	  1	0.70000	  0	 21	 60	 61	  0	
22-Apr-2013	sub2325	2325	  1	  0	111	  2	  2	  2	  5	  6	  1	  1	  0	0.45515	  0	0.70000	  0	 22	 80	 81	  1	
22-Apr-2013	sub2325	2325	  1	  0	112	  2	  2	  3	  1	  5	  1	  2	  0	0.50511	  0	0.70000	  0	 23	 82	 83	  0	
22-Apr-2013	sub2325	2325	  1	  0	113	  2	  2	  5	  3	  5	  0	  1	  0	0.53686	  1	0.70000	  0	 25	 67	 88	  0	
22-Apr-2013	sub2325	2325	  1	  0	114	  2	  2	  1	  4	  3	  1	  1	  1	0.47133	  1	0.70000	  0	 21	 60	 61	  1	
22-Apr-2013	sub2325	2325	  1	  0	115	  2	  2	  1	  4	  3	  1	  1	  1	0.60784	  1	0.70000	  0	 21	 60	 61	  0	
22-Apr-2013	sub2325	2325	  1	  0	116	  2	  2	  6	  2	  5	  1	  1	  0	0.51910	  0	0.70000	  0	 26	 85	 86	  0	
22-Apr-2013	sub2325	2325	  1	  0	117	  2	  2	  3	  1	  5	  1	  1	  1	0.47324	  1	0.70000	  0	 23	 62	 63	  1	
22-Apr-2013	sub2325	2325	  1	  0	118	  2	  2	  3	  1	  5	  1	  1	  1	0.43231	  1	0.70000	  0	 23	 62	 63	  1	
22-Apr-2013	sub2325	2325	  1	  0	119	  2	  2	  6	  2	  5	  0	  1	  1	0.64645	  0	0.70000	  0	 26	 87	 68	  0	
22-Apr-2013	sub2325	2325	  1	  0	120	  2	  2	  3	  1	  5	  0	  1	  0	0.45767	  1	0.70000	  0	 23	 64	 89	  1	
22-Apr-2013	sub2325	2325	  1	  0	121	  2	  2	  1	  4	  3	  1	  2	  0	0.46430	  0	0.60000	  0	 21	 80	 81	  1	
22-Apr-2013	sub2325	2325	  1	  0	122	  2	  2	  5	  3	  5	  0	  1	  0	0.43143	  1	0.60000	  0	 25	 67	 88	  1	
22-Apr-2013	sub2325	2325	  1	  0	123	  2	  2	  3	  1	  5	  1	  2	  0	0.60342	  0	0.60000	  1	 23	 82	 51	  0	
22-Apr-2013	sub2325	2325	  1	  0	124	  2	  2	  2	  5	  6	  1	  1	  0	0.24121	  0	0.70000	  0	 22	 80	 81	  1	
22-Apr-2013	sub2325	2325	  1	  0	125	  2	  2	  2	  5	  6	  1	  2	  1	0.35884	  1	0.70000	  0	 22	 60	 61	  1	
22-Apr-2013	sub2325	2325	  1	  0	126	  2	  2	  3	  1	  5	  1	  1	  1	0.64196	  1	0.70000	  0	 23	 62	 63	  0	
22-Apr-2013	sub2325	2325	  1	  0	127	  2	  2	  6	  2	  5	  1	  1	  0	0.43261	  0	0.70000	  0	 26	 85	 86	  1	
22-Apr-2013	sub2325	2325	  1	  0	128	  2	  2	  4	  6	  6	  1	  1	  0	0.48523	  0	0.70000	  0	 24	 82	 83	  1	
22-Apr-2013	sub2325	2325	  1	  0	129	  2	  2	  2	  5	  6	  1	  2	  1	0.42755	  1	0.70000	  0	 22	 60	 61	  1	
22-Apr-2013	sub2325	2325	  1	  0	130	  2	  2	  2	  5	  6	  1	  2	  1	0.52178	  1	0.70000	  0	 22	 60	 61	  0	
22-Apr-2013	sub2325	2325	  1	  0	131	  2	  2	  6	  2	  5	  0	  1	  1	0.55317	  0	0.70000	  0	 26	 87	 68	  0	
22-Apr-2013	sub2325	2325	  1	  0	132	  2	  2	  3	  1	  5	  1	  1	  1	0.59633	  1	0.70000	  0	 23	 62	 63	  0	
22-Apr-2013	sub2325	2325	  1	  0	133	  2	  2	  2	  5	  6	  1	  1	  0	0.52565	  0	0.70000	  0	 22	 80	 81	  0	
22-Apr-2013	sub2325	2325	  1	  0	134	  2	  2	  4	  6	  6	  1	  2	  1	0.52431	  1	0.70000	  0	 24	 62	 63	  0	
22-Apr-2013	sub2325	2325	  1	  0	135	  2	  2	  5	  3	  5	  0	  1	  0	0.59620	  1	0.70000	  0	 25	 67	 88	  0	
22-Apr-2013	sub2325	2325	  1	  0	136	  2	  2	  1	  4	  3	  1	  2	  0	0.45162	  0	0.70000	  0	 21	 80	 81	  1	
22-Apr-2013	sub2325	2325	  1	  0	137	  2	  2	  5	  3	  5	  0	  2	  1	0.41208	  0	0.70000	  0	 25	 87	 68	  1	
22-Apr-2013	sub2325	2325	  1	  0	138	  2	  2	  6	  2	  5	  1	  1	  0	0.54728	  0	0.70000	  0	 26	 85	 86	  0	
22-Apr-2013	sub2325	2325	  1	  0	139	  2	  2	  3	  1	  5	  0	  1	  0	0.47160	  1	0.70000	  0	 23	 64	 89	  1	
22-Apr-2013	sub2325	2325	  1	  0	140	  2	  2	  4	  6	  6	  1	  1	  0	1.78686	  0	0.70000	  1	 24	 82	 51	  0	
22-Apr-2013	sub2325	2325	  1	  0	141	  2	  2	  4	  6	  6	  1	  2	  1	0.29166	  1	0.70000	  0	 24	 62	 63	  1	
22-Apr-2013	sub2325	2325	  1	  0	142	  2	  2	  6	  2	  5	  1	  2	  1	0.33112	  1	0.70000	  0	 26	 65	 66	  1	
22-Apr-2013	sub2325	2325	  1	  0	143	  2	  2	  6	  2	  5	  0	  1	  1	0.35943	  0	0.70000	  0	 26	 87	 68	  1	
22-Apr-2013	sub2325	2325	  1	  0	144	  2	  2	  6	  2	  5	  1	  1	  0	0.38288	  0	0.70000	  0	 26	 85	 86	  1	
22-Apr-2013	sub2325	2325	  1	  0	145	  2	  2	  4	  6	  6	  1	  1	  0	0.35674	  0	0.70000	  0	 24	 82	 83	  1	
22-Apr-2013	sub2325	2325	  1	  0	146	  2	  2	  5	  3	  5	  0	  2	  1	0.52441	  0	0.70000	  0	 25	 87	 68	  0	
22-Apr-2013	sub2325	2325	  1	  0	147	  2	  2	  5	  3	  5	  0	  2	  1	0.48762	  0	0.70000	  0	 25	 87	 68	  1	
22-Apr-2013	sub2325	2325	  1	  0	148	  2	  2	  2	  5	  6	  1	  1	  0	0.48106	  0	0.70000	  0	 22	 80	 81	  1	
22-Apr-2013	sub2325	2325	  1	  0	149	  2	  2	  2	  5	  6	  1	  2	  1	0.34626	  1	0.70000	  0	 22	 60	 61	  1	
22-Apr-2013	sub2325	2325	  1	  0	150	  2	  2	  3	  1	  5	  1	  1	  1	0.41882	  1	0.70000	  0	 23	 62	 63	  1	
22-Apr-2013	sub2325	2325	  1	  0	  1	  3	  1	  1	  1	  4	  1	  1	  1	0.51550	  1	0.60000	  0	 11	 30	 31	  0	
22-Apr-2013	sub2325	2325	  1	  0	  2	  3	  1	  2	  3	  2	  1	  2	  1	0.57329	  1	0.30000	  1	 12	 30	 51	  0	
22-Apr-2013	sub2325	2325	  1	  0	  3	  3	  1	  5	  5	  1	  0	  1	  0	0.45173	  1	0.90000	  0	 15	 37	 48	  1	
22-Apr-2013	sub2325	2325	  1	  0	  4	  3	  1	  6	  4	  4	  0	  1	  1	0.35148	  0	0.90000	  0	 16	 47	 38	  1	
22-Apr-2013	sub2325	2325	  1	  0	  5	  3	  1	  3	  6	  1	  1	  1	  1	0.37085	  1	0.90000	  0	 13	 32	 33	  1	
22-Apr-2013	sub2325	2325	  1	  0	  6	  3	  1	  6	  4	  4	  0	  1	  1	0.54045	  0	0.90000	  0	 16	 47	 38	  0	
22-Apr-2013	sub2325	2325	  1	  0	  7	  3	  1	  3	  6	  1	  1	  1	  1	0.34268	  1	0.90000	  0	 13	 32	 33	  1	
22-Apr-2013	sub2325	2325	  1	  0	  8	  3	  1	  3	  6	  1	  0	  1	  0	0.37680	  1	0.90000	  0	 13	 34	 49	  1	
22-Apr-2013	sub2325	2325	  1	  0	  9	  3	  1	  1	  1	  4	  1	  1	  1	0.43536	  1	0.90000	  0	 11	 30	 31	  1	
22-Apr-2013	sub2325	2325	  1	  0	 10	  3	  1	  2	  3	  2	  1	  1	  0	0.32788	  0	0.90000	  0	 12	 40	 41	  1	
22-Apr-2013	sub2325	2325	  1	  0	 11	  3	  1	  2	  3	  2	  1	  1	  0	0.34887	  0	0.90000	  0	 12	 40	 41	  1	
22-Apr-2013	sub2325	2325	  1	  0	 12	  3	  1	  3	  6	  1	  1	  1	  1	0.42945	  1	0.90000	  0	 13	 32	 33	  1	
22-Apr-2013	sub2325	2325	  1	  0	 13	  3	  1	  4	  2	  2	  1	  1	  0	0.37094	  0	0.90000	  0	 14	 42	 43	  1	
22-Apr-2013	sub2325	2325	  1	  0	 14	  3	  1	  3	  6	  1	  1	  1	  1	0.47305	  1	0.90000	  0	 13	 32	 33	  1	
22-Apr-2013	sub2325	2325	  1	  0	 15	  3	  1	  4	  2	  2	  0	  1	  1	0.37289	  0	0.90000	  0	 14	 44	 39	  1	
22-Apr-2013	sub2325	2325	  1	  0	 16	  3	  1	  4	  2	  2	  1	  1	  0	0.40393	  0	0.80000	  0	 14	 42	 43	  1	
22-Apr-2013	sub2325	2325	  1	  0	 17	  3	  1	  4	  2	  2	  1	  1	  0	0.39178	  0	0.80000	  0	 14	 42	 43	  1	
22-Apr-2013	sub2325	2325	  1	  0	 18	  3	  1	  2	  3	  2	  1	  1	  0	0.47133	  0	0.70000	  0	 12	 40	 41	  1	
22-Apr-2013	sub2325	2325	  1	  0	 19	  3	  1	  5	  5	  1	  1	  2	  0	0.41839	  0	0.70000	  0	 15	 45	 46	  1	
22-Apr-2013	sub2325	2325	  1	  0	 20	  3	  1	  2	  3	  2	  1	  1	  0	0.36385	  0	0.70000	  0	 12	 40	 41	  1	
22-Apr-2013	sub2325	2325	  1	  0	 21	  3	  1	  5	  5	  1	  0	  2	  1	0.49741	  0	0.60000	  0	 15	 47	 38	  1	
22-Apr-2013	sub2325	2325	  1	  0	 22	  3	  1	  5	  5	  1	  0	  2	  1	0.46765	  0	0.60000	  0	 15	 47	 38	  1	
22-Apr-2013	sub2325	2325	  1	  0	 23	  3	  1	  4	  2	  2	  1	  1	  0	0.52821	  0	0.60000	  0	 14	 42	 43	  0	
22-Apr-2013	sub2325	2325	  1	  0	 24	  3	  1	  5	  5	  1	  0	  1	  0	0.48832	  1	0.60000	  0	 15	 37	 48	  1	
22-Apr-2013	sub2325	2325	  1	  0	 25	  3	  1	  1	  1	  4	  1	  2	  0	0.51598	  0	0.60000	  0	 11	 40	 41	  0	
22-Apr-2013	sub2325	2325	  1	  0	 26	  3	  1	  6	  4	  4	  1	  1	  0	0.55545	  0	0.50000	  1	 16	 45	 51	  0	
22-Apr-2013	sub2325	2325	  1	  0	 27	  3	  1	  3	  6	  1	  1	  1	  1	0.24359	  1	0.90000	  0	 13	 32	 33	  1	
22-Apr-2013	sub2325	2325	  1	  0	 28	  3	  1	  4	  2	  2	  0	  2	  0	1.61098	  1	0.90000	  1	 14	 34	 51	  0	
22-Apr-2013	sub2325	2325	  1	  0	 29	  3	  1	  5	  5	  1	  1	  1	  1	0.42139	  1	0.90000	  0	 15	 35	 36	  1	
22-Apr-2013	sub2325	2325	  1	  0	 30	  3	  1	  2	  3	  2	  1	  1	  0	0.28931	  0	0.90000	  0	 12	 40	 41	  1	
22-Apr-2013	sub2325	2325	  1	  0	 31	  3	  1	  2	  3	  2	  1	  2	  1	0.48374	  1	0.90000	  0	 12	 30	 31	  1	
22-Apr-2013	sub2325	2325	  1	  0	 32	  3	  1	  2	  3	  2	  1	  2	  1	0.36689	  1	0.90000	  0	 12	 30	 31	  1	
22-Apr-2013	sub2325	2325	  1	  0	 33	  3	  1	  4	  2	  2	  1	  1	  0	0.46687	  0	0.90000	  0	 14	 42	 43	  1	
22-Apr-2013	sub2325	2325	  1	  0	 34	  3	  1	  1	  1	  4	  1	  1	  1	0.45230	  1	0.90000	  0	 11	 30	 31	  1	
22-Apr-2013	sub2325	2325	  1	  0	 35	  3	  1	  6	  4	  4	  1	  2	  1	0.45246	  1	0.90000	  0	 16	 35	 36	  1	
22-Apr-2013	sub2325	2325	  1	  0	 36	  3	  1	  2	  3	  2	  1	  2	  1	0.49305	  1	0.90000	  0	 12	 30	 31	  1	
22-Apr-2013	sub2325	2325	  1	  0	 37	  3	  1	  1	  1	  4	  1	  1	  1	0.51124	  1	0.90000	  0	 11	 30	 31	  0	
22-Apr-2013	sub2325	2325	  1	  0	 38	  3	  1	  1	  1	  4	  1	  1	  1	0.38873	  1	0.90000	  0	 11	 30	 31	  1	
22-Apr-2013	sub2325	2325	  1	  0	 39	  3	  1	  6	  4	  4	  1	  1	  0	0.49835	  0	0.90000	  0	 16	 45	 46	  1	
22-Apr-2013	sub2325	2325	  1	  0	 40	  3	  1	  2	  3	  2	  1	  2	  1	0.33600	  1	0.90000	  0	 12	 30	 31	  1	
22-Apr-2013	sub2325	2325	  1	  0	 41	  3	  1	  6	  4	  4	  1	  2	  1	0.38024	  1	0.90000	  0	 16	 35	 36	  1	
22-Apr-2013	sub2325	2325	  1	  0	 42	  3	  1	  1	  1	  4	  1	  1	  1	0.59214	  1	0.90000	  0	 11	 30	 31	  0	
22-Apr-2013	sub2325	2325	  1	  0	 43	  3	  1	  3	  6	  1	  1	  1	  1	0.45615	  1	0.90000	  0	 13	 32	 33	  1	
22-Apr-2013	sub2325	2325	  1	  0	 44	  3	  1	  6	  4	  4	  1	  1	  0	0.38345	  0	0.80000	  0	 16	 45	 46	  1	
22-Apr-2013	sub2325	2325	  1	  0	 45	  3	  1	  6	  4	  4	  0	  2	  0	0.38639	  1	0.80000	  0	 16	 37	 48	  1	
22-Apr-2013	sub2325	2325	  1	  0	 46	  3	  1	  4	  2	  2	  1	  1	  0	0.55058	  0	0.80000	  0	 14	 42	 43	  0	
22-Apr-2013	sub2325	2325	  1	  0	 47	  3	  1	  6	  4	  4	  0	  2	  0	0.43867	  1	0.80000	  0	 16	 37	 48	  1	
22-Apr-2013	sub2325	2325	  1	  0	 48	  3	  1	  3	  6	  1	  1	  1	  1	0.50422	  1	0.80000	  0	 13	 32	 33	  0	
22-Apr-2013	sub2325	2325	  1	  0	 49	  3	  1	  3	  6	  1	  0	  1	  0	0.36278	  1	0.80000	  0	 13	 34	 49	  1	
22-Apr-2013	sub2325	2325	  1	  0	 50	  3	  1	  2	  3	  2	  1	  2	  1	0.51997	  1	0.80000	  0	 12	 30	 31	  0	
22-Apr-2013	sub2325	2325	  1	  0	 51	  3	  1	  5	  5	  1	  0	  2	  1	0.39171	  0	0.70000	  0	 15	 47	 38	  1	
22-Apr-2013	sub2325	2325	  1	  0	 52	  3	  1	  5	  5	  1	  1	  2	  0	0.26675	  0	0.70000	  0	 15	 45	 46	  1	
22-Apr-2013	sub2325	2325	  1	  0	 53	  3	  1	  5	  5	  1	  1	  2	  0	0.25074	  0	0.70000	  0	 15	 45	 46	  1	
22-Apr-2013	sub2325	2325	  1	  0	 54	  3	  1	  1	  1	  4	  1	  1	  1	0.42568	  1	0.70000	  0	 11	 30	 31	  1	
22-Apr-2013	sub2325	2325	  1	  0	 55	  3	  1	  5	  5	  1	  1	  2	  0	0.30696	  0	0.70000	  0	 15	 45	 46	  1	
22-Apr-2013	sub2325	2325	  1	  0	 56	  3	  1	  6	  4	  4	  1	  1	  0	0.48225	  0	0.70000	  0	 16	 45	 46	  1	
22-Apr-2013	sub2325	2325	  1	  0	 57	  3	  1	  2	  3	  2	  1	  2	  1	0.46383	  1	0.70000	  0	 12	 30	 31	  1	
22-Apr-2013	sub2325	2325	  1	  0	 58	  3	  1	  1	  1	  4	  1	  1	  1	0.40746	  1	0.70000	  0	 11	 30	 31	  1	
22-Apr-2013	sub2325	2325	  1	  0	 59	  3	  1	  1	  1	  4	  1	  2	  0	0.42180	  0	0.70000	  0	 11	 40	 41	  1	
22-Apr-2013	sub2325	2325	  1	  0	 60	  3	  1	  6	  4	  4	  0	  1	  1	0.46070	  0	0.70000	  0	 16	 47	 38	  1	
22-Apr-2013	sub2325	2325	  1	  0	 61	  3	  1	  4	  2	  2	  1	  1	  0	0.56008	  0	0.60000	  0	 14	 42	 43	  0	
22-Apr-2013	sub2325	2325	  1	  0	 62	  3	  1	  5	  5	  1	  0	  2	  1	0.56679	  0	0.60000	  0	 15	 47	 38	  0	
22-Apr-2013	sub2325	2325	  1	  0	 63	  3	  1	  3	  6	  1	  1	  1	  1	0.51683	  1	0.60000	  0	 13	 32	 33	  0	
22-Apr-2013	sub2325	2325	  1	  0	 64	  3	  1	  4	  2	  2	  1	  1	  0	0.40534	  0	0.60000	  0	 14	 42	 43	  1	
22-Apr-2013	sub2325	2325	  1	  0	 65	  3	  1	  1	  1	  4	  1	  1	  1	0.49445	  1	0.60000	  0	 11	 30	 31	  1	
22-Apr-2013	sub2325	2325	  1	  0	 66	  3	  1	  3	  6	  1	  1	  2	  0	1.32254	  0	0.60000	  1	 13	 42	 51	  0	
22-Apr-2013	sub2325	2325	  1	  0	 67	  3	  1	  1	  1	  4	  1	  1	  1	0.31995	  1	0.80000	  0	 11	 30	 31	  1	
22-Apr-2013	sub2325	2325	  1	  0	 68	  3	  1	  2	  3	  2	  1	  2	  1	0.26134	  1	0.70000	  0	 12	 30	 31	  1	
22-Apr-2013	sub2325	2325	  1	  0	 69	  3	  1	  6	  4	  4	  1	  2	  1	0.37490	  1	0.70000	  0	 16	 35	 36	  1	
22-Apr-2013	sub2325	2325	  1	  0	 70	  3	  1	  4	  2	  2	  1	  1	  0	0.45187	  0	0.70000	  0	 14	 42	 43	  1	
22-Apr-2013	sub2325	2325	  1	  0	 71	  3	  1	  3	  6	  1	  0	  2	  1	0.50981	  0	0.70000	  0	 13	 44	 39	  0	
22-Apr-2013	sub2325	2325	  1	  0	 72	  3	  1	  3	  6	  1	  1	  2	  0	0.47177	  0	0.70000	  0	 13	 42	 43	  1	
22-Apr-2013	sub2325	2325	  1	  0	 73	  3	  1	  6	  4	  4	  0	  1	  1	0.49637	  0	0.70000	  0	 16	 47	 38	  1	
22-Apr-2013	sub2325	2325	  1	  0	 74	  3	  1	  4	  2	  2	  1	  2	  1	0.42100	  1	0.70000	  0	 14	 32	 33	  1	
22-Apr-2013	sub2325	2325	  1	  0	 75	  3	  1	  5	  5	  1	  1	  2	  0	0.50020	  0	0.70000	  0	 15	 45	 46	  1	
22-Apr-2013	sub2325	2325	  1	  0	 76	  3	  2	  2	  3	  2	  1	  2	  1	0.43878	  1	0.70000	  0	 22	 60	 61	  1	
22-Apr-2013	sub2325	2325	  1	  0	 77	  3	  2	  6	  4	  4	  1	  2	  1	0.34816	  1	0.70000	  0	 26	 65	 66	  1	
22-Apr-2013	sub2325	2325	  1	  0	 78	  3	  2	  4	  2	  2	  1	  2	  1	0.47262	  1	0.70000	  0	 24	 62	 63	  1	
22-Apr-2013	sub2325	2325	  1	  0	 79	  3	  2	  1	  1	  4	  1	  2	  0	0.42341	  0	0.70000	  0	 21	 80	 81	  1	
22-Apr-2013	sub2325	2325	  1	  0	 80	  3	  2	  1	  1	  4	  1	  1	  1	0.54791	  1	0.70000	  0	 21	 60	 61	  0	
22-Apr-2013	sub2325	2325	  1	  0	 81	  3	  2	  1	  1	  4	  1	  1	  1	0.43490	  1	0.60000	  0	 21	 60	 61	  1	
22-Apr-2013	sub2325	2325	  1	  0	 82	  3	  2	  3	  6	  1	  0	  1	  0	0.47853	  1	0.60000	  0	 23	 64	 89	  1	
22-Apr-2013	sub2325	2325	  1	  0	 83	  3	  2	  3	  6	  1	  1	  2	  0	0.38799	  0	0.60000	  0	 23	 82	 83	  1	
22-Apr-2013	sub2325	2325	  1	  0	 84	  3	  2	  5	  5	  1	  0	  2	  1	0.53034	  0	0.60000	  0	 25	 87	 68	  0	
22-Apr-2013	sub2325	2325	  1	  0	 85	  3	  2	  2	  3	  2	  1	  2	  1	0.43971	  1	0.60000	  0	 22	 60	 61	  1	
22-Apr-2013	sub2325	2325	  1	  0	 86	  3	  2	  6	  4	  4	  1	  2	  1	0.36303	  1	0.60000	  0	 26	 65	 66	  1	
22-Apr-2013	sub2325	2325	  1	  0	 87	  3	  2	  5	  5	  1	  0	  2	  1	0.40495	  0	0.60000	  0	 25	 87	 68	  1	
22-Apr-2013	sub2325	2325	  1	  0	 88	  3	  2	  4	  2	  2	  1	  2	  1	0.30717	  1	0.60000	  0	 24	 62	 63	  1	
22-Apr-2013	sub2325	2325	  1	  0	 89	  3	  2	  2	  3	  2	  1	  2	  1	0.40600	  1	0.60000	  0	 22	 60	 61	  1	
22-Apr-2013	sub2325	2325	  1	  0	 90	  3	  2	  3	  6	  1	  1	  2	  0	0.41728	  0	0.60000	  0	 23	 82	 83	  1	
22-Apr-2013	sub2325	2325	  1	  0	 91	  3	  2	  6	  4	  4	  0	  2	  0	0.39579	  1	0.60000	  0	 26	 67	 88	  1	
22-Apr-2013	sub2325	2325	  1	  0	 92	  3	  2	  5	  5	  1	  0	  2	  1	0.40875	  0	0.60000	  0	 25	 87	 68	  1	
22-Apr-2013	sub2325	2325	  1	  0	 93	  3	  2	  4	  2	  2	  1	  2	  1	0.38982	  1	0.60000	  0	 24	 62	 63	  1	
22-Apr-2013	sub2325	2325	  1	  0	 94	  3	  2	  4	  2	  2	  1	  2	  1	0.42698	  1	0.60000	  0	 24	 62	 63	  1	
22-Apr-2013	sub2325	2325	  1	  0	 95	  3	  2	  2	  3	  2	  1	  2	  1	0.41704	  1	0.60000	  0	 22	 60	 61	  1	
22-Apr-2013	sub2325	2325	  1	  0	 96	  3	  2	  1	  1	  4	  1	  2	  0	0.42331	  0	0.60000	  0	 21	 80	 81	  1	
22-Apr-2013	sub2325	2325	  1	  0	 97	  3	  2	  5	  5	  1	  0	  1	  0	0.42970	  1	0.60000	  0	 25	 67	 88	  1	
22-Apr-2013	sub2325	2325	  1	  0	 98	  3	  2	  3	  6	  1	  1	  2	  0	0.45927	  0	0.60000	  0	 23	 82	 83	  1	
22-Apr-2013	sub2325	2325	  1	  0	 99	  3	  2	  3	  6	  1	  1	  2	  0	0.38051	  0	0.60000	  0	 23	 82	 83	  1	
22-Apr-2013	sub2325	2325	  1	  0	100	  3	  2	  4	  2	  2	  1	  2	  1	0.50210	  1	0.60000	  0	 24	 62	 63	  0	
22-Apr-2013	sub2325	2325	  1	  0	101	  3	  2	  6	  4	  4	  1	  2	  1	0.47299	  1	0.50000	  0	 26	 65	 66	  1	
22-Apr-2013	sub2325	2325	  1	  0	102	  3	  2	  5	  5	  1	  0	  2	  1	0.44629	  0	0.50000	  0	 25	 87	 68	  1	
22-Apr-2013	sub2325	2325	  1	  0	103	  3	  2	  5	  5	  1	  0	  2	  1	0.40635	  0	0.50000	  0	 25	 87	 68	  1	
22-Apr-2013	sub2325	2325	  1	  0	104	  3	  2	  4	  2	  2	  0	  2	  0	0.46565	  1	0.50000	  0	 24	 64	 89	  1	
22-Apr-2013	sub2325	2325	  1	  0	105	  3	  2	  4	  2	  2	  0	  2	  0	0.55638	  1	0.50000	  1	 24	 64	 51	  0	
22-Apr-2013	sub2325	2325	  1	  0	106	  3	  2	  5	  5	  1	  0	  2	  1	0.44255	  0	0.60000	  0	 25	 87	 68	  1	
22-Apr-2013	sub2325	2325	  1	  0	107	  3	  2	  4	  2	  2	  1	  2	  1	0.35799	  1	0.60000	  0	 24	 62	 63	  1	
22-Apr-2013	sub2325	2325	  1	  0	108	  3	  2	  1	  1	  4	  1	  2	  0	0.27127	  0	0.60000	  0	 21	 80	 81	  1	
22-Apr-2013	sub2325	2325	  1	  0	109	  3	  2	  4	  2	  2	  0	  2	  0	0.30713	  1	0.60000	  0	 24	 64	 89	  1	
22-Apr-2013	sub2325	2325	  1	  0	110	  3	  2	  1	  1	  4	  1	  2	  0	1.49901	  0	0.60000	  1	 21	 80	 51	  0	
22-Apr-2013	sub2325	2325	  1	  0	111	  3	  2	  3	  6	  1	  1	  2	  0	0.42230	  0	0.70000	  0	 23	 82	 83	  1	
22-Apr-2013	sub2325	2325	  1	  0	112	  3	  2	  5	  5	  1	  0	  2	  1	0.37992	  0	0.70000	  0	 25	 87	 68	  1	
22-Apr-2013	sub2325	2325	  1	  0	113	  3	  2	  1	  1	  4	  1	  2	  0	0.44255	  0	0.70000	  0	 21	 80	 81	  1	
22-Apr-2013	sub2325	2325	  1	  0	114	  3	  2	  6	  4	  4	  1	  2	  1	0.44229	  1	0.70000	  0	 26	 65	 66	  1	
22-Apr-2013	sub2325	2325	  1	  0	115	  3	  2	  6	  4	  4	  0	  2	  0	0.42404	  1	0.70000	  0	 26	 67	 88	  1	
22-Apr-2013	sub2325	2325	  1	  0	116	  3	  2	  5	  5	  1	  0	  2	  1	0.48410	  0	0.70000	  0	 25	 87	 68	  1	
22-Apr-2013	sub2325	2325	  1	  0	117	  3	  2	  4	  2	  2	  1	  2	  1	0.47766	  1	0.70000	  0	 24	 62	 63	  1	
22-Apr-2013	sub2325	2325	  1	  0	118	  3	  2	  3	  6	  1	  1	  2	  0	0.50484	  0	0.70000	  0	 23	 82	 83	  0	
22-Apr-2013	sub2325	2325	  1	  0	119	  3	  2	  2	  3	  2	  1	  2	  1	0.47357	  1	0.70000	  0	 22	 60	 61	  1	
22-Apr-2013	sub2325	2325	  1	  0	120	  3	  2	  1	  1	  4	  1	  1	  1	0.45490	  1	0.70000	  0	 21	 60	 61	  1	
22-Apr-2013	sub2325	2325	  1	  0	121	  3	  2	  1	  1	  4	  1	  1	  1	0.48760	  1	0.60000	  0	 21	 60	 61	  1	
22-Apr-2013	sub2325	2325	  1	  0	122	  3	  2	  6	  4	  4	  1	  2	  1	0.54773	  1	0.60000	  0	 26	 65	 66	  0	
22-Apr-2013	sub2325	2325	  1	  0	123	  3	  2	  2	  3	  2	  1	  2	  1	0.43129	  1	0.60000	  0	 22	 60	 61	  1	
22-Apr-2013	sub2325	2325	  1	  0	124	  3	  2	  3	  6	  1	  0	  2	  1	0.36117	  0	0.60000	  0	 23	 84	 69	  1	
22-Apr-2013	sub2325	2325	  1	  0	125	  3	  2	  2	  3	  2	  1	  2	  1	0.42318	  1	0.60000	  0	 22	 60	 61	  1	
22-Apr-2013	sub2325	2325	  1	  0	126	  3	  2	  3	  6	  1	  1	  2	  0	0.38365	  0	0.60000	  0	 23	 82	 83	  1	
22-Apr-2013	sub2325	2325	  1	  0	127	  3	  2	  5	  5	  1	  0	  2	  1	0.39049	  0	0.60000	  0	 25	 87	 68	  1	
22-Apr-2013	sub2325	2325	  1	  0	128	  3	  2	  5	  5	  1	  0	  2	  1	0.26705	  0	0.60000	  0	 25	 87	 68	  1	
22-Apr-2013	sub2325	2325	  1	  0	129	  3	  2	  1	  1	  4	  1	  2	  0	0.38615	  0	0.60000	  0	 21	 80	 81	  1	
22-Apr-2013	sub2325	2325	  1	  0	130	  3	  2	  1	  1	  4	  1	  1	  1	0.47244	  1	0.60000	  0	 21	 60	 61	  1	
22-Apr-2013	sub2325	2325	  1	  0	131	  3	  2	  1	  1	  4	  1	  1	  1	0.38915	  1	0.60000	  0	 21	 60	 61	  1	
22-Apr-2013	sub2325	2325	  1	  0	132	  3	  2	  3	  6	  1	  1	  2	  0	0.56870	  0	0.60000	  0	 23	 82	 83	  0	
22-Apr-2013	sub2325	2325	  1	  0	133	  3	  2	  4	  2	  2	  1	  2	  1	0.45890	  1	0.60000	  0	 24	 62	 63	  1	
22-Apr-2013	sub2325	2325	  1	  0	134	  3	  2	  2	  3	  2	  1	  2	  1	0.53075	  1	0.60000	  0	 22	 60	 61	  0	
22-Apr-2013	sub2325	2325	  1	  0	135	  3	  2	  3	  6	  1	  1	  1	  1	0.38816	  1	0.60000	  0	 23	 62	 63	  1	
22-Apr-2013	sub2325	2325	  1	  0	136	  3	  2	  6	  4	  4	  1	  2	  1	0.49329	  1	0.60000	  0	 26	 65	 66	  1	
22-Apr-2013	sub2325	2325	  1	  0	137	  3	  2	  2	  3	  2	  1	  1	  0	0.44242	  0	0.60000	  0	 22	 80	 81	  1	
22-Apr-2013	sub2325	2325	  1	  0	138	  3	  2	  5	  5	  1	  0	  2	  1	1.28697	  0	0.60000	  1	 25	 87	 51	  0	
22-Apr-2013	sub2325	2325	  1	  0	139	  3	  2	  4	  2	  2	  1	  2	  1	0.62735	  1	0.70000	  0	 24	 62	 63	  0	
22-Apr-2013	sub2325	2325	  1	  0	140	  3	  2	  1	  1	  4	  1	  1	  1	0.53549	  1	0.70000	  0	 21	 60	 61	  0	
22-Apr-2013	sub2325	2325	  1	  0	141	  3	  2	  5	  5	  1	  0	  1	  0	0.48060	  1	0.60000	  0	 25	 67	 88	  1	
22-Apr-2013	sub2325	2325	  1	  0	142	  3	  2	  2	  3	  2	  1	  2	  1	0.44139	  1	0.60000	  0	 22	 60	 61	  1	
22-Apr-2013	sub2325	2325	  1	  0	143	  3	  2	  2	  3	  2	  1	  2	  1	0.41390	  1	0.60000	  0	 22	 60	 61	  1	
22-Apr-2013	sub2325	2325	  1	  0	144	  3	  2	  6	  4	  4	  0	  1	  1	0.43461	  0	0.60000	  0	 26	 87	 68	  1	
22-Apr-2013	sub2325	2325	  1	  0	145	  3	  2	  6	  4	  4	  0	  2	  0	0.39055	  1	0.60000	  0	 26	 67	 88	  1	
22-Apr-2013	sub2325	2325	  1	  0	146	  3	  2	  6	  4	  4	  0	  1	  1	0.53638	  0	0.60000	  0	 26	 87	 68	  0	
22-Apr-2013	sub2325	2325	  1	  0	147	  3	  2	  3	  6	  1	  1	  1	  1	0.50792	  1	0.60000	  0	 23	 62	 63	  0	
22-Apr-2013	sub2325	2325	  1	  0	148	  3	  2	  4	  2	  2	  1	  2	  1	0.49750	  1	0.60000	  0	 24	 62	 63	  1	
22-Apr-2013	sub2325	2325	  1	  0	149	  3	  2	  2	  3	  2	  1	  2	  1	0.62595	  1	0.60000	  1	 22	 60	 51	  0	
22-Apr-2013	sub2325	2325	  1	  0	150	  3	  2	  6	  4	  4	  0	  1	  1	0.46636	  0	0.70000	  0	 26	 87	 68	  1	
22-Apr-2013	sub2325	2325	  1	  0	  1	  4	  1	  5	  2	  6	  1	  1	  1	0.57864	  1	0.60000	  0	 15	 35	 36	  0	
22-Apr-2013	sub2325	2325	  1	  0	  2	  4	  1	  6	  3	  6	  1	  1	  0	0.37027	  0	0.30000	  1	 16	 45	 51	  1	
22-Apr-2013	sub2325	2325	  1	  0	  3	  4	  1	  4	  1	  3	  1	  1	  0	0.26468	  0	0.90000	  0	 14	 42	 43	  1	
22-Apr-2013	sub2325	2325	  1	  0	  4	  4	  1	  6	  3	  6	  0	  1	  1	0.54897	  0	0.90000	  0	 16	 47	 38	  0	
22-Apr-2013	sub2325	2325	  1	  0	  5	  4	  1	  4	  1	  3	  1	  1	  0	0.42029	  0	0.90000	  0	 14	 42	 43	  1	
22-Apr-2013	sub2325	2325	  1	  0	  6	  4	  1	  4	  1	  3	  1	  2	  1	0.39689	  1	0.90000	  0	 14	 32	 33	  1	
22-Apr-2013	sub2325	2325	  1	  0	  7	  4	  1	  6	  3	  6	  1	  1	  0	0.45972	  0	0.90000	  0	 16	 45	 46	  1	
22-Apr-2013	sub2325	2325	  1	  0	  8	  4	  1	  1	  6	  3	  1	  2	  0	0.55666	  0	0.90000	  0	 11	 40	 41	  0	
22-Apr-2013	sub2325	2325	  1	  0	  9	  4	  1	  6	  3	  6	  0	  1	  1	0.46812	  0	0.90000	  0	 16	 47	 38	  1	
22-Apr-2013	sub2325	2325	  1	  0	 10	  4	  1	  6	  3	  6	  1	  1	  0	0.36309	  0	0.90000	  0	 16	 45	 46	  1	
22-Apr-2013	sub2325	2325	  1	  0	 11	  4	  1	  1	  6	  3	  1	  2	  0	0.41491	  0	0.90000	  0	 11	 40	 41	  1	
22-Apr-2013	sub2325	2325	  1	  0	 12	  4	  1	  6	  3	  6	  1	  1	  0	0.41736	  0	0.90000	  0	 16	 45	 46	  1	
22-Apr-2013	sub2325	2325	  1	  0	 13	  4	  1	  5	  2	  6	  0	  1	  0	0.50284	  1	0.90000	  0	 15	 37	 48	  0	
22-Apr-2013	sub2325	2325	  1	  0	 14	  4	  1	  1	  6	  3	  1	  1	  1	0.38822	  1	0.90000	  0	 11	 30	 31	  1	
22-Apr-2013	sub2325	2325	  1	  0	 15	  4	  1	  2	  5	  3	  1	  2	  1	0.41866	  1	0.90000	  0	 12	 30	 31	  1	
22-Apr-2013	sub2325	2325	  1	  0	 16	  4	  1	  3	  4	  6	  1	  2	  0	0.53516	  0	0.80000	  0	 13	 42	 43	  0	
22-Apr-2013	sub2325	2325	  1	  0	 17	  4	  1	  5	  2	  6	  0	  1	  0	0.39908	  1	0.80000	  0	 15	 37	 48	  1	
22-Apr-2013	sub2325	2325	  1	  0	 18	  4	  1	  4	  1	  3	  1	  2	  1	0.43542	  1	0.70000	  0	 14	 32	 33	  1	
22-Apr-2013	sub2325	2325	  1	  0	 19	  4	  1	  6	  3	  6	  0	  1	  1	0.54058	  0	0.70000	  0	 16	 47	 38	  0	
22-Apr-2013	sub2325	2325	  1	  0	 20	  4	  1	  2	  5	  3	  1	  2	  1	0.48158	  1	0.70000	  0	 12	 30	 31	  1	
22-Apr-2013	sub2325	2325	  1	  0	 21	  4	  1	  4	  1	  3	  1	  2	  1	0.41172	  1	0.60000	  0	 14	 32	 33	  1	
22-Apr-2013	sub2325	2325	  1	  0	 22	  4	  1	  3	  4	  6	  1	  2	  0	0.38408	  0	0.60000	  0	 13	 42	 43	  1	
22-Apr-2013	sub2325	2325	  1	  0	 23	  4	  1	  1	  6	  3	  1	  2	  0	0.49034	  0	0.60000	  0	 11	 40	 41	  1	
22-Apr-2013	sub2325	2325	  1	  0	 24	  4	  1	  5	  2	  6	  1	  1	  1	0.39687	  1	0.60000	  0	 15	 35	 36	  1	
22-Apr-2013	sub2325	2325	  1	  0	 25	  4	  1	  2	  5	  3	  1	  1	  0	0.56139	  0	0.60000	  0	 12	 40	 41	  0	
22-Apr-2013	sub2325	2325	  1	  0	 26	  4	  1	  5	  2	  6	  1	  2	  0	0.41777	  0	0.50000	  0	 15	 45	 46	  1	
22-Apr-2013	sub2325	2325	  1	  0	 27	  4	  1	  6	  3	  6	  0	  1	  1	0.36255	  0	0.50000	  0	 16	 47	 38	  1	
22-Apr-2013	sub2325	2325	  1	  0	 28	  4	  1	  3	  4	  6	  1	  2	  0	0.59533	  0	0.50000	  1	 13	 42	 51	  0	
22-Apr-2013	sub2325	2325	  1	  0	 29	  4	  1	  1	  6	  3	  1	  2	  0	0.39094	  0	0.90000	  0	 11	 40	 41	  1	
22-Apr-2013	sub2325	2325	  1	  0	 30	  4	  1	  3	  4	  6	  1	  1	  1	0.36291	  1	0.80000	  0	 13	 32	 33	  1	
22-Apr-2013	sub2325	2325	  1	  0	 31	  4	  1	  5	  2	  6	  0	  1	  0	0.42935	  1	0.80000	  0	 15	 37	 48	  1	
22-Apr-2013	sub2325	2325	  1	  0	 32	  4	  1	  3	  4	  6	  0	  2	  1	0.39466	  0	0.80000	  0	 13	 44	 39	  1	
22-Apr-2013	sub2325	2325	  1	  0	 33	  4	  1	  1	  6	  3	  1	  2	  0	0.50172	  0	0.80000	  0	 11	 40	 41	  0	
22-Apr-2013	sub2325	2325	  1	  0	 34	  4	  1	  6	  3	  6	  1	  1	  0	0.46059	  0	0.80000	  0	 16	 45	 46	  1	
22-Apr-2013	sub2325	2325	  1	  0	 35	  4	  1	  6	  3	  6	  0	  1	  1	0.30289	  0	0.70000	  0	 16	 47	 38	  1	
22-Apr-2013	sub2325	2325	  1	  0	 36	  4	  1	  6	  3	  6	  0	  1	  1	0.40094	  0	0.70000	  0	 16	 47	 38	  1	
22-Apr-2013	sub2325	2325	  1	  0	 37	  4	  1	  4	  1	  3	  0	  2	  0	0.41698	  1	0.70000	  0	 14	 34	 49	  1	
22-Apr-2013	sub2325	2325	  1	  0	 38	  4	  1	  5	  2	  6	  1	  1	  1	0.41796	  1	0.70000	  0	 15	 35	 36	  1	
22-Apr-2013	sub2325	2325	  1	  0	 39	  4	  1	  3	  4	  6	  0	  2	  1	0.47664	  0	0.70000	  0	 13	 44	 39	  1	
22-Apr-2013	sub2325	2325	  1	  0	 40	  4	  1	  6	  3	  6	  1	  2	  1	0.41138	  1	0.70000	  0	 16	 35	 36	  1	
22-Apr-2013	sub2325	2325	  1	  0	 41	  4	  1	  1	  6	  3	  1	  2	  0	0.32198	  0	0.60000	  0	 11	 40	 41	  1	
22-Apr-2013	sub2325	2325	  1	  0	 42	  4	  1	  1	  6	  3	  1	  1	  1	0.37888	  1	0.60000	  0	 11	 30	 31	  1	
22-Apr-2013	sub2325	2325	  1	  0	 43	  4	  1	  2	  5	  3	  1	  1	  0	0.44448	  0	0.60000	  0	 12	 40	 41	  1	
22-Apr-2013	sub2325	2325	  1	  0	 44	  4	  1	  3	  4	  6	  1	  2	  0	0.52056	  0	0.60000	  0	 13	 42	 43	  0	
22-Apr-2013	sub2325	2325	  1	  0	 45	  4	  1	  2	  5	  3	  1	  1	  0	0.40195	  0	0.60000	  0	 12	 40	 41	  1	
22-Apr-2013	sub2325	2325	  1	  0	 46	  4	  1	  3	  4	  6	  1	  2	  0	0.40368	  0	0.60000	  0	 13	 42	 43	  1	
22-Apr-2013	sub2325	2325	  1	  0	 47	  4	  1	  4	  1	  3	  1	  1	  0	0.49459	  0	0.60000	  0	 14	 42	 43	  1	
22-Apr-2013	sub2325	2325	  1	  0	 48	  4	  1	  3	  4	  6	  1	  2	  0	0.46090	  0	0.60000	  0	 13	 42	 43	  1	
22-Apr-2013	sub2325	2325	  1	  0	 49	  4	  1	  4	  1	  3	  0	  2	  0	0.49505	  1	0.60000	  0	 14	 34	 49	  1	
22-Apr-2013	sub2325	2325	  1	  0	 50	  4	  1	  3	  4	  6	  1	  2	  0	0.50263	  0	0.60000	  0	 13	 42	 43	  0	
22-Apr-2013	sub2325	2325	  1	  0	 51	  4	  1	  1	  6	  3	  1	  2	  0	0.37789	  0	0.50000	  0	 11	 40	 41	  1	
22-Apr-2013	sub2325	2325	  1	  0	 52	  4	  1	  4	  1	  3	  1	  2	  1	0.54693	  1	0.50000	  1	 14	 32	 51	  0	
22-Apr-2013	sub2325	2325	  1	  0	 53	  4	  1	  1	  6	  3	  1	  2	  0	0.42610	  0	0.70000	  0	 11	 40	 41	  1	
22-Apr-2013	sub2325	2325	  1	  0	 54	  4	  1	  2	  5	  3	  1	  1	  0	0.49254	  0	0.70000	  0	 12	 40	 41	  1	
22-Apr-2013	sub2325	2325	  1	  0	 55	  4	  1	  4	  1	  3	  1	  2	  1	0.44949	  1	0.70000	  0	 14	 32	 33	  1	
22-Apr-2013	sub2325	2325	  1	  0	 56	  4	  1	  2	  5	  3	  1	  2	  1	0.56658	  1	0.70000	  0	 12	 30	 31	  0	
22-Apr-2013	sub2325	2325	  1	  0	 57	  4	  1	  3	  4	  6	  1	  2	  0	0.41502	  0	0.70000	  0	 13	 42	 43	  1	
22-Apr-2013	sub2325	2325	  1	  0	 58	  4	  1	  3	  4	  6	  0	  1	  0	0.40555	  1	0.70000	  0	 13	 34	 49	  1	
22-Apr-2013	sub2325	2325	  1	  0	 59	  4	  1	  2	  5	  3	  1	  1	  0	0.35892	  0	0.70000	  0	 12	 40	 41	  1	
22-Apr-2013	sub2325	2325	  1	  0	 60	  4	  1	  5	  2	  6	  0	  2	  1	0.42485	  0	0.70000	  0	 15	 47	 38	  1	
22-Apr-2013	sub2325	2325	  1	  0	 61	  4	  1	  5	  2	  6	  1	  2	  0	0.44660	  0	0.60000	  0	 15	 45	 46	  1	
22-Apr-2013	sub2325	2325	  1	  0	 62	  4	  1	  2	  5	  3	  1	  2	  1	0.51439	  1	0.60000	  0	 12	 30	 31	  0	
22-Apr-2013	sub2325	2325	  1	  0	 63	  4	  1	  2	  5	  3	  1	  2	  1	0.41958	  1	0.60000	  0	 12	 30	 31	  1	
22-Apr-2013	sub2325	2325	  1	  0	 64	  4	  1	  5	  2	  6	  0	  2	  1	0.39448	  0	0.60000	  0	 15	 47	 38	  1	
22-Apr-2013	sub2325	2325	  1	  0	 65	  4	  1	  2	  5	  3	  1	  2	  1	0.45295	  1	0.60000	  0	 12	 30	 31	  1	
22-Apr-2013	sub2325	2325	  1	  0	 66	  4	  1	  5	  2	  6	  1	  2	  0	0.42166	  0	0.60000	  0	 15	 45	 46	  1	
22-Apr-2013	sub2325	2325	  1	  0	 67	  4	  1	  6	  3	  6	  0	  1	  1	0.65367	  0	0.60000	  1	 16	 47	 51	  0	
22-Apr-2013	sub2325	2325	  1	  0	 68	  4	  1	  2	  5	  3	  1	  1	  0	0.38505	  0	0.70000	  0	 12	 40	 41	  1	
22-Apr-2013	sub2325	2325	  1	  0	 69	  4	  1	  3	  4	  6	  1	  2	  0	0.47572	  0	0.70000	  0	 13	 42	 43	  1	
22-Apr-2013	sub2325	2325	  1	  0	 70	  4	  1	  4	  1	  3	  1	  2	  1	0.44576	  1	0.70000	  0	 14	 32	 33	  1	
22-Apr-2013	sub2325	2325	  1	  0	 71	  4	  1	  2	  5	  3	  1	  2	  1	0.47305	  1	0.70000	  0	 12	 30	 31	  1	
22-Apr-2013	sub2325	2325	  1	  0	 72	  4	  1	  1	  6	  3	  1	  1	  1	0.43630	  1	0.70000	  0	 11	 30	 31	  1	
22-Apr-2013	sub2325	2325	  1	  0	 73	  4	  1	  5	  2	  6	  1	  1	  1	0.44268	  1	0.70000	  0	 15	 35	 36	  1	
22-Apr-2013	sub2325	2325	  1	  0	 74	  4	  1	  4	  1	  3	  1	  2	  1	0.49942	  1	0.70000	  0	 14	 32	 33	  1	
22-Apr-2013	sub2325	2325	  1	  0	 75	  4	  1	  1	  6	  3	  1	  1	  1	0.49507	  1	0.70000	  0	 11	 30	 31	  1	
22-Apr-2013	sub2325	2325	  1	  0	 76	  4	  2	  3	  4	  6	  1	  2	  0	0.51168	  0	0.70000	  0	 23	 82	 83	  0	
22-Apr-2013	sub2325	2325	  1	  0	 77	  4	  2	  1	  6	  3	  1	  1	  1	0.44333	  1	0.70000	  0	 21	 60	 61	  1	
22-Apr-2013	sub2325	2325	  1	  0	 78	  4	  2	  3	  4	  6	  1	  1	  1	0.44487	  1	0.70000	  0	 23	 62	 63	  1	
22-Apr-2013	sub2325	2325	  1	  0	 79	  4	  2	  6	  3	  6	  1	  1	  0	0.46291	  0	0.70000	  0	 26	 85	 86	  1	
22-Apr-2013	sub2325	2325	  1	  0	 80	  4	  2	  2	  5	  3	  1	  1	  0	0.42111	  0	0.70000	  0	 22	 80	 81	  1	
22-Apr-2013	sub2325	2325	  1	  0	 81	  4	  2	  5	  2	  6	  0	  1	  0	0.38679	  1	0.60000	  0	 25	 67	 88	  1	
22-Apr-2013	sub2325	2325	  1	  0	 82	  4	  2	  4	  1	  3	  1	  2	  1	0.46170	  1	0.60000	  0	 24	 62	 63	  1	
22-Apr-2013	sub2325	2325	  1	  0	 83	  4	  2	  5	  2	  6	  0	  1	  0	0.44652	  1	0.60000	  0	 25	 67	 88	  1	
22-Apr-2013	sub2325	2325	  1	  0	 84	  4	  2	  5	  2	  6	  0	  2	  1	0.38497	  0	0.60000	  0	 25	 87	 68	  1	
22-Apr-2013	sub2325	2325	  1	  0	 85	  4	  2	  3	  4	  6	  1	  2	  0	0.46144	  0	0.60000	  0	 23	 82	 83	  1	
22-Apr-2013	sub2325	2325	  1	  0	 86	  4	  2	  2	  5	  3	  1	  1	  0	0.38206	  0	0.60000	  0	 22	 80	 81	  1	
22-Apr-2013	sub2325	2325	  1	  0	 87	  4	  2	  3	  4	  6	  1	  2	  0	0.44832	  0	0.60000	  0	 23	 82	 83	  1	
22-Apr-2013	sub2325	2325	  1	  0	 88	  4	  2	  2	  5	  3	  1	  1	  0	0.36974	  0	0.60000	  0	 22	 80	 81	  1	
22-Apr-2013	sub2325	2325	  1	  0	 89	  4	  2	  6	  3	  6	  0	  1	  1	0.48521	  0	0.60000	  0	 26	 87	 68	  1	
22-Apr-2013	sub2325	2325	  1	  0	 90	  4	  2	  5	  2	  6	  0	  1	  0	0.51623	  1	0.60000	  0	 25	 67	 88	  0	
22-Apr-2013	sub2325	2325	  1	  0	 91	  4	  2	  4	  1	  3	  1	  1	  0	0.42251	  0	0.60000	  0	 24	 82	 83	  1	
22-Apr-2013	sub2325	2325	  1	  0	 92	  4	  2	  3	  4	  6	  1	  2	  0	0.36687	  0	0.60000	  0	 23	 82	 83	  1	
22-Apr-2013	sub2325	2325	  1	  0	 93	  4	  2	  6	  3	  6	  1	  1	  0	0.43772	  0	0.60000	  0	 26	 85	 86	  1	
22-Apr-2013	sub2325	2325	  1	  0	 94	  4	  2	  1	  6	  3	  1	  1	  1	0.44116	  1	0.60000	  0	 21	 60	 61	  1	
22-Apr-2013	sub2325	2325	  1	  0	 95	  4	  2	  4	  1	  3	  1	  2	  1	0.45706	  1	0.60000	  0	 24	 62	 63	  1	
22-Apr-2013	sub2325	2325	  1	  0	 96	  4	  2	  6	  3	  6	  0	  1	  1	0.43885	  0	0.60000	  0	 26	 87	 68	  1	
22-Apr-2013	sub2325	2325	  1	  0	 97	  4	  2	  3	  4	  6	  1	  1	  1	0.61525	  1	0.60000	  1	 23	 62	 51	  0	
22-Apr-2013	sub2325	2325	  1	  0	 98	  4	  2	  6	  3	  6	  1	  1	  0	0.36085	  0	0.70000	  0	 26	 85	 86	  1	
22-Apr-2013	sub2325	2325	  1	  0	 99	  4	  2	  6	  3	  6	  1	  1	  0	0.37500	  0	0.70000	  0	 26	 85	 86	  1	
22-Apr-2013	sub2325	2325	  1	  0	100	  4	  2	  5	  2	  6	  0	  1	  0	0.46464	  1	0.70000	  0	 25	 67	 88	  1	
22-Apr-2013	sub2325	2325	  1	  0	101	  4	  2	  1	  6	  3	  1	  2	  0	0.42379	  0	0.60000	  0	 21	 80	 81	  1	
22-Apr-2013	sub2325	2325	  1	  0	102	  4	  2	  3	  4	  6	  1	  1	  1	0.40398	  1	0.60000	  0	 23	 62	 63	  1	
22-Apr-2013	sub2325	2325	  1	  0	103	  4	  2	  2	  5	  3	  1	  1	  0	0.45026	  0	0.60000	  0	 22	 80	 81	  1	
22-Apr-2013	sub2325	2325	  1	  0	104	  4	  2	  6	  3	  6	  1	  1	  0	0.53045	  0	0.60000	  0	 26	 85	 86	  0	
22-Apr-2013	sub2325	2325	  1	  0	105	  4	  2	  3	  4	  6	  1	  1	  1	0.38462	  1	0.60000	  0	 23	 62	 63	  1	
22-Apr-2013	sub2325	2325	  1	  0	106	  4	  2	  1	  6	  3	  1	  1	  1	0.39891	  1	0.60000	  0	 21	 60	 61	  1	
22-Apr-2013	sub2325	2325	  1	  0	107	  4	  2	  5	  2	  6	  0	  2	  1	0.36348	  0	0.60000	  0	 25	 87	 68	  1	
22-Apr-2013	sub2325	2325	  1	  0	108	  4	  2	  4	  1	  3	  1	  2	  1	0.42330	  1	0.60000	  0	 24	 62	 63	  1	
22-Apr-2013	sub2325	2325	  1	  0	109	  4	  2	  2	  5	  3	  1	  1	  0	0.45741	  0	0.60000	  0	 22	 80	 81	  1	
22-Apr-2013	sub2325	2325	  1	  0	110	  4	  2	  4	  1	  3	  0	  2	  0	0.43266	  1	0.60000	  0	 24	 64	 89	  1	
22-Apr-2013	sub2325	2325	  1	  0	111	  4	  2	  6	  3	  6	  1	  1	  0	0.45174	  0	0.60000	  0	 26	 85	 86	  1	
22-Apr-2013	sub2325	2325	  1	  0	112	  4	  2	  5	  2	  6	  0	  2	  1	0.39475	  0	0.60000	  0	 25	 87	 68	  1	
22-Apr-2013	sub2325	2325	  1	  0	113	  4	  2	  2	  5	  3	  1	  2	  1	0.48364	  1	0.60000	  0	 22	 60	 61	  1	
22-Apr-2013	sub2325	2325	  1	  0	114	  4	  2	  3	  4	  6	  0	  2	  1	0.42446	  0	0.60000	  0	 23	 84	 69	  1	
22-Apr-2013	sub2325	2325	  1	  0	115	  4	  2	  1	  6	  3	  1	  1	  1	0.48215	  1	0.60000	  0	 21	 60	 61	  1	
22-Apr-2013	sub2325	2325	  1	  0	116	  4	  2	  2	  5	  3	  1	  1	  0	0.36417	  0	0.60000	  0	 22	 80	 81	  1	
22-Apr-2013	sub2325	2325	  1	  0	117	  4	  2	  6	  3	  6	  0	  2	  0	0.38584	  1	0.60000	  0	 26	 67	 88	  1	
22-Apr-2013	sub2325	2325	  1	  0	118	  4	  2	  4	  1	  3	  1	  1	  0	0.40329	  0	0.60000	  0	 24	 82	 83	  1	
22-Apr-2013	sub2325	2325	  1	  0	119	  4	  2	  1	  6	  3	  1	  2	  0	0.35443	  0	0.60000	  0	 21	 80	 81	  1	
22-Apr-2013	sub2325	2325	  1	  0	120	  4	  2	  2	  5	  3	  1	  1	  0	0.43111	  0	0.60000	  0	 22	 80	 81	  1	
22-Apr-2013	sub2325	2325	  1	  0	121	  4	  2	  1	  6	  3	  1	  2	  0	0.18552	  0	0.60000	  0	 21	 80	 81	  1	
22-Apr-2013	sub2325	2325	  1	  0	122	  4	  2	  3	  4	  6	  1	  1	  1	0.42528	  1	0.60000	  0	 23	 62	 63	  1	
22-Apr-2013	sub2325	2325	  1	  0	123	  4	  2	  5	  2	  6	  0	  1	  0	0.48673	  1	0.60000	  0	 25	 67	 88	  1	
22-Apr-2013	sub2325	2325	  1	  0	124	  4	  2	  4	  1	  3	  1	  2	  1	0.47349	  1	0.60000	  0	 24	 62	 63	  1	
22-Apr-2013	sub2325	2325	  1	  0	125	  4	  2	  5	  2	  6	  0	  1	  0	0.44109	  1	0.60000	  0	 25	 67	 88	  1	
22-Apr-2013	sub2325	2325	  1	  0	126	  4	  2	  6	  3	  6	  0	  1	  1	0.43601	  0	0.50000	  0	 26	 87	 68	  1	
22-Apr-2013	sub2325	2325	  1	  0	127	  4	  2	  2	  5	  3	  1	  1	  0	0.47775	  0	0.50000	  0	 22	 80	 81	  1	
22-Apr-2013	sub2325	2325	  1	  0	128	  4	  2	  4	  1	  3	  1	  1	  0	0.51515	  0	0.50000	  1	 24	 82	 51	  0	
22-Apr-2013	sub2325	2325	  1	  0	129	  4	  2	  6	  3	  6	  0	  2	  0	0.44244	  1	0.60000	  0	 26	 67	 88	  1	
22-Apr-2013	sub2325	2325	  1	  0	130	  4	  2	  4	  1	  3	  0	  1	  1	0.37108	  0	0.60000	  0	 24	 84	 69	  1	
22-Apr-2013	sub2325	2325	  1	  0	131	  4	  2	  1	  6	  3	  1	  2	  0	0.19597	  0	0.60000	  0	 21	 80	 81	  1	
22-Apr-2013	sub2325	2325	  1	  0	132	  4	  2	  1	  6	  3	  1	  1	  1	0.23865	  1	0.60000	  0	 21	 60	 61	  1	
22-Apr-2013	sub2325	2325	  1	  0	133	  4	  2	  4	  1	  3	  1	  1	  0	0.41981	  0	0.60000	  0	 24	 82	 83	  1	
22-Apr-2013	sub2325	2325	  1	  0	134	  4	  2	  4	  1	  3	  0	  2	  0	0.26492	  1	0.60000	  0	 24	 64	 89	  1	
22-Apr-2013	sub2325	2325	  1	  0	135	  4	  2	  5	  2	  6	  0	  1	  0	0.26336	  1	0.60000	  0	 25	 67	 88	  1	
22-Apr-2013	sub2325	2325	  1	  0	136	  4	  2	  5	  2	  6	  0	  2	  1	0.35179	  0	0.60000	  0	 25	 87	 68	  1	
22-Apr-2013	sub2325	2325	  1	  0	137	  4	  2	  2	  5	  3	  1	  1	  0	0.43414	  0	0.60000	  0	 22	 80	 81	  1	
22-Apr-2013	sub2325	2325	  1	  0	138	  4	  2	  3	  4	  6	  1	  2	  0	0.42457	  0	0.60000	  0	 23	 82	 83	  1	
22-Apr-2013	sub2325	2325	  1	  0	139	  4	  2	  1	  6	  3	  1	  1	  1	0.30281	  1	0.60000	  0	 21	 60	 61	  1	
22-Apr-2013	sub2325	2325	  1	  0	140	  4	  2	  4	  1	  3	  1	  2	  1	0.39534	  1	0.60000	  0	 24	 62	 63	  1	
22-Apr-2013	sub2325	2325	  1	  0	141	  4	  2	  4	  1	  3	  1	  2	  1	0.43752	  1	0.60000	  0	 24	 62	 63	  1	
22-Apr-2013	sub2325	2325	  1	  0	142	  4	  2	  1	  6	  3	  1	  1	  1	0.40421	  1	0.60000	  0	 21	 60	 61	  1	
22-Apr-2013	sub2325	2325	  1	  0	143	  4	  2	  1	  6	  3	  1	  2	  0	0.44343	  0	0.60000	  0	 21	 80	 81	  1	
22-Apr-2013	sub2325	2325	  1	  0	144	  4	  2	  6	  3	  6	  0	  1	  1	0.36518	  0	0.60000	  0	 26	 87	 68	  1	
22-Apr-2013	sub2325	2325	  1	  0	145	  4	  2	  2	  5	  3	  1	  2	  1	0.51704	  1	0.60000	  0	 22	 60	 61	  0	
22-Apr-2013	sub2325	2325	  1	  0	146	  4	  2	  3	  4	  6	  0	  1	  0	0.54458	  1	0.60000	  0	 23	 64	 89	  0	
22-Apr-2013	sub2325	2325	  1	  0	147	  4	  2	  5	  2	  6	  0	  1	  0	0.52014	  1	0.60000	  0	 25	 67	 88	  0	
22-Apr-2013	sub2325	2325	  1	  0	148	  4	  2	  5	  2	  6	  0	  2	  1	0.38731	  0	0.60000	  0	 25	 87	 68	  1	
22-Apr-2013	sub2325	2325	  1	  0	149	  4	  2	  1	  6	  3	  1	  1	  1	0.61084	  1	0.60000	  1	 21	 60	 51	  0	
22-Apr-2013	sub2325	2325	  1	  0	150	  4	  2	  2	  5	  3	  1	  1	  0	0.43520	  0	0.60000	  0	 22	 80	 81	  1	
22-Apr-2013	sub2325	2325	  1	  0	  1	  5	  1	  6	  5	  5	  1	  1	  0	0.32195	  0	0.60000	  0	 16	 45	 46	  1	
22-Apr-2013	sub2325	2325	  1	  0	  2	  5	  1	  3	  1	  2	  1	  1	  1	0.40144	  1	0.30000	  1	 13	 32	 51	  1	
22-Apr-2013	sub2325	2325	  1	  0	  3	  5	  1	  3	  1	  2	  1	  1	  1	0.34285	  1	0.90000	  0	 13	 32	 33	  1	
22-Apr-2013	sub2325	2325	  1	  0	  4	  5	  1	  2	  4	  1	  1	  1	  0	0.37473	  0	0.90000	  0	 12	 40	 41	  1	
22-Apr-2013	sub2325	2325	  1	  0	  5	  5	  1	  3	  1	  2	  1	  1	  1	0.34565	  1	0.90000	  0	 13	 32	 33	  1	
22-Apr-2013	sub2325	2325	  1	  0	  6	  5	  1	  6	  5	  5	  1	  2	  1	0.37329	  1	0.90000	  0	 16	 35	 36	  1	
22-Apr-2013	sub2325	2325	  1	  0	  7	  5	  1	  3	  1	  2	  1	  2	  0	0.38136	  0	0.90000	  0	 13	 42	 43	  1	
22-Apr-2013	sub2325	2325	  1	  0	  8	  5	  1	  5	  6	  5	  1	  1	  1	0.40804	  1	0.90000	  0	 15	 35	 36	  1	
22-Apr-2013	sub2325	2325	  1	  0	  9	  5	  1	  1	  3	  4	  1	  1	  1	0.30827	  1	0.90000	  0	 11	 30	 31	  1	
22-Apr-2013	sub2325	2325	  1	  0	 10	  5	  1	  4	  2	  4	  1	  1	  0	0.43262	  0	0.90000	  0	 14	 42	 43	  1	
22-Apr-2013	sub2325	2325	  1	  0	 11	  5	  1	  2	  4	  1	  1	  1	  0	0.37302	  0	0.90000	  0	 12	 40	 41	  1	
22-Apr-2013	sub2325	2325	  1	  0	 12	  5	  1	  2	  4	  1	  1	  2	  1	0.44059	  1	0.90000	  0	 12	 30	 31	  1	
22-Apr-2013	sub2325	2325	  1	  0	 13	  5	  1	  2	  4	  1	  1	  2	  1	0.44064	  1	0.90000	  0	 12	 30	 31	  1	
22-Apr-2013	sub2325	2325	  1	  0	 14	  5	  1	  1	  3	  4	  1	  1	  1	0.57525	  1	0.90000	  0	 11	 30	 31	  0	
22-Apr-2013	sub2325	2325	  1	  0	 15	  5	  1	  1	  3	  4	  1	  1	  1	0.38567	  1	0.90000	  0	 11	 30	 31	  1	
22-Apr-2013	sub2325	2325	  1	  0	 16	  5	  1	  6	  5	  5	  0	  2	  0	0.44276	  1	0.80000	  0	 16	 37	 48	  1	
22-Apr-2013	sub2325	2325	  1	  0	 17	  5	  1	  1	  3	  4	  1	  1	  1	0.40284	  1	0.80000	  0	 11	 30	 31	  1	
22-Apr-2013	sub2325	2325	  1	  0	 18	  5	  1	  5	  6	  5	  0	  1	  0	0.39582	  1	0.70000	  0	 15	 37	 48	  1	
22-Apr-2013	sub2325	2325	  1	  0	 19	  5	  1	  4	  2	  4	  1	  1	  0	0.53814	  0	0.70000	  0	 14	 42	 43	  0	
22-Apr-2013	sub2325	2325	  1	  0	 20	  5	  1	  1	  3	  4	  1	  2	  0	0.48589	  0	0.70000	  0	 11	 40	 41	  1	
22-Apr-2013	sub2325	2325	  1	  0	 21	  5	  1	  3	  1	  2	  1	  1	  1	0.41913	  1	0.60000	  0	 13	 32	 33	  1	
22-Apr-2013	sub2325	2325	  1	  0	 22	  5	  1	  6	  5	  5	  0	  1	  1	0.38735	  0	0.60000	  0	 16	 47	 38	  1	
22-Apr-2013	sub2325	2325	  1	  0	 23	  5	  1	  5	  6	  5	  1	  1	  1	0.45977	  1	0.60000	  0	 15	 35	 36	  1	
22-Apr-2013	sub2325	2325	  1	  0	 24	  5	  1	  1	  3	  4	  1	  1	  1	0.36327	  1	0.60000	  0	 11	 30	 31	  1	
22-Apr-2013	sub2325	2325	  1	  0	 25	  5	  1	  4	  2	  4	  1	  1	  0	0.43995	  0	0.60000	  0	 14	 42	 43	  1	
22-Apr-2013	sub2325	2325	  1	  0	 26	  5	  1	  5	  6	  5	  0	  2	  1	0.37650	  0	0.50000	  0	 15	 47	 38	  1	
22-Apr-2013	sub2325	2325	  1	  0	 27	  5	  1	  4	  2	  4	  1	  2	  1	0.37872	  1	0.50000	  0	 14	 32	 33	  1	
22-Apr-2013	sub2325	2325	  1	  0	 28	  5	  1	  1	  3	  4	  1	  2	  0	0.36854	  0	0.50000	  0	 11	 40	 41	  1	
22-Apr-2013	sub2325	2325	  1	  0	 29	  5	  1	  2	  4	  1	  1	  1	  0	0.45668	  0	0.50000	  0	 12	 40	 41	  1	
22-Apr-2013	sub2325	2325	  1	  0	 30	  5	  1	  2	  4	  1	  1	  2	  1	0.40568	  1	0.50000	  0	 12	 30	 31	  1	
22-Apr-2013	sub2325	2325	  1	  0	 31	  5	  1	  2	  4	  1	  1	  2	  1	0.37497	  1	0.50000	  0	 12	 30	 31	  1	
22-Apr-2013	sub2325	2325	  1	  0	 32	  5	  1	  3	  1	  2	  0	  1	  0	0.48457	  1	0.50000	  0	 13	 34	 49	  1	
22-Apr-2013	sub2325	2325	  1	  0	 33	  5	  1	  5	  6	  5	  1	  1	  1	0.34574	  1	0.50000	  0	 15	 35	 36	  1	
22-Apr-2013	sub2325	2325	  1	  0	 34	  5	  1	  5	  6	  5	  1	  1	  1	0.36661	  1	0.50000	  0	 15	 35	 36	  1	
22-Apr-2013	sub2325	2325	  1	  0	 35	  5	  1	  4	  2	  4	  1	  1	  0	0.41036	  0	0.40000	  1	 14	 42	 51	  1	
22-Apr-2013	sub2325	2325	  1	  0	 36	  5	  1	  5	  6	  5	  0	  2	  1	0.34254	  0	0.70000	  0	 15	 47	 38	  1	
22-Apr-2013	sub2325	2325	  1	  0	 37	  5	  1	  6	  5	  5	  1	  1	  0	0.41953	  0	0.70000	  0	 16	 45	 46	  1	
22-Apr-2013	sub2325	2325	  1	  0	 38	  5	  1	  5	  6	  5	  1	  1	  1	0.48167	  1	0.70000	  0	 15	 35	 36	  1	
22-Apr-2013	sub2325	2325	  1	  0	 39	  5	  1	  6	  5	  5	  1	  1	  0	0.48645	  0	0.70000	  0	 16	 45	 46	  1	
22-Apr-2013	sub2325	2325	  1	  0	 40	  5	  1	  2	  4	  1	  1	  1	  0	0.43055	  0	0.70000	  0	 12	 40	 41	  1	
22-Apr-2013	sub2325	2325	  1	  0	 41	  5	  1	  3	  1	  2	  1	  2	  0	0.52786	  0	0.60000	  0	 13	 42	 43	  0	
22-Apr-2013	sub2325	2325	  1	  0	 42	  5	  1	  3	  1	  2	  1	  1	  1	0.40450	  1	0.60000	  0	 13	 32	 33	  1	
22-Apr-2013	sub2325	2325	  1	  0	 43	  5	  1	  4	  2	  4	  1	  1	  0	0.39891	  0	0.60000	  0	 14	 42	 43	  1	
22-Apr-2013	sub2325	2325	  1	  0	 44	  5	  1	  4	  2	  4	  1	  2	  1	0.26765	  1	0.60000	  0	 14	 32	 33	  1	
22-Apr-2013	sub2325	2325	  1	  0	 45	  5	  1	  4	  2	  4	  0	  1	  1	0.35207	  0	0.60000	  0	 14	 44	 39	  1	
22-Apr-2013	sub2325	2325	  1	  0	 46	  5	  1	  2	  4	  1	  1	  2	  1	0.19438	  1	0.60000	  0	 12	 30	 31	  1	
22-Apr-2013	sub2325	2325	  1	  0	 47	  5	  1	  5	  6	  5	  1	  1	  1	0.42307	  1	0.60000	  0	 15	 35	 36	  1	
22-Apr-2013	sub2325	2325	  1	  0	 48	  5	  1	  3	  1	  2	  0	  2	  1	0.48594	  0	0.60000	  0	 13	 44	 39	  1	
22-Apr-2013	sub2325	2325	  1	  0	 49	  5	  1	  3	  1	  2	  1	  1	  1	0.42976	  1	0.60000	  0	 13	 32	 33	  1	
22-Apr-2013	sub2325	2325	  1	  0	 50	  5	  1	  1	  3	  4	  1	  1	  1	0.46130	  1	0.60000	  0	 11	 30	 31	  1	
22-Apr-2013	sub2325	2325	  1	  0	 51	  5	  1	  3	  1	  2	  1	  1	  1	0.64135	  1	0.50000	  1	 13	 32	 51	  0	
22-Apr-2013	sub2325	2325	  1	  0	 52	  5	  1	  5	  6	  5	  0	  1	  0	0.20879	  1	0.70000	  0	 15	 37	 48	  1	
22-Apr-2013	sub2325	2325	  1	  0	 53	  5	  1	  2	  4	  1	  1	  1	  0	0.37120	  0	0.70000	  0	 12	 40	 41	  1	
22-Apr-2013	sub2325	2325	  1	  0	 54	  5	  1	  3	  1	  2	  0	  1	  0	0.36873	  1	0.70000	  0	 13	 34	 49	  1	
22-Apr-2013	sub2325	2325	  1	  0	 55	  5	  1	  2	  4	  1	  1	  2	  1	0.54947	  1	0.70000	  0	 12	 30	 31	  0	
22-Apr-2013	sub2325	2325	  1	  0	 56	  5	  1	  6	  5	  5	  0	  2	  0	0.46273	  1	0.70000	  0	 16	 37	 48	  1	
22-Apr-2013	sub2325	2325	  1	  0	 57	  5	  1	  1	  3	  4	  1	  1	  1	0.44818	  1	0.70000	  0	 11	 30	 31	  1	
22-Apr-2013	sub2325	2325	  1	  0	 58	  5	  1	  1	  3	  4	  1	  1	  1	0.46012	  1	0.70000	  0	 11	 30	 31	  1	
22-Apr-2013	sub2325	2325	  1	  0	 59	  5	  1	  5	  6	  5	  1	  1	  1	0.56756	  1	0.70000	  0	 15	 35	 36	  0	
22-Apr-2013	sub2325	2325	  1	  0	 60	  5	  1	  5	  6	  5	  0	  1	  0	0.40008	  1	0.70000	  0	 15	 37	 48	  1	
22-Apr-2013	sub2325	2325	  1	  0	 61	  5	  1	  6	  5	  5	  0	  2	  0	1.88242	  1	0.60000	  1	 16	 37	 51	  0	
22-Apr-2013	sub2325	2325	  1	  0	 62	  5	  1	  3	  1	  2	  1	  1	  1	0.38897	  1	0.80000	  0	 13	 32	 33	  1	
22-Apr-2013	sub2325	2325	  1	  0	 63	  5	  1	  2	  4	  1	  1	  2	  1	0.50300	  1	0.80000	  0	 12	 30	 31	  0	
22-Apr-2013	sub2325	2325	  1	  0	 64	  5	  1	  6	  5	  5	  0	  1	  1	0.47406	  0	0.80000	  0	 16	 47	 38	  1	
22-Apr-2013	sub2325	2325	  1	  0	 65	  5	  1	  6	  5	  5	  1	  1	  0	0.41805	  0	0.80000	  0	 16	 45	 46	  1	
22-Apr-2013	sub2325	2325	  1	  0	 66	  5	  1	  1	  3	  4	  1	  1	  1	0.35592	  1	0.80000	  0	 11	 30	 31	  1	
22-Apr-2013	sub2325	2325	  1	  0	 67	  5	  1	  6	  5	  5	  1	  1	  0	0.42697	  0	0.80000	  0	 16	 45	 46	  1	
22-Apr-2013	sub2325	2325	  1	  0	 68	  5	  1	  4	  2	  4	  1	  1	  0	0.37847	  0	0.70000	  0	 14	 42	 43	  1	
22-Apr-2013	sub2325	2325	  1	  0	 69	  5	  1	  4	  2	  4	  0	  2	  0	0.50134	  1	0.70000	  0	 14	 34	 49	  0	
22-Apr-2013	sub2325	2325	  1	  0	 70	  5	  1	  1	  3	  4	  1	  1	  1	0.35111	  1	0.70000	  0	 11	 30	 31	  1	
22-Apr-2013	sub2325	2325	  1	  0	 71	  5	  1	  4	  2	  4	  1	  1	  0	0.43664	  0	0.70000	  0	 14	 42	 43	  1	
22-Apr-2013	sub2325	2325	  1	  0	 72	  5	  1	  4	  2	  4	  1	  2	  1	0.37107	  1	0.70000	  0	 14	 32	 33	  1	
22-Apr-2013	sub2325	2325	  1	  0	 73	  5	  1	  2	  4	  1	  1	  2	  1	0.33709	  1	0.70000	  0	 12	 30	 31	  1	
22-Apr-2013	sub2325	2325	  1	  0	 74	  5	  1	  6	  5	  5	  0	  1	  1	0.48113	  0	0.70000	  0	 16	 47	 38	  1	
22-Apr-2013	sub2325	2325	  1	  0	 75	  5	  1	  6	  5	  5	  0	  1	  1	0.44394	  0	0.70000	  0	 16	 47	 38	  1	
22-Apr-2013	sub2325	2325	  1	  0	 76	  5	  2	  5	  6	  5	  0	  1	  0	0.44486	  1	0.70000	  0	 25	 67	 88	  1	
22-Apr-2013	sub2325	2325	  1	  0	 77	  5	  2	  1	  3	  4	  1	  1	  1	0.54947	  1	0.70000	  0	 21	 60	 61	  0	
22-Apr-2013	sub2325	2325	  1	  0	 78	  5	  2	  2	  4	  1	  1	  1	  0	0.35987	  0	0.70000	  0	 22	 80	 81	  1	
22-Apr-2013	sub2325	2325	  1	  0	 79	  5	  2	  3	  1	  2	  0	  1	  0	0.15635	  1	0.70000	  0	 23	 64	 89	  1	
22-Apr-2013	sub2325	2325	  1	  0	 80	  5	  2	  6	  5	  5	  1	  2	  1	0.27028	  1	0.70000	  0	 26	 65	 66	  1	
22-Apr-2013	sub2325	2325	  1	  0	 81	  5	  2	  1	  3	  4	  1	  1	  1	0.25849	  1	0.60000	  0	 21	 60	 61	  1	
22-Apr-2013	sub2325	2325	  1	  0	 82	  5	  2	  2	  4	  1	  1	  1	  0	0.42774	  0	0.60000	  0	 22	 80	 81	  1	
22-Apr-2013	sub2325	2325	  1	  0	 83	  5	  2	  1	  3	  4	  1	  1	  1	0.44544	  1	0.60000	  0	 21	 60	 61	  1	
22-Apr-2013	sub2325	2325	  1	  0	 84	  5	  2	  5	  6	  5	  0	  2	  1	0.51112	  0	0.60000	  0	 25	 87	 68	  0	
22-Apr-2013	sub2325	2325	  1	  0	 85	  5	  2	  1	  3	  4	  1	  2	  0	0.38014	  0	0.60000	  0	 21	 80	 81	  1	
22-Apr-2013	sub2325	2325	  1	  0	 86	  5	  2	  1	  3	  4	  1	  1	  1	0.39461	  1	0.60000	  0	 21	 60	 61	  1	
22-Apr-2013	sub2325	2325	  1	  0	 87	  5	  2	  3	  1	  2	  1	  1	  1	0.67031	  1	0.60000	  1	 23	 62	 51	  0	
22-Apr-2013	sub2325	2325	  1	  0	 88	  5	  2	  2	  4	  1	  1	  1	  0	0.28269	  0	0.70000	  0	 22	 80	 81	  1	
22-Apr-2013	sub2325	2325	  1	  0	 89	  5	  2	  2	  4	  1	  1	  1	  0	0.41044	  0	0.70000	  0	 22	 80	 81	  1	
22-Apr-2013	sub2325	2325	  1	  0	 90	  5	  2	  5	  6	  5	  0	  2	  1	0.42012	  0	0.70000	  0	 25	 87	 68	  1	
22-Apr-2013	sub2325	2325	  1	  0	 91	  5	  2	  3	  1	  2	  1	  1	  1	0.48889	  1	0.70000	  0	 23	 62	 63	  1	
22-Apr-2013	sub2325	2325	  1	  0	 92	  5	  2	  5	  6	  5	  0	  1	  0	0.51109	  1	0.70000	  0	 25	 67	 88	  0	
22-Apr-2013	sub2325	2325	  1	  0	 93	  5	  2	  6	  5	  5	  0	  2	  0	0.48256	  1	0.70000	  0	 26	 67	 88	  1	
22-Apr-2013	sub2325	2325	  1	  0	 94	  5	  2	  6	  5	  5	  0	  1	  1	0.44179	  0	0.70000	  0	 26	 87	 68	  1	
22-Apr-2013	sub2325	2325	  1	  0	 95	  5	  2	  3	  1	  2	  1	  1	  1	0.47753	  1	0.70000	  0	 23	 62	 63	  1	
22-Apr-2013	sub2325	2325	  1	  0	 96	  5	  2	  3	  1	  2	  1	  1	  1	0.40412	  1	0.70000	  0	 23	 62	 63	  1	
22-Apr-2013	sub2325	2325	  1	  0	 97	  5	  2	  4	  2	  4	  1	  1	  0	0.42359	  0	0.70000	  0	 24	 82	 83	  1	
22-Apr-2013	sub2325	2325	  1	  0	 98	  5	  2	  4	  2	  4	  1	  2	  1	0.39921	  1	0.70000	  0	 24	 62	 63	  1	
22-Apr-2013	sub2325	2325	  1	  0	 99	  5	  2	  3	  1	  2	  1	  2	  0	0.38497	  0	0.70000	  0	 23	 82	 83	  1	
22-Apr-2013	sub2325	2325	  1	  0	100	  5	  2	  4	  2	  4	  1	  1	  0	0.40816	  0	0.70000	  0	 24	 82	 83	  1	
22-Apr-2013	sub2325	2325	  1	  0	101	  5	  2	  5	  6	  5	  0	  2	  1	0.23518	  0	0.60000	  0	 25	 87	 68	  1	
22-Apr-2013	sub2325	2325	  1	  0	102	  5	  2	  5	  6	  5	  0	  2	  1	0.36871	  0	0.60000	  0	 25	 87	 68	  1	
22-Apr-2013	sub2325	2325	  1	  0	103	  5	  2	  3	  1	  2	  0	  1	  0	1.27658	  1	0.60000	  1	 23	 64	 51	  0	
22-Apr-2013	sub2325	2325	  1	  0	104	  5	  2	  2	  4	  1	  1	  2	  1	0.65423	  1	0.70000	  0	 22	 60	 61	  0	
22-Apr-2013	sub2325	2325	  1	  0	105	  5	  2	  1	  3	  4	  1	  2	  0	0.39885	  0	0.70000	  0	 21	 80	 81	  1	
22-Apr-2013	sub2325	2325	  1	  0	106	  5	  2	  1	  3	  4	  1	  1	  1	0.26757	  1	0.70000	  0	 21	 60	 61	  1	
22-Apr-2013	sub2325	2325	  1	  0	107	  5	  2	  2	  4	  1	  1	  2	  1	0.49753	  1	0.70000	  0	 22	 60	 61	  1	
22-Apr-2013	sub2325	2325	  1	  0	108	  5	  2	  5	  6	  5	  0	  2	  1	0.37286	  0	0.70000	  0	 25	 87	 68	  1	
22-Apr-2013	sub2325	2325	  1	  0	109	  5	  2	  2	  4	  1	  1	  2	  1	0.37185	  1	0.70000	  0	 22	 60	 61	  1	
22-Apr-2013	sub2325	2325	  1	  0	110	  5	  2	  5	  6	  5	  0	  2	  1	0.28619	  0	0.70000	  0	 25	 87	 68	  1	
22-Apr-2013	sub2325	2325	  1	  0	111	  5	  2	  6	  5	  5	  1	  2	  1	0.00010	  1	0.70000	  0	 26	 65	 66	  1	
22-Apr-2013	sub2325	2325	  1	  0	112	  5	  2	  4	  2	  4	  0	  2	  0	0.35592	  1	0.70000	  0	 24	 64	 89	  1	
22-Apr-2013	sub2325	2325	  1	  0	113	  5	  2	  2	  4	  1	  1	  2	  1	0.28650	  1	0.70000	  0	 22	 60	 61	  1	
22-Apr-2013	sub2325	2325	  1	  0	114	  5	  2	  6	  5	  5	  1	  2	  1	0.29136	  1	0.70000	  0	 26	 65	 66	  1	
22-Apr-2013	sub2325	2325	  1	  0	115	  5	  2	  5	  6	  5	  0	  2	  1	0.28028	  0	0.70000	  0	 25	 87	 68	  1	
22-Apr-2013	sub2325	2325	  1	  0	116	  5	  2	  4	  2	  4	  1	  1	  0	0.26720	  0	0.70000	  0	 24	 82	 83	  1	
22-Apr-2013	sub2325	2325	  1	  0	117	  5	  2	  5	  6	  5	  0	  2	  1	0.18012	  0	0.70000	  0	 25	 87	 68	  1	
22-Apr-2013	sub2325	2325	  1	  0	118	  5	  2	  1	  3	  4	  1	  2	  0	0.24959	  0	0.70000	  0	 21	 80	 81	  1	
22-Apr-2013	sub2325	2325	  1	  0	119	  5	  2	  4	  2	  4	  0	  1	  1	0.29385	  0	0.70000	  0	 24	 84	 69	  1	
22-Apr-2013	sub2325	2325	  1	  0	120	  5	  2	  6	  5	  5	  1	  2	  1	0.26646	  1	0.70000	  0	 26	 65	 66	  1	
22-Apr-2013	sub2325	2325	  1	  0	121	  5	  2	  3	  1	  2	  1	  1	  1	0.36383	  1	0.60000	  0	 23	 62	 63	  1	
22-Apr-2013	sub2325	2325	  1	  0	122	  5	  2	  2	  4	  1	  1	  2	  1	0.29131	  1	0.60000	  0	 22	 60	 61	  1	
22-Apr-2013	sub2325	2325	  1	  0	123	  5	  2	  4	  2	  4	  1	  1	  0	0.19357	  0	0.60000	  0	 24	 82	 83	  1	
22-Apr-2013	sub2325	2325	  1	  0	124	  5	  2	  4	  2	  4	  1	  2	  1	0.34565	  1	0.60000	  0	 24	 62	 63	  1	
22-Apr-2013	sub2325	2325	  1	  0	125	  5	  2	  1	  3	  4	  1	  2	  0	0.36643	  0	0.60000	  0	 21	 80	 81	  1	
22-Apr-2013	sub2325	2325	  1	  0	126	  5	  2	  2	  4	  1	  1	  2	  1	0.47805	  1	0.60000	  0	 22	 60	 61	  1	
22-Apr-2013	sub2325	2325	  1	  0	127	  5	  2	  6	  5	  5	  0	  2	  0	0.44048	  1	0.60000	  0	 26	 67	 88	  1	
22-Apr-2013	sub2325	2325	  1	  0	128	  5	  2	  1	  3	  4	  1	  1	  1	0.41658	  1	0.60000	  0	 21	 60	 61	  1	
22-Apr-2013	sub2325	2325	  1	  0	129	  5	  2	  5	  6	  5	  0	  2	  1	0.46097	  0	0.60000	  0	 25	 87	 68	  1	
22-Apr-2013	sub2325	2325	  1	  0	130	  5	  2	  3	  1	  2	  1	  1	  1	0.45381	  1	0.60000	  0	 23	 62	 63	  1	
22-Apr-2013	sub2325	2325	  1	  0	131	  5	  2	  1	  3	  4	  1	  2	  0	0.50138	  0	0.60000	  0	 21	 80	 81	  0	
22-Apr-2013	sub2325	2325	  1	  0	132	  5	  2	  4	  2	  4	  1	  2	  1	0.50190	  1	0.60000	  0	 24	 62	 63	  0	
22-Apr-2013	sub2325	2325	  1	  0	133	  5	  2	  3	  1	  2	  1	  2	  0	0.51049	  0	0.60000	  0	 23	 82	 83	  0	
22-Apr-2013	sub2325	2325	  1	  0	134	  5	  2	  1	  3	  4	  1	  1	  1	0.40661	  1	0.60000	  0	 21	 60	 61	  1	
22-Apr-2013	sub2325	2325	  1	  0	135	  5	  2	  6	  5	  5	  0	  2	  0	0.43445	  1	0.60000	  0	 26	 67	 88	  1	
22-Apr-2013	sub2325	2325	  1	  0	136	  5	  2	  1	  3	  4	  1	  1	  1	0.36908	  1	0.60000	  0	 21	 60	 61	  1	
22-Apr-2013	sub2325	2325	  1	  0	137	  5	  2	  4	  2	  4	  1	  2	  1	0.49995	  1	0.60000	  0	 24	 62	 63	  1	
22-Apr-2013	sub2325	2325	  1	  0	138	  5	  2	  4	  2	  4	  0	  2	  0	0.37619	  1	0.60000	  0	 24	 64	 89	  1	
22-Apr-2013	sub2325	2325	  1	  0	139	  5	  2	  4	  2	  4	  1	  2	  1	0.36700	  1	0.60000	  0	 24	 62	 63	  1	
22-Apr-2013	sub2325	2325	  1	  0	140	  5	  2	  4	  2	  4	  1	  2	  1	0.40505	  1	0.60000	  0	 24	 62	 63	  1	
22-Apr-2013	sub2325	2325	  1	  0	141	  5	  2	  5	  6	  5	  0	  2	  1	0.39582	  0	0.60000	  0	 25	 87	 68	  1	
22-Apr-2013	sub2325	2325	  1	  0	142	  5	  2	  2	  4	  1	  1	  2	  1	0.38813	  1	0.60000	  0	 22	 60	 61	  1	
22-Apr-2013	sub2325	2325	  1	  0	143	  5	  2	  3	  1	  2	  1	  1	  1	0.41543	  1	0.60000	  0	 23	 62	 63	  1	
22-Apr-2013	sub2325	2325	  1	  0	144	  5	  2	  2	  4	  1	  1	  2	  1	0.42415	  1	0.60000	  0	 22	 60	 61	  1	
22-Apr-2013	sub2325	2325	  1	  0	145	  5	  2	  6	  5	  5	  1	  1	  0	0.53012	  0	0.60000	  0	 26	 85	 86	  0	
22-Apr-2013	sub2325	2325	  1	  0	146	  5	  2	  5	  6	  5	  0	  2	  1	0.50240	  0	0.60000	  0	 25	 87	 68	  0	
22-Apr-2013	sub2325	2325	  1	  0	147	  5	  2	  6	  5	  5	  1	  1	  0	0.40441	  0	0.60000	  0	 26	 85	 86	  1	
22-Apr-2013	sub2325	2325	  1	  0	148	  5	  2	  6	  5	  5	  0	  2	  0	0.42519	  1	0.60000	  0	 26	 67	 88	  1	
22-Apr-2013	sub2325	2325	  1	  0	149	  5	  2	  3	  1	  2	  1	  2	  0	0.44102	  0	0.60000	  0	 23	 82	 83	  1	
22-Apr-2013	sub2325	2325	  1	  0	150	  5	  2	  6	  5	  5	  0	  1	  1	0.44751	  0	0.60000	  0	 26	 87	 68	  1	
22-Apr-2013	sub2325	2325	  1	  0	  1	  6	  1	  2	  3	  1	  1	  1	  0	0.66581	  0	0.60000	  1	 12	 40	 51	  0	
22-Apr-2013	sub2325	2325	  1	  0	  2	  6	  1	  1	  2	  1	  1	  1	  1	0.34000	  1	0.90000	  0	 11	 30	 31	  1	
22-Apr-2013	sub2325	2325	  1	  0	  3	  6	  1	  5	  4	  5	  1	  1	  1	0.37217	  1	0.90000	  0	 15	 35	 36	  1	
22-Apr-2013	sub2325	2325	  1	  0	  4	  6	  1	  2	  3	  1	  1	  1	  0	0.37561	  0	0.90000	  0	 12	 40	 41	  1	
22-Apr-2013	sub2325	2325	  1	  0	  5	  6	  1	  2	  3	  1	  1	  2	  1	0.43540	  1	0.90000	  0	 12	 30	 31	  1	
22-Apr-2013	sub2325	2325	  1	  0	  6	  6	  1	  6	  5	  2	  1	  2	  1	0.47003	  1	0.90000	  0	 16	 35	 36	  1	
22-Apr-2013	sub2325	2325	  1	  0	  7	  6	  1	  3	  1	  6	  1	  1	  1	0.52267	  1	0.90000	  0	 13	 32	 33	  0	
22-Apr-2013	sub2325	2325	  1	  0	  8	  6	  1	  1	  2	  1	  1	  1	  1	0.43854	  1	0.90000	  0	 11	 30	 31	  1	
22-Apr-2013	sub2325	2325	  1	  0	  9	  6	  1	  3	  1	  6	  1	  2	  0	0.40065	  0	0.90000	  0	 13	 42	 43	  1	
22-Apr-2013	sub2325	2325	  1	  0	 10	  6	  1	  2	  3	  1	  1	  1	  0	0.48053	  0	0.90000	  0	 12	 40	 41	  1	
22-Apr-2013	sub2325	2325	  1	  0	 11	  6	  1	  4	  6	  2	  1	  2	  1	0.44483	  1	0.90000	  0	 14	 32	 33	  1	
22-Apr-2013	sub2325	2325	  1	  0	 12	  6	  1	  6	  5	  2	  1	  2	  1	0.45262	  1	0.90000	  0	 16	 35	 36	  1	
22-Apr-2013	sub2325	2325	  1	  0	 13	  6	  1	  3	  1	  6	  1	  1	  1	0.51668	  1	0.90000	  0	 13	 32	 33	  0	
22-Apr-2013	sub2325	2325	  1	  0	 14	  6	  1	  3	  1	  6	  1	  2	  0	0.42063	  0	0.90000	  0	 13	 42	 43	  1	
22-Apr-2013	sub2325	2325	  1	  0	 15	  6	  1	  3	  1	  6	  1	  1	  1	0.36707	  1	0.90000	  0	 13	 32	 33	  1	
22-Apr-2013	sub2325	2325	  1	  0	 16	  6	  1	  6	  5	  2	  1	  1	  0	0.45281	  0	0.80000	  0	 16	 45	 46	  1	
22-Apr-2013	sub2325	2325	  1	  0	 17	  6	  1	  5	  4	  5	  1	  2	  0	0.50742	  0	0.80000	  0	 15	 45	 46	  0	
22-Apr-2013	sub2325	2325	  1	  0	 18	  6	  1	  1	  2	  1	  1	  1	  1	0.47363	  1	0.70000	  0	 11	 30	 31	  1	
22-Apr-2013	sub2325	2325	  1	  0	 19	  6	  1	  2	  3	  1	  1	  1	  0	0.39947	  0	0.70000	  0	 12	 40	 41	  1	
22-Apr-2013	sub2325	2325	  1	  0	 20	  6	  1	  6	  5	  2	  0	  2	  0	0.40522	  1	0.70000	  0	 16	 37	 48	  1	
22-Apr-2013	sub2325	2325	  1	  0	 21	  6	  1	  5	  4	  5	  1	  2	  0	0.57680	  0	0.60000	  0	 15	 45	 46	  0	
22-Apr-2013	sub2325	2325	  1	  0	 22	  6	  1	  5	  4	  5	  1	  1	  1	0.39472	  1	0.60000	  0	 15	 35	 36	  1	
22-Apr-2013	sub2325	2325	  1	  0	 23	  6	  1	  6	  5	  2	  0	  2	  0	0.48996	  1	0.60000	  0	 16	 37	 48	  1	
22-Apr-2013	sub2325	2325	  1	  0	 24	  6	  1	  5	  4	  5	  1	  2	  0	0.48478	  0	0.60000	  0	 15	 45	 46	  1	
22-Apr-2013	sub2325	2325	  1	  0	 25	  6	  1	  3	  1	  6	  0	  2	  1	0.50819	  0	0.60000	  0	 13	 44	 39	  0	
22-Apr-2013	sub2325	2325	  1	  0	 26	  6	  1	  6	  5	  2	  0	  2	  0	0.55654	  1	0.50000	  1	 16	 37	 51	  0	
22-Apr-2013	sub2325	2325	  1	  0	 27	  6	  1	  1	  2	  1	  1	  2	  0	0.43143	  0	0.90000	  0	 11	 40	 41	  1	
22-Apr-2013	sub2325	2325	  1	  0	 28	  6	  1	  2	  3	  1	  1	  1	  0	0.39649	  0	0.90000	  0	 12	 40	 41	  1	
22-Apr-2013	sub2325	2325	  1	  0	 29	  6	  1	  6	  5	  2	  0	  2	  0	0.41034	  1	0.90000	  0	 16	 37	 48	  1	
22-Apr-2013	sub2325	2325	  1	  0	 30	  6	  1	  6	  5	  2	  0	  1	  1	0.40397	  0	0.80000	  0	 16	 47	 38	  1	
22-Apr-2013	sub2325	2325	  1	  0	 31	  6	  1	  3	  1	  6	  0	  1	  0	0.45246	  1	0.80000	  0	 13	 34	 49	  1	
22-Apr-2013	sub2325	2325	  1	  0	 32	  6	  1	  6	  5	  2	  1	  1	  0	0.41733	  0	0.80000	  0	 16	 45	 46	  1	
22-Apr-2013	sub2325	2325	  1	  0	 33	  6	  1	  5	  4	  5	  0	  1	  0	0.42596	  1	0.80000	  0	 15	 37	 48	  1	
22-Apr-2013	sub2325	2325	  1	  0	 34	  6	  1	  5	  4	  5	  0	  1	  0	0.37500	  1	0.80000	  0	 15	 37	 48	  1	
22-Apr-2013	sub2325	2325	  1	  0	 35	  6	  1	  5	  4	  5	  0	  1	  0	0.36602	  1	0.70000	  0	 15	 37	 48	  1	
22-Apr-2013	sub2325	2325	  1	  0	 36	  6	  1	  1	  2	  1	  1	  2	  0	0.31319	  0	0.70000	  0	 11	 40	 41	  1	
22-Apr-2013	sub2325	2325	  1	  0	 37	  6	  1	  5	  4	  5	  1	  1	  1	0.38566	  1	0.70000	  0	 15	 35	 36	  1	
22-Apr-2013	sub2325	2325	  1	  0	 38	  6	  1	  1	  2	  1	  1	  1	  1	0.41864	  1	0.70000	  0	 11	 30	 31	  1	
22-Apr-2013	sub2325	2325	  1	  0	 39	  6	  1	  2	  3	  1	  1	  1	  0	0.38474	  0	0.70000	  0	 12	 40	 41	  1	
22-Apr-2013	sub2325	2325	  1	  0	 40	  6	  1	  2	  3	  1	  1	  2	  1	0.39442	  1	0.70000	  0	 12	 30	 31	  1	
22-Apr-2013	sub2325	2325	  1	  0	 41	  6	  1	  6	  5	  2	  0	  2	  0	0.42209	  1	0.60000	  0	 16	 37	 48	  1	
22-Apr-2013	sub2325	2325	  1	  0	 42	  6	  1	  1	  2	  1	  1	  2	  0	0.42333	  0	0.60000	  0	 11	 40	 41	  1	
22-Apr-2013	sub2325	2325	  1	  0	 43	  6	  1	  4	  6	  2	  1	  1	  0	0.28322	  0	0.60000	  0	 14	 42	 43	  1	
22-Apr-2013	sub2325	2325	  1	  0	 44	  6	  1	  3	  1	  6	  1	  2	  0	0.27814	  0	0.60000	  0	 13	 42	 43	  1	
22-Apr-2013	sub2325	2325	  1	  0	 45	  6	  1	  6	  5	  2	  0	  1	  1	0.43101	  0	0.60000	  0	 16	 47	 38	  1	
22-Apr-2013	sub2325	2325	  1	  0	 46	  6	  1	  4	  6	  2	  1	  1	  0	0.37991	  0	0.60000	  0	 14	 42	 43	  1	
22-Apr-2013	sub2325	2325	  1	  0	 47	  6	  1	  3	  1	  6	  1	  2	  0	0.42278	  0	0.60000	  0	 13	 42	 43	  1	
22-Apr-2013	sub2325	2325	  1	  0	 48	  6	  1	  4	  6	  2	  1	  1	  0	0.40200	  0	0.60000	  0	 14	 42	 43	  1	
22-Apr-2013	sub2325	2325	  1	  0	 49	  6	  1	  4	  6	  2	  0	  2	  0	0.38176	  1	0.60000	  0	 14	 34	 49	  1	
22-Apr-2013	sub2325	2325	  1	  0	 50	  6	  1	  6	  5	  2	  0	  2	  0	0.36595	  1	0.60000	  0	 16	 37	 48	  1	
22-Apr-2013	sub2325	2325	  1	  0	 51	  6	  1	  3	  1	  6	  0	  1	  0	0.22915	  1	0.50000	  0	 13	 34	 49	  1	
22-Apr-2013	sub2325	2325	  1	  0	 52	  6	  1	  3	  1	  6	  1	  2	  0	0.08297	  0	0.50000	  0	 13	 42	 43	  1	
22-Apr-2013	sub2325	2325	  1	  0	 53	  6	  1	  1	  2	  1	  1	  2	  0	0.60541	  0	0.50000	  1	 11	 40	 51	  0	
22-Apr-2013	sub2325	2325	  1	  0	 54	  6	  1	  4	  6	  2	  1	  2	  1	0.29151	  1	0.70000	  0	 14	 32	 33	  1	
22-Apr-2013	sub2325	2325	  1	  0	 55	  6	  1	  5	  4	  5	  1	  1	  1	0.44095	  1	0.70000	  0	 15	 35	 36	  1	
22-Apr-2013	sub2325	2325	  1	  0	 56	  6	  1	  4	  6	  2	  1	  2	  1	0.44456	  1	0.70000	  0	 14	 32	 33	  1	
22-Apr-2013	sub2325	2325	  1	  0	 57	  6	  1	  4	  6	  2	  1	  1	  0	0.36735	  0	0.70000	  0	 14	 42	 43	  1	
22-Apr-2013	sub2325	2325	  1	  0	 58	  6	  1	  1	  2	  1	  1	  2	  0	0.49045	  0	0.70000	  0	 11	 40	 41	  1	
22-Apr-2013	sub2325	2325	  1	  0	 59	  6	  1	  2	  3	  1	  1	  1	  0	0.36494	  0	0.70000	  0	 12	 40	 41	  1	
22-Apr-2013	sub2325	2325	  1	  0	 60	  6	  1	  6	  5	  2	  1	  2	  1	0.45237	  1	0.70000	  0	 16	 35	 36	  1	
22-Apr-2013	sub2325	2325	  1	  0	 61	  6	  1	  5	  4	  5	  0	  2	  1	0.49509	  0	0.60000	  0	 15	 47	 38	  1	
22-Apr-2013	sub2325	2325	  1	  0	 62	  6	  1	  1	  2	  1	  1	  1	  1	0.38936	  1	0.60000	  0	 11	 30	 31	  1	
22-Apr-2013	sub2325	2325	  1	  0	 63	  6	  1	  4	  6	  2	  1	  1	  0	0.41537	  0	0.60000	  0	 14	 42	 43	  1	
22-Apr-2013	sub2325	2325	  1	  0	 64	  6	  1	  2	  3	  1	  1	  2	  1	0.38689	  1	0.60000	  0	 12	 30	 31	  1	
22-Apr-2013	sub2325	2325	  1	  0	 65	  6	  1	  3	  1	  6	  1	  2	  0	0.46383	  0	0.60000	  0	 13	 42	 43	  1	
22-Apr-2013	sub2325	2325	  1	  0	 66	  6	  1	  4	  6	  2	  1	  2	  1	0.40072	  1	0.60000	  0	 14	 32	 33	  1	
22-Apr-2013	sub2325	2325	  1	  0	 67	  6	  1	  2	  3	  1	  1	  1	  0	0.40681	  0	0.60000	  0	 12	 40	 41	  1	
22-Apr-2013	sub2325	2325	  1	  0	 68	  6	  1	  2	  3	  1	  1	  2	  1	0.38852	  1	0.60000	  0	 12	 30	 31	  1	
22-Apr-2013	sub2325	2325	  1	  0	 69	  6	  1	  1	  2	  1	  1	  1	  1	0.31171	  1	0.60000	  0	 11	 30	 31	  1	
22-Apr-2013	sub2325	2325	  1	  0	 70	  6	  1	  2	  3	  1	  1	  1	  0	0.40542	  0	0.60000	  0	 12	 40	 41	  1	
22-Apr-2013	sub2325	2325	  1	  0	 71	  6	  1	  1	  2	  1	  1	  2	  0	0.46171	  0	0.60000	  0	 11	 40	 41	  1	
22-Apr-2013	sub2325	2325	  1	  0	 72	  6	  1	  4	  6	  2	  1	  1	  0	0.47044	  0	0.60000	  0	 14	 42	 43	  1	
22-Apr-2013	sub2325	2325	  1	  0	 73	  6	  1	  3	  1	  6	  1	  2	  0	0.48391	  0	0.60000	  0	 13	 42	 43	  1	
22-Apr-2013	sub2325	2325	  1	  0	 74	  6	  1	  5	  4	  5	  0	  1	  0	0.44024	  1	0.60000	  0	 15	 37	 48	  1	
22-Apr-2013	sub2325	2325	  1	  0	 75	  6	  1	  4	  6	  2	  0	  2	  0	0.44438	  1	0.60000	  0	 14	 34	 49	  1	
22-Apr-2013	sub2325	2325	  1	  0	 76	  6	  2	  1	  2	  1	  1	  1	  1	0.33792	  1	0.50000	  0	 21	 60	 61	  1	
22-Apr-2013	sub2325	2325	  1	  0	 77	  6	  2	  6	  5	  2	  0	  2	  0	0.37962	  1	0.50000	  0	 26	 67	 88	  1	
22-Apr-2013	sub2325	2325	  1	  0	 78	  6	  2	  6	  5	  2	  1	  1	  0	0.49506	  0	0.50000	  0	 26	 85	 86	  1	
22-Apr-2013	sub2325	2325	  1	  0	 79	  6	  2	  1	  2	  1	  1	  2	  0	0.44356	  0	0.50000	  0	 21	 80	 81	  1	
22-Apr-2013	sub2325	2325	  1	  0	 80	  6	  2	  5	  4	  5	  0	  1	  0	0.43661	  1	0.50000	  0	 25	 67	 88	  1	
22-Apr-2013	sub2325	2325	  1	  0	 81	  6	  2	  2	  3	  1	  1	  1	  0	0.41480	  0	0.50000	  0	 22	 80	 81	  1	
22-Apr-2013	sub2325	2325	  1	  0	 82	  6	  2	  1	  2	  1	  1	  2	  0	0.46139	  0	0.50000	  0	 21	 80	 81	  1	
22-Apr-2013	sub2325	2325	  1	  0	 83	  6	  2	  4	  6	  2	  1	  1	  0	0.41190	  0	0.50000	  0	 24	 82	 83	  1	
22-Apr-2013	sub2325	2325	  1	  0	 84	  6	  2	  3	  1	  6	  1	  2	  0	0.31964	  0	0.50000	  0	 23	 82	 83	  1	
22-Apr-2013	sub2325	2325	  1	  0	 85	  6	  2	  6	  5	  2	  1	  1	  0	0.29466	  0	0.50000	  0	 26	 85	 86	  1	
22-Apr-2013	sub2325	2325	  1	  0	 86	  6	  2	  5	  4	  5	  0	  1	  0	0.48861	  1	0.50000	  0	 25	 67	 88	  1	
22-Apr-2013	sub2325	2325	  1	  0	 87	  6	  2	  3	  1	  6	  1	  1	  1	0.41841	  1	0.50000	  0	 23	 62	 63	  1	
22-Apr-2013	sub2325	2325	  1	  0	 88	  6	  2	  6	  5	  2	  0	  1	  1	0.42528	  0	0.50000	  0	 26	 87	 68	  1	
22-Apr-2013	sub2325	2325	  1	  0	 89	  6	  2	  2	  3	  1	  1	  1	  0	0.48694	  0	0.50000	  0	 22	 80	 81	  1	
22-Apr-2013	sub2325	2325	  1	  0	 90	  6	  2	  4	  6	  2	  1	  2	  1	0.44285	  1	0.50000	  0	 24	 62	 63	  1	
22-Apr-2013	sub2325	2325	  1	  0	 91	  6	  2	  3	  1	  6	  1	  2	  0	0.43704	  0	0.50000	  0	 23	 82	 83	  1	
22-Apr-2013	sub2325	2325	  1	  0	 92	  6	  2	  5	  4	  5	  0	  1	  0	0.49208	  1	0.50000	  0	 25	 67	 88	  1	
22-Apr-2013	sub2325	2325	  1	  0	 93	  6	  2	  4	  6	  2	  1	  1	  0	0.41482	  0	0.50000	  0	 24	 82	 83	  1	
22-Apr-2013	sub2325	2325	  1	  0	 94	  6	  2	  5	  4	  5	  0	  2	  1	0.38249	  0	0.50000	  0	 25	 87	 68	  1	
22-Apr-2013	sub2325	2325	  1	  0	 95	  6	  2	  2	  3	  1	  1	  2	  1	0.47789	  1	0.50000	  0	 22	 60	 61	  1	
22-Apr-2013	sub2325	2325	  1	  0	 96	  6	  2	  5	  4	  5	  0	  2	  1	0.43456	  0	0.50000	  0	 25	 87	 68	  1	
22-Apr-2013	sub2325	2325	  1	  0	 97	  6	  2	  4	  6	  2	  0	  2	  0	0.43646	  1	0.50000	  0	 24	 64	 89	  1	
22-Apr-2013	sub2325	2325	  1	  0	 98	  6	  2	  5	  4	  5	  0	  1	  0	0.45629	  1	0.50000	  0	 25	 67	 88	  1	
22-Apr-2013	sub2325	2325	  1	  0	 99	  6	  2	  3	  1	  6	  1	  2	  0	0.39294	  0	0.50000	  0	 23	 82	 83	  1	
22-Apr-2013	sub2325	2325	  1	  0	100	  6	  2	  3	  1	  6	  1	  1	  1	0.37297	  1	0.50000	  0	 23	 62	 63	  1	
22-Apr-2013	sub2325	2325	  1	  0	101	  6	  2	  3	  1	  6	  0	  2	  1	0.47093	  0	0.40000	  1	 23	 84	 51	  1	
22-Apr-2013	sub2325	2325	  1	  0	102	  6	  2	  1	  2	  1	  1	  1	  1	0.48733	  1	0.50000	  0	 21	 60	 61	  1	
22-Apr-2013	sub2325	2325	  1	  0	103	  6	  2	  3	  1	  6	  0	  1	  0	0.40720	  1	0.50000	  0	 23	 64	 89	  1	
22-Apr-2013	sub2325	2325	  1	  0	104	  6	  2	  6	  5	  2	  0	  1	  1	0.47844	  0	0.50000	  0	 26	 87	 68	  1	
22-Apr-2013	sub2325	2325	  1	  0	105	  6	  2	  2	  3	  1	  1	  1	  0	0.34740	  0	0.50000	  0	 22	 80	 81	  1	
22-Apr-2013	sub2325	2325	  1	  0	106	  6	  2	  3	  1	  6	  1	  2	  0	0.48038	  0	0.50000	  0	 23	 82	 83	  1	
22-Apr-2013	sub2325	2325	  1	  0	107	  6	  2	  6	  5	  2	  1	  2	  1	0.59505	  1	0.50000	  1	 26	 65	 51	  0	
22-Apr-2013	sub2325	2325	  1	  0	108	  6	  2	  4	  6	  2	  1	  1	  0	0.41043	  0	0.60000	  0	 24	 82	 83	  1	
22-Apr-2013	sub2325	2325	  1	  0	109	  6	  2	  4	  6	  2	  1	  2	  1	0.08275	  1	0.60000	  0	 24	 62	 63	  1	
22-Apr-2013	sub2325	2325	  1	  0	110	  6	  2	  2	  3	  1	  1	  2	  1	0.30894	  1	0.60000	  0	 22	 60	 61	  1	
22-Apr-2013	sub2325	2325	  1	  0	111	  6	  2	  2	  3	  1	  1	  2	  1	0.38204	  1	0.60000	  0	 22	 60	 61	  1	
22-Apr-2013	sub2325	2325	  1	  0	112	  6	  2	  2	  3	  1	  1	  2	  1	0.33812	  1	0.60000	  0	 22	 60	 61	  1	
22-Apr-2013	sub2325	2325	  1	  0	113	  6	  2	  4	  6	  2	  1	  2	  1	0.38023	  1	0.60000	  0	 24	 62	 63	  1	
22-Apr-2013	sub2325	2325	  1	  0	114	  6	  2	  2	  3	  1	  1	  2	  1	0.41771	  1	0.60000	  0	 22	 60	 61	  1	
22-Apr-2013	sub2325	2325	  1	  0	115	  6	  2	  2	  3	  1	  1	  2	  1	0.41996	  1	0.60000	  0	 22	 60	 61	  1	
22-Apr-2013	sub2325	2325	  1	  0	116	  6	  2	  3	  1	  6	  1	  2	  0	0.30680	  0	0.60000	  0	 23	 82	 83	  1	
22-Apr-2013	sub2325	2325	  1	  0	117	  6	  2	  6	  5	  2	  0	  1	  1	0.41045	  0	0.60000	  0	 26	 87	 68	  1	
22-Apr-2013	sub2325	2325	  1	  0	118	  6	  2	  6	  5	  2	  0	  1	  1	0.36110	  0	0.60000	  0	 26	 87	 68	  1	
22-Apr-2013	sub2325	2325	  1	  0	119	  6	  2	  1	  2	  1	  1	  1	  1	0.49829	  1	0.60000	  0	 21	 60	 61	  1	
22-Apr-2013	sub2325	2325	  1	  0	120	  6	  2	  1	  2	  1	  1	  1	  1	0.43540	  1	0.60000	  0	 21	 60	 61	  1	
22-Apr-2013	sub2325	2325	  1	  0	121	  6	  2	  2	  3	  1	  1	  1	  0	0.33168	  0	0.60000	  0	 22	 80	 81	  1	
22-Apr-2013	sub2325	2325	  1	  0	122	  6	  2	  4	  6	  2	  0	  2	  0	0.48291	  1	0.60000	  0	 24	 64	 89	  1	
22-Apr-2013	sub2325	2325	  1	  0	123	  6	  2	  6	  5	  2	  1	  2	  1	0.37996	  1	0.60000	  0	 26	 65	 66	  1	
22-Apr-2013	sub2325	2325	  1	  0	124	  6	  2	  6	  5	  2	  1	  1	  0	0.43887	  0	0.60000	  0	 26	 85	 86	  1	
22-Apr-2013	sub2325	2325	  1	  0	125	  6	  2	  6	  5	  2	  1	  2	  1	0.41204	  1	0.60000	  0	 26	 65	 66	  1	
22-Apr-2013	sub2325	2325	  1	  0	126	  6	  2	  5	  4	  5	  0	  1	  0	0.56736	  1	0.50000	  1	 25	 67	 51	  0	
22-Apr-2013	sub2325	2325	  1	  0	127	  6	  2	  1	  2	  1	  1	  2	  0	0.47351	  0	0.60000	  0	 21	 80	 81	  1	
22-Apr-2013	sub2325	2325	  1	  0	128	  6	  2	  3	  1	  6	  1	  1	  1	0.45438	  1	0.60000	  0	 23	 62	 63	  1	
22-Apr-2013	sub2325	2325	  1	  0	129	  6	  2	  2	  3	  1	  1	  1	  0	0.43368	  0	0.60000	  0	 22	 80	 81	  1	
22-Apr-2013	sub2325	2325	  1	  0	130	  6	  2	  3	  1	  6	  1	  2	  0	0.57494	  0	0.60000	  0	 23	 82	 83	  0	
22-Apr-2013	sub2325	2325	  1	  0	131	  6	  2	  1	  2	  1	  1	  1	  1	0.35418	  1	0.60000	  0	 21	 60	 61	  1	
22-Apr-2013	sub2325	2325	  1	  0	132	  6	  2	  5	  4	  5	  0	  1	  0	0.45187	  1	0.60000	  0	 25	 67	 88	  1	
22-Apr-2013	sub2325	2325	  1	  0	133	  6	  2	  1	  2	  1	  1	  1	  1	0.61942	  1	0.60000	  1	 21	 60	 51	  0	
22-Apr-2013	sub2325	2325	  1	  0	134	  6	  2	  2	  3	  1	  1	  1	  0	0.38632	  0	0.70000	  0	 22	 80	 81	  1	
22-Apr-2013	sub2325	2325	  1	  0	135	  6	  2	  5	  4	  5	  0	  2	  1	0.32296	  0	0.70000	  0	 25	 87	 68	  1	
22-Apr-2013	sub2325	2325	  1	  0	136	  6	  2	  6	  5	  2	  0	  1	  1	0.52951	  0	0.70000	  0	 26	 87	 68	  0	
22-Apr-2013	sub2325	2325	  1	  0	137	  6	  2	  1	  2	  1	  1	  1	  1	0.48352	  1	0.70000	  0	 21	 60	 61	  1	
22-Apr-2013	sub2325	2325	  1	  0	138	  6	  2	  4	  6	  2	  1	  1	  0	0.32579	  0	0.70000	  0	 24	 82	 83	  1	
22-Apr-2013	sub2325	2325	  1	  0	139	  6	  2	  5	  4	  5	  0	  2	  1	0.28167	  0	0.70000	  0	 25	 87	 68	  1	
22-Apr-2013	sub2325	2325	  1	  0	140	  6	  2	  5	  4	  5	  0	  1	  0	0.65448	  1	0.70000	  0	 25	 67	 88	  0	
22-Apr-2013	sub2325	2325	  1	  0	141	  6	  2	  5	  4	  5	  0	  2	  1	0.31360	  0	0.60000	  0	 25	 87	 68	  1	
22-Apr-2013	sub2325	2325	  1	  0	142	  6	  2	  1	  2	  1	  1	  2	  0	0.32922	  0	0.60000	  0	 21	 80	 81	  1	
22-Apr-2013	sub2325	2325	  1	  0	143	  6	  2	  4	  6	  2	  1	  1	  0	0.36851	  0	0.60000	  0	 24	 82	 83	  1	
22-Apr-2013	sub2325	2325	  1	  0	144	  6	  2	  5	  4	  5	  0	  2	  1	0.36284	  0	0.60000	  0	 25	 87	 68	  1	
22-Apr-2013	sub2325	2325	  1	  0	145	  6	  2	  3	  1	  6	  1	  1	  1	0.44060	  1	0.60000	  0	 23	 62	 63	  1	
22-Apr-2013	sub2325	2325	  1	  0	146	  6	  2	  4	  6	  2	  1	  2	  1	0.41023	  1	0.60000	  0	 24	 62	 63	  1	
22-Apr-2013	sub2325	2325	  1	  0	147	  6	  2	  1	  2	  1	  1	  1	  1	0.48803	  1	0.60000	  0	 21	 60	 61	  1	
22-Apr-2013	sub2325	2325	  1	  0	148	  6	  2	  4	  6	  2	  0	  2	  0	0.37598	  1	0.60000	  0	 24	 64	 89	  1	
22-Apr-2013	sub2325	2325	  1	  0	149	  6	  2	  4	  6	  2	  1	  1	  0	0.46186	  0	0.60000	  0	 24	 82	 83	  1	
22-Apr-2013	sub2325	2325	  1	  0	150	  6	  2	  1	  2	  1	  1	  2	  0	0.32481	  0	0.60000	  0	 21	 80	 81	  1	
