Date 	 Name 	 ID 	 Gender 	 Appearance 	 Trial 	 Block 	 Bin 	 Condition 	 Category 	 Number 	 Valid 	 Keypress 	 Correct 	 RT 	 Realcorrect 	 Deadline 	 Timeout 	 Stimtrigger 	 Resptrigger 	 Fedtrigger 	 WithinTime 	 
23-Apr-2013	sub2326	2326	  2	  0	  1	  1	  1	  1	  4	  6	  1	  1	  1	0.70987	  1	0.60000	  1	 11	 30	 51	  0	
23-Apr-2013	sub2326	2326	  2	  0	  2	  1	  1	  4	  1	  2	  1	  1	  0	0.09473	  0	0.90000	  0	 14	 42	 43	  1	
23-Apr-2013	sub2326	2326	  2	  0	  3	  1	  1	  2	  5	  6	  1	  1	  0	0.07193	  0	0.90000	  0	 12	 40	 41	  1	
23-Apr-2013	sub2326	2326	  2	  0	  4	  1	  1	  1	  4	  6	  1	  1	  1	0.46794	  1	0.90000	  0	 11	 30	 31	  1	
23-Apr-2013	sub2326	2326	  2	  0	  5	  1	  1	  1	  4	  6	  1	  2	  0	0.58680	  0	0.90000	  0	 11	 40	 41	  0	
23-Apr-2013	sub2326	2326	  2	  0	  6	  1	  1	  2	  5	  6	  1	  2	  1	0.97135	  1	0.90000	  1	 12	 30	 51	  0	
23-Apr-2013	sub2326	2326	  2	  0	  7	  1	  1	  6	  2	  3	  1	  1	  0	0.05283	  0	0.90000	  0	 16	 45	 46	  1	
23-Apr-2013	sub2326	2326	  2	  0	  8	  1	  1	  5	  6	  6	  1	  2	  0	0.54440	  0	0.90000	  0	 15	 45	 46	  0	
23-Apr-2013	sub2326	2326	  2	  0	  9	  1	  1	  3	  3	  2	  1	  2	  0	0.56796	  0	0.90000	  0	 13	 42	 43	  0	
23-Apr-2013	sub2326	2326	  2	  0	 10	  1	  1	  5	  6	  6	  1	  2	  0	0.49346	  0	0.90000	  0	 15	 45	 46	  1	
23-Apr-2013	sub2326	2326	  2	  0	 11	  1	  1	  3	  3	  2	  0	  2	  1	0.45533	  0	0.90000	  0	 13	 44	 39	  1	
23-Apr-2013	sub2326	2326	  2	  0	 12	  1	  1	  3	  3	  2	  1	  1	  1	0.35954	  1	0.90000	  0	 13	 32	 33	  1	
23-Apr-2013	sub2326	2326	  2	  0	 13	  1	  1	  4	  1	  2	  1	  2	  1	0.21561	  1	0.90000	  0	 14	 32	 33	  1	
23-Apr-2013	sub2326	2326	  2	  0	 14	  1	  1	  1	  4	  6	  1	  1	  1	1.09311	  1	0.90000	  1	 11	 30	 51	  0	
23-Apr-2013	sub2326	2326	  2	  0	 15	  1	  1	  3	  3	  2	  1	  2	  0	0.22593	  0	0.90000	  0	 13	 42	 43	  1	
23-Apr-2013	sub2326	2326	  2	  0	 16	  1	  1	  4	  1	  2	  1	  2	  1	0.95116	  1	0.90000	  1	 14	 32	 51	  0	
23-Apr-2013	sub2326	2326	  2	  0	 17	  1	  1	  2	  5	  6	  1	  1	  0	0.46863	  0	0.90000	  0	 12	 40	 41	  1	
23-Apr-2013	sub2326	2326	  2	  0	 18	  1	  1	  3	  3	  2	  0	  2	  1	0.52793	  0	0.90000	  0	 13	 44	 39	  0	
23-Apr-2013	sub2326	2326	  2	  0	 19	  1	  1	  2	  5	  6	  1	  1	  0	0.45859	  0	0.90000	  0	 12	 40	 41	  1	
23-Apr-2013	sub2326	2326	  2	  0	 20	  1	  1	  6	  2	  3	  1	  2	  1	0.67476	  1	0.90000	  0	 16	 35	 36	  0	
23-Apr-2013	sub2326	2326	  2	  0	 21	  1	  1	  6	  2	  3	  0	  1	  1	0.50324	  0	0.90000	  0	 16	 47	 38	  0	
23-Apr-2013	sub2326	2326	  2	  0	 22	  1	  1	  3	  3	  2	  1	  2	  0	0.34689	  0	0.90000	  0	 13	 42	 43	  1	
23-Apr-2013	sub2326	2326	  2	  0	 23	  1	  1	  6	  2	  3	  0	  1	  1	0.19639	  0	0.90000	  0	 16	 47	 38	  1	
23-Apr-2013	sub2326	2326	  2	  0	 24	  1	  1	  1	  4	  6	  1	  1	  1	0.41607	  1	0.90000	  0	 11	 30	 31	  1	
23-Apr-2013	sub2326	2326	  2	  0	 25	  1	  1	  5	  6	  6	  0	  2	  1	0.26476	  0	0.90000	  0	 15	 47	 38	  1	
23-Apr-2013	sub2326	2326	  2	  0	 26	  1	  1	  5	  6	  6	  1	  2	  0	0.56634	  0	0.90000	  0	 15	 45	 46	  0	
23-Apr-2013	sub2326	2326	  2	  0	 27	  1	  1	  6	  2	  3	  0	  2	  0	0.39869	  1	0.90000	  0	 16	 37	 48	  1	
23-Apr-2013	sub2326	2326	  2	  0	 28	  1	  1	  5	  6	  6	  0	  2	  1	0.51774	  0	0.90000	  0	 15	 47	 38	  0	
23-Apr-2013	sub2326	2326	  2	  0	 29	  1	  1	  3	  3	  2	  0	  2	  1	0.12578	  0	0.90000	  0	 13	 44	 39	  1	
23-Apr-2013	sub2326	2326	  2	  0	 30	  1	  1	  3	  3	  2	  1	  2	  0	0.42271	  0	0.90000	  0	 13	 42	 43	  1	
23-Apr-2013	sub2326	2326	  2	  0	 31	  1	  1	  6	  2	  3	  0	  1	  1	0.22485	  0	0.90000	  0	 16	 47	 38	  1	
23-Apr-2013	sub2326	2326	  2	  0	 32	  1	  1	  2	  5	  6	  1	  2	  1	0.25179	  1	0.90000	  0	 12	 30	 31	  1	
23-Apr-2013	sub2326	2326	  2	  0	 33	  1	  1	  2	  5	  6	  1	  1	  0	0.17814	  0	0.90000	  0	 12	 40	 41	  1	
23-Apr-2013	sub2326	2326	  2	  0	 34	  1	  1	  4	  1	  2	  1	  2	  1	0.16162	  1	0.90000	  0	 14	 32	 33	  1	
23-Apr-2013	sub2326	2326	  2	  0	 35	  1	  1	  2	  5	  6	  1	  2	  1	1.19206	  1	0.90000	  1	 12	 30	 51	  0	
23-Apr-2013	sub2326	2326	  2	  0	 36	  1	  1	  5	  6	  6	  1	  2	  0	0.49293	  0	0.90000	  0	 15	 45	 46	  1	
23-Apr-2013	sub2326	2326	  2	  0	 37	  1	  1	  5	  6	  6	  0	  2	  1	1.09592	  0	0.90000	  1	 15	 47	 51	  0	
23-Apr-2013	sub2326	2326	  2	  0	 38	  1	  1	  3	  3	  2	  1	  2	  0	0.46669	  0	0.90000	  0	 13	 42	 43	  1	
23-Apr-2013	sub2326	2326	  2	  0	 39	  1	  1	  3	  3	  2	  1	  2	  0	0.55157	  0	0.90000	  0	 13	 42	 43	  0	
23-Apr-2013	sub2326	2326	  2	  0	 40	  1	  1	  2	  5	  6	  1	  2	  1	0.98649	  1	0.90000	  1	 12	 30	 51	  0	
23-Apr-2013	sub2326	2326	  2	  0	 41	  1	  1	  2	  5	  6	  1	  1	  0	0.36618	  0	0.90000	  0	 12	 40	 41	  1	
23-Apr-2013	sub2326	2326	  2	  0	 42	  1	  1	  2	  5	  6	  1	  2	  1	0.32133	  1	0.90000	  0	 12	 30	 31	  1	
23-Apr-2013	sub2326	2326	  2	  0	 43	  1	  1	  6	  2	  3	  1	  1	  0	0.34113	  0	0.90000	  0	 16	 45	 46	  1	
23-Apr-2013	sub2326	2326	  2	  0	 44	  1	  1	  3	  3	  2	  1	  2	  0	0.64531	  0	0.90000	  0	 13	 42	 43	  0	
23-Apr-2013	sub2326	2326	  2	  0	 45	  1	  1	  1	  4	  6	  1	  2	  0	0.56027	  0	0.90000	  0	 11	 40	 41	  0	
23-Apr-2013	sub2326	2326	  2	  0	 46	  1	  1	  6	  2	  3	  0	  2	  0	0.97374	  1	0.90000	  1	 16	 37	 51	  0	
23-Apr-2013	sub2326	2326	  2	  0	 47	  1	  1	  5	  6	  6	  0	  1	  0	0.26418	  1	0.90000	  0	 15	 37	 48	  1	
23-Apr-2013	sub2326	2326	  2	  0	 48	  1	  1	  5	  6	  6	  0	  1	  0	0.24315	  1	0.90000	  0	 15	 37	 48	  1	
23-Apr-2013	sub2326	2326	  2	  0	 49	  1	  1	  3	  3	  2	  1	  2	  0	0.35250	  0	0.90000	  0	 13	 42	 43	  1	
23-Apr-2013	sub2326	2326	  2	  0	 50	  1	  1	  5	  6	  6	  1	  2	  0	0.40961	  0	0.90000	  0	 15	 45	 46	  1	
23-Apr-2013	sub2326	2326	  2	  0	 51	  1	  1	  2	  5	  6	  1	  1	  0	0.61071	  0	0.90000	  0	 12	 40	 41	  0	
23-Apr-2013	sub2326	2326	  2	  0	 52	  1	  1	  4	  1	  2	  1	  2	  1	0.57831	  1	0.90000	  0	 14	 32	 33	  0	
23-Apr-2013	sub2326	2326	  2	  0	 53	  1	  1	  4	  1	  2	  0	  1	  1	0.26640	  0	0.90000	  0	 14	 44	 39	  1	
23-Apr-2013	sub2326	2326	  2	  0	 54	  1	  1	  4	  1	  2	  1	  2	  1	0.39093	  1	0.90000	  0	 14	 32	 33	  1	
23-Apr-2013	sub2326	2326	  2	  0	 55	  1	  1	  6	  2	  3	  0	  1	  1	0.36721	  0	0.90000	  0	 16	 47	 38	  1	
23-Apr-2013	sub2326	2326	  2	  0	 56	  1	  1	  1	  4	  6	  1	  2	  0	0.29012	  0	0.90000	  0	 11	 40	 41	  1	
23-Apr-2013	sub2326	2326	  2	  0	 57	  1	  1	  2	  5	  6	  1	  1	  0	0.39824	  0	0.90000	  0	 12	 40	 41	  1	
23-Apr-2013	sub2326	2326	  2	  0	 58	  1	  1	  1	  4	  6	  1	  1	  1	0.23432	  1	0.90000	  0	 11	 30	 31	  1	
23-Apr-2013	sub2326	2326	  2	  0	 59	  1	  1	  4	  1	  2	  1	  2	  1	0.29084	  1	0.90000	  0	 14	 32	 33	  1	
23-Apr-2013	sub2326	2326	  2	  0	 60	  1	  1	  6	  2	  3	  0	  1	  1	0.45724	  0	0.90000	  0	 16	 47	 38	  1	
23-Apr-2013	sub2326	2326	  2	  0	 61	  1	  1	  2	  5	  6	  1	  2	  1	0.26474	  1	0.90000	  0	 12	 30	 31	  1	
23-Apr-2013	sub2326	2326	  2	  0	 62	  1	  1	  1	  4	  6	  1	  1	  1	0.20546	  1	0.90000	  0	 11	 30	 31	  1	
23-Apr-2013	sub2326	2326	  2	  0	 63	  1	  1	  4	  1	  2	  1	  2	  1	0.22372	  1	0.90000	  0	 14	 32	 33	  1	
23-Apr-2013	sub2326	2326	  2	  0	 64	  1	  1	  6	  2	  3	  1	  2	  1	0.52169	  1	0.90000	  0	 16	 35	 36	  0	
23-Apr-2013	sub2326	2326	  2	  0	 65	  1	  1	  6	  2	  3	  1	  2	  1	1.45940	  1	0.90000	  1	 16	 35	 51	  0	
23-Apr-2013	sub2326	2326	  2	  0	 66	  1	  1	  1	  4	  6	  1	  2	  0	0.42034	  0	0.90000	  0	 11	 40	 41	  1	
23-Apr-2013	sub2326	2326	  2	  0	 67	  1	  1	  4	  1	  2	  1	  2	  1	0.62531	  1	0.90000	  0	 14	 32	 33	  0	
23-Apr-2013	sub2326	2326	  2	  0	 68	  1	  1	  3	  3	  2	  1	  2	  0	0.97827	  0	0.90000	  1	 13	 42	 51	  0	
23-Apr-2013	sub2326	2326	  2	  0	 69	  1	  1	  6	  2	  3	  0	  2	  0	0.45859	  1	0.90000	  0	 16	 37	 48	  1	
23-Apr-2013	sub2326	2326	  2	  0	 70	  1	  1	  1	  4	  6	  1	  1	  1	1.10466	  1	0.90000	  1	 11	 30	 51	  0	
23-Apr-2013	sub2326	2326	  2	  0	 71	  1	  1	  5	  6	  6	  1	  1	  1	0.47146	  1	0.90000	  0	 15	 35	 36	  1	
23-Apr-2013	sub2326	2326	  2	  0	 72	  1	  1	  4	  1	  2	  1	  2	  1	0.49395	  1	0.90000	  0	 14	 32	 33	  1	
23-Apr-2013	sub2326	2326	  2	  0	 73	  1	  1	  4	  1	  2	  0	  2	  0	1.41440	  1	0.90000	  1	 14	 34	 51	  0	
23-Apr-2013	sub2326	2326	  2	  0	 74	  1	  1	  5	  6	  6	  1	  2	  0	0.07751	  0	0.90000	  0	 15	 45	 46	  1	
23-Apr-2013	sub2326	2326	  2	  0	 75	  1	  1	  1	  4	  6	  1	  1	  1	29.38313	  1	0.90000	  1	 11	 30	 51	  0	
23-Apr-2013	sub2326	2326	  2	  0	  1	  2	  1	  5	  5	  2	  0	  2	  1	0.60189	  0	0.60000	  1	 15	 47	 51	  0	
23-Apr-2013	sub2326	2326	  2	  0	  2	  2	  1	  1	  1	  6	  1	  2	  0	0.23207	  0	0.90000	  0	 11	 40	 41	  1	
23-Apr-2013	sub2326	2326	  2	  0	  3	  2	  1	  1	  1	  6	  1	  2	  0	0.49273	  0	0.90000	  0	 11	 40	 41	  1	
23-Apr-2013	sub2326	2326	  2	  0	  4	  2	  1	  5	  5	  2	  1	  1	  1	0.50133	  1	0.90000	  0	 15	 35	 36	  0	
23-Apr-2013	sub2326	2326	  2	  0	  5	  2	  1	  5	  5	  2	  1	  2	  0	0.35418	  0	0.90000	  0	 15	 45	 46	  1	
23-Apr-2013	sub2326	2326	  2	  0	  6	  2	  1	  6	  2	  1	  1	  1	  0	0.64630	  0	0.90000	  0	 16	 45	 46	  0	
23-Apr-2013	sub2326	2326	  2	  0	  7	  2	  1	  4	  3	  3	  1	  1	  0	0.26759	  0	0.90000	  0	 14	 42	 43	  1	
23-Apr-2013	sub2326	2326	  2	  0	  8	  2	  1	  1	  1	  6	  1	  1	  1	0.52317	  1	0.90000	  0	 11	 30	 31	  0	
23-Apr-2013	sub2326	2326	  2	  0	  9	  2	  1	  3	  6	  3	  1	  1	  1	0.48889	  1	0.90000	  0	 13	 32	 33	  1	
23-Apr-2013	sub2326	2326	  2	  0	 10	  2	  1	  5	  5	  2	  0	  1	  0	0.43732	  1	0.90000	  0	 15	 37	 48	  1	
23-Apr-2013	sub2326	2326	  2	  0	 11	  2	  1	  4	  3	  3	  1	  2	  1	0.22045	  1	0.90000	  0	 14	 32	 33	  1	
23-Apr-2013	sub2326	2326	  2	  0	 12	  2	  1	  6	  2	  1	  0	  1	  1	0.00017	  0	0.90000	  0	 16	 47	 38	  1	
23-Apr-2013	sub2326	2326	  2	  0	 13	  2	  1	  2	  4	  2	  1	  1	  0	2.79107	  0	0.90000	  1	 12	 40	 51	  0	
23-Apr-2013	sub2326	2326	  2	  0	 14	  2	  1	  5	  5	  2	  0	  2	  1	0.38544	  0	0.90000	  0	 15	 47	 38	  1	
23-Apr-2013	sub2326	2326	  2	  0	 15	  2	  1	  4	  3	  3	  1	  2	  1	0.39456	  1	0.90000	  0	 14	 32	 33	  1	
23-Apr-2013	sub2326	2326	  2	  0	 16	  2	  1	  5	  5	  2	  1	  1	  1	2.12363	  1	0.90000	  1	 15	 35	 51	  0	
23-Apr-2013	sub2326	2326	  2	  0	 17	  2	  1	  3	  6	  3	  1	  2	  0	0.31025	  0	0.90000	  0	 13	 42	 43	  1	
23-Apr-2013	sub2326	2326	  2	  0	 18	  2	  1	  6	  2	  1	  1	  2	  1	1.37940	  1	0.90000	  1	 16	 35	 51	  0	
23-Apr-2013	sub2326	2326	  2	  0	 19	  2	  1	  1	  1	  6	  1	  1	  1	1.22559	  1	0.90000	  1	 11	 30	 51	  0	
23-Apr-2013	sub2326	2326	  2	  0	 20	  2	  1	  5	  5	  2	  0	  2	  1	0.40889	  0	0.90000	  0	 15	 47	 38	  1	
23-Apr-2013	sub2326	2326	  2	  0	 21	  2	  1	  3	  6	  3	  1	  2	  0	0.20206	  0	0.90000	  0	 13	 42	 43	  1	
23-Apr-2013	sub2326	2326	  2	  0	 22	  2	  1	  3	  6	  3	  0	  2	  1	0.39764	  0	0.90000	  0	 13	 44	 39	  1	
23-Apr-2013	sub2326	2326	  2	  0	 23	  2	  1	  3	  6	  3	  0	  2	  1	0.00009	  0	0.90000	  0	 13	 44	 39	  1	
23-Apr-2013	sub2326	2326	  2	  0	 24	  2	  1	  6	  2	  1	  0	  2	  0	0.20589	  1	0.90000	  0	 16	 37	 48	  1	
23-Apr-2013	sub2326	2326	  2	  0	 25	  2	  1	  6	  2	  1	  0	  2	  0	0.52114	  1	0.90000	  0	 16	 37	 48	  0	
23-Apr-2013	sub2326	2326	  2	  0	 26	  2	  1	  1	  1	  6	  1	  2	  0	0.43233	  0	0.90000	  0	 11	 40	 41	  1	
23-Apr-2013	sub2326	2326	  2	  0	 27	  2	  1	  6	  2	  1	  0	  2	  0	0.00009	  1	0.90000	  0	 16	 37	 48	  1	
23-Apr-2013	sub2326	2326	  2	  0	 28	  2	  1	  3	  6	  3	  1	  1	  1	0.46174	  1	0.90000	  0	 13	 32	 33	  1	
23-Apr-2013	sub2326	2326	  2	  0	 29	  2	  1	  2	  4	  2	  1	  2	  1	0.03747	  1	0.90000	  0	 12	 30	 31	  1	
23-Apr-2013	sub2326	2326	  2	  0	 30	  2	  1	  2	  4	  2	  1	  2	  1	0.42219	  1	0.90000	  0	 12	 30	 31	  1	
23-Apr-2013	sub2326	2326	  2	  0	 31	  2	  1	  3	  6	  3	  1	  2	  0	0.31475	  0	0.90000	  0	 13	 42	 43	  1	
23-Apr-2013	sub2326	2326	  2	  0	 32	  2	  1	  5	  5	  2	  0	  2	  1	0.21488	  0	0.90000	  0	 15	 47	 38	  1	
23-Apr-2013	sub2326	2326	  2	  0	 33	  2	  1	  4	  3	  3	  1	  1	  0	0.50413	  0	0.90000	  0	 14	 42	 43	  0	
23-Apr-2013	sub2326	2326	  2	  0	 34	  2	  1	  6	  2	  1	  0	  1	  1	0.64550	  0	0.90000	  0	 16	 47	 38	  0	
23-Apr-2013	sub2326	2326	  2	  0	 35	  2	  1	  3	  6	  3	  1	  1	  1	0.56964	  1	0.90000	  0	 13	 32	 33	  0	
23-Apr-2013	sub2326	2326	  2	  0	 36	  2	  1	  4	  3	  3	  1	  2	  1	0.18319	  1	0.90000	  0	 14	 32	 33	  1	
23-Apr-2013	sub2326	2326	  2	  0	 37	  2	  1	  4	  3	  3	  0	  2	  0	0.32196	  1	0.90000	  0	 14	 34	 49	  1	
23-Apr-2013	sub2326	2326	  2	  0	 38	  2	  1	  5	  5	  2	  1	  1	  1	0.23218	  1	0.90000	  0	 15	 35	 36	  1	
23-Apr-2013	sub2326	2326	  2	  0	 39	  2	  1	  3	  6	  3	  1	  1	  1	0.71732	  1	0.90000	  0	 13	 32	 33	  0	
23-Apr-2013	sub2326	2326	  2	  0	 40	  2	  1	  3	  6	  3	  0	  1	  0	0.31131	  1	0.90000	  0	 13	 34	 49	  1	
23-Apr-2013	sub2326	2326	  2	  0	 41	  2	  1	  2	  4	  2	  1	  2	  1	0.30576	  1	0.90000	  0	 12	 30	 31	  1	
23-Apr-2013	sub2326	2326	  2	  0	 42	  2	  1	  1	  1	  6	  1	  2	  0	0.14310	  0	0.90000	  0	 11	 40	 41	  1	
23-Apr-2013	sub2326	2326	  2	  0	 43	  2	  1	  1	  1	  6	  1	  2	  0	0.35539	  0	0.90000	  0	 11	 40	 41	  1	
23-Apr-2013	sub2326	2326	  2	  0	 44	  2	  1	  4	  3	  3	  1	  2	  1	0.25047	  1	0.90000	  0	 14	 32	 33	  1	
23-Apr-2013	sub2326	2326	  2	  0	 45	  2	  1	  2	  4	  2	  1	  1	  0	0.41781	  0	0.90000	  0	 12	 40	 41	  1	
23-Apr-2013	sub2326	2326	  2	  0	 46	  2	  1	  3	  6	  3	  1	  1	  1	0.56272	  1	0.90000	  0	 13	 32	 33	  0	
23-Apr-2013	sub2326	2326	  2	  0	 47	  2	  1	  1	  1	  6	  1	  2	  0	0.39265	  0	0.90000	  0	 11	 40	 41	  1	
23-Apr-2013	sub2326	2326	  2	  0	 48	  2	  1	  6	  2	  1	  1	  2	  1	0.41044	  1	0.90000	  0	 16	 35	 36	  1	
23-Apr-2013	sub2326	2326	  2	  0	 49	  2	  1	  2	  4	  2	  1	  2	  1	0.21416	  1	0.90000	  0	 12	 30	 31	  1	
23-Apr-2013	sub2326	2326	  2	  0	 50	  2	  1	  2	  4	  2	  1	  1	  0	0.00009	  0	0.90000	  0	 12	 40	 41	  1	
23-Apr-2013	sub2326	2326	  2	  0	 51	  2	  1	  4	  3	  3	  1	  1	  0	0.55712	  0	0.90000	  0	 14	 42	 43	  0	
23-Apr-2013	sub2326	2326	  2	  0	 52	  2	  1	  4	  3	  3	  1	  2	  1	0.00018	  1	0.90000	  0	 14	 32	 33	  1	
23-Apr-2013	sub2326	2326	  2	  0	 53	  2	  1	  2	  4	  2	  1	  2	  1	0.26167	  1	0.90000	  0	 12	 30	 31	  1	
23-Apr-2013	sub2326	2326	  2	  0	 54	  2	  1	  5	  5	  2	  1	  2	  0	1.15790	  0	0.90000	  1	 15	 45	 51	  0	
23-Apr-2013	sub2326	2326	  2	  0	 55	  2	  1	  4	  3	  3	  1	  2	  1	0.49628	  1	0.90000	  0	 14	 32	 33	  1	
23-Apr-2013	sub2326	2326	  2	  0	 56	  2	  1	  6	  2	  1	  1	  2	  1	0.39702	  1	0.90000	  0	 16	 35	 36	  1	
23-Apr-2013	sub2326	2326	  2	  0	 57	  2	  1	  2	  4	  2	  1	  2	  1	1.00697	  1	0.90000	  1	 12	 30	 51	  0	
23-Apr-2013	sub2326	2326	  2	  0	 58	  2	  1	  1	  1	  6	  1	  2	  0	0.45150	  0	0.90000	  0	 11	 40	 41	  1	
23-Apr-2013	sub2326	2326	  2	  0	 59	  2	  1	  6	  2	  1	  0	  2	  0	0.44151	  1	0.90000	  0	 16	 37	 48	  1	
23-Apr-2013	sub2326	2326	  2	  0	 60	  2	  1	  2	  4	  2	  1	  2	  1	0.40037	  1	0.90000	  0	 12	 30	 31	  1	
23-Apr-2013	sub2326	2326	  2	  0	 61	  2	  1	  5	  5	  2	  0	  1	  0	0.01702	  1	0.90000	  0	 15	 37	 48	  1	
23-Apr-2013	sub2326	2326	  2	  0	 62	  2	  1	  4	  3	  3	  0	  2	  0	0.00017	  1	0.90000	  0	 14	 34	 49	  1	
23-Apr-2013	sub2326	2326	  2	  0	 63	  2	  1	  2	  4	  2	  1	  2	  1	1.28180	  1	0.90000	  1	 12	 30	 51	  0	
23-Apr-2013	sub2326	2326	  2	  0	 64	  2	  1	  1	  1	  6	  1	  2	  0	0.42567	  0	0.90000	  0	 11	 40	 41	  1	
23-Apr-2013	sub2326	2326	  2	  0	 65	  2	  1	  6	  2	  1	  1	  2	  1	0.49307	  1	0.90000	  0	 16	 35	 36	  1	
23-Apr-2013	sub2326	2326	  2	  0	 66	  2	  1	  2	  4	  2	  1	  2	  1	0.25987	  1	0.90000	  0	 12	 30	 31	  1	
23-Apr-2013	sub2326	2326	  2	  0	 67	  2	  1	  3	  6	  3	  1	  2	  0	0.27064	  0	0.90000	  0	 13	 42	 43	  1	
23-Apr-2013	sub2326	2326	  2	  0	 68	  2	  1	  5	  5	  2	  1	  2	  0	0.22752	  0	0.90000	  0	 15	 45	 46	  1	
23-Apr-2013	sub2326	2326	  2	  0	 69	  2	  1	  1	  1	  6	  1	  2	  0	0.00009	  0	0.90000	  0	 11	 40	 41	  1	
23-Apr-2013	sub2326	2326	  2	  0	 70	  2	  1	  6	  2	  1	  1	  1	  0	0.36353	  0	0.90000	  0	 16	 45	 46	  1	
23-Apr-2013	sub2326	2326	  2	  0	 71	  2	  1	  6	  2	  1	  1	  1	  0	0.42403	  0	0.90000	  0	 16	 45	 46	  1	
23-Apr-2013	sub2326	2326	  2	  0	 72	  2	  1	  1	  1	  6	  1	  1	  1	0.42767	  1	0.90000	  0	 11	 30	 31	  1	
23-Apr-2013	sub2326	2326	  2	  0	 73	  2	  1	  4	  3	  3	  1	  2	  1	0.30183	  1	0.90000	  0	 14	 32	 33	  1	
23-Apr-2013	sub2326	2326	  2	  0	 74	  2	  1	  2	  4	  2	  1	  2	  1	0.46479	  1	0.90000	  0	 12	 30	 31	  1	
23-Apr-2013	sub2326	2326	  2	  0	 75	  2	  1	  3	  6	  3	  1	  2	  0	0.27365	  0	0.90000	  0	 13	 42	 43	  1	
23-Apr-2013	sub2326	2326	  2	  0	 76	  2	  2	  5	  5	  2	  0	  2	  1	0.38524	  0	0.90000	  0	 25	 87	 68	  1	
23-Apr-2013	sub2326	2326	  2	  0	 77	  2	  2	  2	  4	  2	  1	  2	  1	0.27417	  1	0.90000	  0	 22	 60	 61	  1	
23-Apr-2013	sub2326	2326	  2	  0	 78	  2	  2	  3	  6	  3	  0	  2	  1	0.35466	  0	0.90000	  0	 23	 84	 69	  1	
23-Apr-2013	sub2326	2326	  2	  0	 79	  2	  2	  5	  5	  2	  0	  1	  0	0.31471	  1	0.90000	  0	 25	 67	 88	  1	
23-Apr-2013	sub2326	2326	  2	  0	 80	  2	  2	  6	  2	  1	  0	  2	  0	0.24825	  1	0.90000	  0	 26	 67	 88	  1	
23-Apr-2013	sub2326	2326	  2	  0	 81	  2	  2	  5	  5	  2	  0	  2	  1	0.31724	  0	0.90000	  0	 25	 87	 68	  1	
23-Apr-2013	sub2326	2326	  2	  0	 82	  2	  2	  5	  5	  2	  0	  1	  0	0.32160	  1	0.90000	  0	 25	 67	 88	  1	
23-Apr-2013	sub2326	2326	  2	  0	 83	  2	  2	  1	  1	  6	  1	  2	  0	0.41913	  0	0.90000	  0	 21	 80	 81	  1	
23-Apr-2013	sub2326	2326	  2	  0	 84	  2	  2	  6	  2	  1	  0	  2	  0	0.38987	  1	0.90000	  0	 26	 67	 88	  1	
23-Apr-2013	sub2326	2326	  2	  0	 85	  2	  2	  3	  6	  3	  1	  2	  0	0.00009	  0	0.90000	  0	 23	 82	 83	  1	
23-Apr-2013	sub2326	2326	  2	  0	 86	  2	  2	  4	  3	  3	  0	  1	  1	0.34150	  0	0.90000	  0	 24	 84	 69	  1	
23-Apr-2013	sub2326	2326	  2	  0	 87	  2	  2	  6	  2	  1	  1	  2	  1	0.25687	  1	0.90000	  0	 26	 65	 66	  1	
23-Apr-2013	sub2326	2326	  2	  0	 88	  2	  2	  2	  4	  2	  1	  1	  0	0.43000	  0	0.90000	  0	 22	 80	 81	  1	
23-Apr-2013	sub2326	2326	  2	  0	 89	  2	  2	  1	  1	  6	  1	  2	  0	0.21835	  0	0.90000	  0	 21	 80	 81	  1	
23-Apr-2013	sub2326	2326	  2	  0	 90	  2	  2	  1	  1	  6	  1	  2	  0	0.29678	  0	0.90000	  0	 21	 80	 81	  1	
23-Apr-2013	sub2326	2326	  2	  0	 91	  2	  2	  3	  6	  3	  1	  2	  0	1.26206	  0	0.90000	  1	 23	 82	 51	  0	
23-Apr-2013	sub2326	2326	  2	  0	 92	  2	  2	  5	  5	  2	  0	  2	  1	0.31597	  0	0.90000	  0	 25	 87	 68	  1	
23-Apr-2013	sub2326	2326	  2	  0	 93	  2	  2	  5	  5	  2	  0	  2	  1	0.36977	  0	0.90000	  0	 25	 87	 68	  1	
23-Apr-2013	sub2326	2326	  2	  0	 94	  2	  2	  6	  2	  1	  0	  2	  0	0.28916	  1	0.90000	  0	 26	 67	 88	  1	
23-Apr-2013	sub2326	2326	  2	  0	 95	  2	  2	  3	  6	  3	  0	  2	  1	0.21827	  0	0.90000	  0	 23	 84	 69	  1	
23-Apr-2013	sub2326	2326	  2	  0	 96	  2	  2	  4	  3	  3	  1	  2	  1	0.44338	  1	0.90000	  0	 24	 62	 63	  1	
23-Apr-2013	sub2326	2326	  2	  0	 97	  2	  2	  5	  5	  2	  0	  2	  1	0.18458	  0	0.90000	  0	 25	 87	 68	  1	
23-Apr-2013	sub2326	2326	  2	  0	 98	  2	  2	  4	  3	  3	  1	  2	  1	1.41718	  1	0.90000	  1	 24	 62	 51	  0	
23-Apr-2013	sub2326	2326	  2	  0	 99	  2	  2	  2	  4	  2	  1	  2	  1	0.32036	  1	0.90000	  0	 22	 60	 61	  1	
23-Apr-2013	sub2326	2326	  2	  0	100	  2	  2	  3	  6	  3	  1	  2	  0	0.49764	  0	0.90000	  0	 23	 82	 83	  1	
23-Apr-2013	sub2326	2326	  2	  0	101	  2	  2	  4	  3	  3	  1	  2	  1	0.00009	  1	0.90000	  0	 24	 62	 63	  1	
23-Apr-2013	sub2326	2326	  2	  0	102	  2	  2	  1	  1	  6	  1	  2	  0	0.38601	  0	0.90000	  0	 21	 80	 81	  1	
23-Apr-2013	sub2326	2326	  2	  0	103	  2	  2	  4	  3	  3	  1	  2	  1	1.19273	  1	0.90000	  1	 24	 62	 51	  0	
23-Apr-2013	sub2326	2326	  2	  0	104	  2	  2	  4	  3	  3	  0	  2	  0	0.29027	  1	0.90000	  0	 24	 64	 89	  1	
23-Apr-2013	sub2326	2326	  2	  0	105	  2	  2	  1	  1	  6	  1	  2	  0	0.47419	  0	0.90000	  0	 21	 80	 81	  1	
23-Apr-2013	sub2326	2326	  2	  0	106	  2	  2	  1	  1	  6	  1	  1	  1	0.52246	  1	0.90000	  0	 21	 60	 61	  0	
23-Apr-2013	sub2326	2326	  2	  0	107	  2	  2	  4	  3	  3	  1	  2	  1	0.27208	  1	0.90000	  0	 24	 62	 63	  1	
23-Apr-2013	sub2326	2326	  2	  0	108	  2	  2	  4	  3	  3	  1	  1	  0	0.24622	  0	0.90000	  0	 24	 82	 83	  1	
23-Apr-2013	sub2326	2326	  2	  0	109	  2	  2	  3	  6	  3	  1	  2	  0	0.53556	  0	0.90000	  0	 23	 82	 83	  0	
23-Apr-2013	sub2326	2326	  2	  0	110	  2	  2	  3	  6	  3	  1	  2	  0	1.84104	  0	0.90000	  1	 23	 82	 51	  0	
23-Apr-2013	sub2326	2326	  2	  0	111	  2	  2	  1	  1	  6	  1	  2	  0	0.42350	  0	0.90000	  0	 21	 80	 81	  1	
23-Apr-2013	sub2326	2326	  2	  0	112	  2	  2	  3	  6	  3	  1	  2	  0	0.30173	  0	0.90000	  0	 23	 82	 83	  1	
23-Apr-2013	sub2326	2326	  2	  0	113	  2	  2	  2	  4	  2	  1	  2	  1	0.44870	  1	0.90000	  0	 22	 60	 61	  1	
23-Apr-2013	sub2326	2326	  2	  0	114	  2	  2	  6	  2	  1	  1	  1	  0	0.38425	  0	0.90000	  0	 26	 85	 86	  1	
23-Apr-2013	sub2326	2326	  2	  0	115	  2	  2	  4	  3	  3	  1	  1	  0	0.43146	  0	0.90000	  0	 24	 82	 83	  1	
23-Apr-2013	sub2326	2326	  2	  0	116	  2	  2	  3	  6	  3	  1	  1	  1	0.39754	  1	0.90000	  0	 23	 62	 63	  1	
23-Apr-2013	sub2326	2326	  2	  0	117	  2	  2	  6	  2	  1	  1	  1	  0	0.37006	  0	0.90000	  0	 26	 85	 86	  1	
23-Apr-2013	sub2326	2326	  2	  0	118	  2	  2	  4	  3	  3	  1	  2	  1	0.31927	  1	0.90000	  0	 24	 62	 63	  1	
23-Apr-2013	sub2326	2326	  2	  0	119	  2	  2	  2	  4	  2	  1	  2	  1	0.40795	  1	0.90000	  0	 22	 60	 61	  1	
23-Apr-2013	sub2326	2326	  2	  0	120	  2	  2	  5	  5	  2	  0	  1	  0	0.50535	  1	0.90000	  0	 25	 67	 88	  0	
23-Apr-2013	sub2326	2326	  2	  0	121	  2	  2	  2	  4	  2	  1	  2	  1	0.29343	  1	0.90000	  0	 22	 60	 61	  1	
23-Apr-2013	sub2326	2326	  2	  0	122	  2	  2	  3	  6	  3	  1	  1	  1	0.27468	  1	0.90000	  0	 23	 62	 63	  1	
23-Apr-2013	sub2326	2326	  2	  0	123	  2	  2	  5	  5	  2	  0	  2	  1	0.29168	  0	0.90000	  0	 25	 87	 68	  1	
23-Apr-2013	sub2326	2326	  2	  0	124	  2	  2	  2	  4	  2	  1	  1	  0	0.72759	  0	0.90000	  0	 22	 80	 81	  0	
23-Apr-2013	sub2326	2326	  2	  0	125	  2	  2	  3	  6	  3	  1	  2	  0	0.41047	  0	0.90000	  0	 23	 82	 83	  1	
23-Apr-2013	sub2326	2326	  2	  0	126	  2	  2	  5	  5	  2	  0	  2	  1	0.41237	  0	0.90000	  0	 25	 87	 68	  1	
23-Apr-2013	sub2326	2326	  2	  0	127	  2	  2	  1	  1	  6	  1	  1	  1	0.00009	  1	0.90000	  0	 21	 60	 61	  1	
23-Apr-2013	sub2326	2326	  2	  0	128	  2	  2	  5	  5	  2	  0	  2	  1	0.14746	  0	0.90000	  0	 25	 87	 68	  1	
23-Apr-2013	sub2326	2326	  2	  0	129	  2	  2	  4	  3	  3	  0	  1	  1	0.46467	  0	0.90000	  0	 24	 84	 69	  1	
23-Apr-2013	sub2326	2326	  2	  0	130	  2	  2	  2	  4	  2	  1	  2	  1	0.26522	  1	0.90000	  0	 22	 60	 61	  1	
23-Apr-2013	sub2326	2326	  2	  0	131	  2	  2	  6	  2	  1	  0	  2	  0	0.77939	  1	0.90000	  0	 26	 67	 88	  0	
23-Apr-2013	sub2326	2326	  2	  0	132	  2	  2	  2	  4	  2	  1	  2	  1	0.20125	  1	0.90000	  0	 22	 60	 61	  1	
23-Apr-2013	sub2326	2326	  2	  0	133	  2	  2	  5	  5	  2	  0	  2	  1	0.28068	  0	0.90000	  0	 25	 87	 68	  1	
23-Apr-2013	sub2326	2326	  2	  0	134	  2	  2	  2	  4	  2	  1	  2	  1	0.32139	  1	0.90000	  0	 22	 60	 61	  1	
23-Apr-2013	sub2326	2326	  2	  0	135	  2	  2	  6	  2	  1	  0	  2	  0	0.42142	  1	0.90000	  0	 26	 67	 88	  1	
23-Apr-2013	sub2326	2326	  2	  0	136	  2	  2	  2	  4	  2	  1	  1	  0	0.28798	  0	0.90000	  0	 22	 80	 81	  1	
23-Apr-2013	sub2326	2326	  2	  0	137	  2	  2	  6	  2	  1	  0	  2	  0	0.27181	  1	0.90000	  0	 26	 67	 88	  1	
23-Apr-2013	sub2326	2326	  2	  0	138	  2	  2	  2	  4	  2	  1	  2	  1	0.24253	  1	0.90000	  0	 22	 60	 61	  1	
23-Apr-2013	sub2326	2326	  2	  0	139	  2	  2	  1	  1	  6	  1	  2	  0	0.48036	  0	0.90000	  0	 21	 80	 81	  1	
23-Apr-2013	sub2326	2326	  2	  0	140	  2	  2	  1	  1	  6	  1	  2	  0	0.34310	  0	0.90000	  0	 21	 80	 81	  1	
23-Apr-2013	sub2326	2326	  2	  0	141	  2	  2	  4	  3	  3	  1	  1	  0	0.22690	  0	0.90000	  0	 24	 82	 83	  1	
23-Apr-2013	sub2326	2326	  2	  0	142	  2	  2	  1	  1	  6	  1	  1	  1	1.79622	  1	0.90000	  1	 21	 60	 51	  0	
23-Apr-2013	sub2326	2326	  2	  0	143	  2	  2	  6	  2	  1	  1	  2	  1	1.22425	  1	0.90000	  1	 26	 65	 51	  0	
23-Apr-2013	sub2326	2326	  2	  0	144	  2	  2	  5	  5	  2	  0	  1	  0	1.84649	  1	0.90000	  1	 25	 67	 51	  0	
23-Apr-2013	sub2326	2326	  2	  0	145	  2	  2	  4	  3	  3	  1	  2	  1	0.00017	  1	0.90000	  0	 24	 62	 63	  1	
23-Apr-2013	sub2326	2326	  2	  0	146	  2	  2	  1	  1	  6	  1	  2	  0	1.37359	  0	0.90000	  1	 21	 80	 51	  0	
23-Apr-2013	sub2326	2326	  2	  0	147	  2	  2	  6	  2	  1	  1	  1	  0	0.35303	  0	0.90000	  0	 26	 85	 86	  1	
23-Apr-2013	sub2326	2326	  2	  0	148	  2	  2	  1	  1	  6	  1	  2	  0	0.68863	  0	0.90000	  0	 21	 80	 81	  0	
23-Apr-2013	sub2326	2326	  2	  0	149	  2	  2	  6	  2	  1	  1	  2	  1	0.33202	  1	0.90000	  0	 26	 65	 66	  1	
23-Apr-2013	sub2326	2326	  2	  0	150	  2	  2	  3	  6	  3	  1	  2	  0	0.26186	  0	0.90000	  0	 23	 82	 83	  1	
23-Apr-2013	sub2326	2326	  2	  0	  1	  3	  1	  6	  1	  4	  0	  1	  1	0.59805	  0	0.60000	  0	 16	 47	 38	  0	
23-Apr-2013	sub2326	2326	  2	  0	  2	  3	  1	  1	  6	  5	  1	  2	  0	0.42672	  0	0.30000	  1	 11	 40	 51	  1	
23-Apr-2013	sub2326	2326	  2	  0	  3	  3	  1	  4	  4	  5	  0	  2	  0	0.48069	  1	0.90000	  0	 14	 34	 49	  1	
23-Apr-2013	sub2326	2326	  2	  0	  4	  3	  1	  5	  2	  6	  1	  2	  0	0.48801	  0	0.90000	  0	 15	 45	 46	  1	
23-Apr-2013	sub2326	2326	  2	  0	  5	  3	  1	  3	  5	  5	  1	  1	  1	0.38934	  1	0.90000	  0	 13	 32	 33	  1	
23-Apr-2013	sub2326	2326	  2	  0	  6	  3	  1	  6	  1	  4	  1	  1	  0	0.39512	  0	0.90000	  0	 16	 45	 46	  1	
23-Apr-2013	sub2326	2326	  2	  0	  7	  3	  1	  3	  5	  5	  0	  1	  0	0.42333	  1	0.90000	  0	 13	 34	 49	  1	
23-Apr-2013	sub2326	2326	  2	  0	  8	  3	  1	  4	  4	  5	  1	  2	  1	0.21287	  1	0.90000	  0	 14	 32	 33	  1	
23-Apr-2013	sub2326	2326	  2	  0	  9	  3	  1	  4	  4	  5	  1	  2	  1	0.39637	  1	0.90000	  0	 14	 32	 33	  1	
23-Apr-2013	sub2326	2326	  2	  0	 10	  3	  1	  1	  6	  5	  1	  1	  1	0.42866	  1	0.90000	  0	 11	 30	 31	  1	
23-Apr-2013	sub2326	2326	  2	  0	 11	  3	  1	  1	  6	  5	  1	  1	  1	0.41835	  1	0.90000	  0	 11	 30	 31	  1	
23-Apr-2013	sub2326	2326	  2	  0	 12	  3	  1	  1	  6	  5	  1	  1	  1	0.51783	  1	0.90000	  0	 11	 30	 31	  0	
23-Apr-2013	sub2326	2326	  2	  0	 13	  3	  1	  5	  2	  6	  1	  2	  0	0.23357	  0	0.90000	  0	 15	 45	 46	  1	
23-Apr-2013	sub2326	2326	  2	  0	 14	  3	  1	  4	  4	  5	  1	  1	  0	0.34852	  0	0.90000	  0	 14	 42	 43	  1	
23-Apr-2013	sub2326	2326	  2	  0	 15	  3	  1	  3	  5	  5	  0	  2	  1	0.30390	  0	0.90000	  0	 13	 44	 39	  1	
23-Apr-2013	sub2326	2326	  2	  0	 16	  3	  1	  2	  3	  4	  1	  2	  1	0.41608	  1	0.80000	  0	 12	 30	 31	  1	
23-Apr-2013	sub2326	2326	  2	  0	 17	  3	  1	  4	  4	  5	  1	  2	  1	0.20601	  1	0.80000	  0	 14	 32	 33	  1	
23-Apr-2013	sub2326	2326	  2	  0	 18	  3	  1	  6	  1	  4	  0	  1	  1	0.21426	  0	0.70000	  0	 16	 47	 38	  1	
23-Apr-2013	sub2326	2326	  2	  0	 19	  3	  1	  1	  6	  5	  1	  2	  0	0.21223	  0	0.70000	  0	 11	 40	 41	  1	
23-Apr-2013	sub2326	2326	  2	  0	 20	  3	  1	  4	  4	  5	  1	  1	  0	1.69392	  0	0.70000	  1	 14	 42	 51	  0	
23-Apr-2013	sub2326	2326	  2	  0	 21	  3	  1	  5	  2	  6	  1	  2	  0	0.44052	  0	0.90000	  0	 15	 45	 46	  1	
23-Apr-2013	sub2326	2326	  2	  0	 22	  3	  1	  3	  5	  5	  1	  2	  0	0.44120	  0	0.90000	  0	 13	 42	 43	  1	
23-Apr-2013	sub2326	2326	  2	  0	 23	  3	  1	  6	  1	  4	  0	  1	  1	0.41715	  0	0.90000	  0	 16	 47	 38	  1	
23-Apr-2013	sub2326	2326	  2	  0	 24	  3	  1	  6	  1	  4	  0	  1	  1	0.96702	  0	0.90000	  1	 16	 47	 51	  0	
23-Apr-2013	sub2326	2326	  2	  0	 25	  3	  1	  3	  5	  5	  0	  2	  1	0.70800	  0	0.90000	  0	 13	 44	 39	  0	
23-Apr-2013	sub2326	2326	  2	  0	 26	  3	  1	  3	  5	  5	  1	  2	  0	0.47790	  0	0.90000	  0	 13	 42	 43	  1	
23-Apr-2013	sub2326	2326	  2	  0	 27	  3	  1	  1	  6	  5	  1	  2	  0	0.04069	  0	0.90000	  0	 11	 40	 41	  1	
23-Apr-2013	sub2326	2326	  2	  0	 28	  3	  1	  6	  1	  4	  0	  2	  0	0.46335	  1	0.90000	  0	 16	 37	 48	  1	
23-Apr-2013	sub2326	2326	  2	  0	 29	  3	  1	  3	  5	  5	  1	  2	  0	0.34981	  0	0.90000	  0	 13	 42	 43	  1	
23-Apr-2013	sub2326	2326	  2	  0	 30	  3	  1	  5	  2	  6	  0	  1	  0	0.28357	  1	0.90000	  0	 15	 37	 48	  1	
23-Apr-2013	sub2326	2326	  2	  0	 31	  3	  1	  2	  3	  4	  1	  1	  0	1.85528	  0	0.90000	  1	 12	 40	 51	  0	
23-Apr-2013	sub2326	2326	  2	  0	 32	  3	  1	  4	  4	  5	  1	  2	  1	0.00017	  1	0.90000	  0	 14	 32	 33	  1	
23-Apr-2013	sub2326	2326	  2	  0	 33	  3	  1	  3	  5	  5	  1	  1	  1	0.46854	  1	0.90000	  0	 13	 32	 33	  1	
23-Apr-2013	sub2326	2326	  2	  0	 34	  3	  1	  4	  4	  5	  1	  2	  1	0.30338	  1	0.90000	  0	 14	 32	 33	  1	
23-Apr-2013	sub2326	2326	  2	  0	 35	  3	  1	  4	  4	  5	  1	  1	  0	0.42582	  0	0.90000	  0	 14	 42	 43	  1	
23-Apr-2013	sub2326	2326	  2	  0	 36	  3	  1	  2	  3	  4	  1	  1	  0	1.03685	  0	0.90000	  1	 12	 40	 51	  0	
23-Apr-2013	sub2326	2326	  2	  0	 37	  3	  1	  5	  2	  6	  1	  1	  1	2.32769	  1	0.90000	  1	 15	 35	 51	  0	
23-Apr-2013	sub2326	2326	  2	  0	 38	  3	  1	  4	  4	  5	  0	  2	  0	0.33292	  1	0.90000	  0	 14	 34	 49	  1	
23-Apr-2013	sub2326	2326	  2	  0	 39	  3	  1	  3	  5	  5	  1	  1	  1	0.62590	  1	0.90000	  0	 13	 32	 33	  0	
23-Apr-2013	sub2326	2326	  2	  0	 40	  3	  1	  2	  3	  4	  1	  1	  0	1.27537	  0	0.90000	  1	 12	 40	 51	  0	
23-Apr-2013	sub2326	2326	  2	  0	 41	  3	  1	  6	  1	  4	  1	  1	  0	0.37579	  0	0.90000	  0	 16	 45	 46	  1	
23-Apr-2013	sub2326	2326	  2	  0	 42	  3	  1	  5	  2	  6	  0	  1	  0	0.32861	  1	0.90000	  0	 15	 37	 48	  1	
23-Apr-2013	sub2326	2326	  2	  0	 43	  3	  1	  5	  2	  6	  0	  1	  0	0.21140	  1	0.90000	  0	 15	 37	 48	  1	
23-Apr-2013	sub2326	2326	  2	  0	 44	  3	  1	  5	  2	  6	  1	  1	  1	0.37007	  1	0.90000	  0	 15	 35	 36	  1	
23-Apr-2013	sub2326	2326	  2	  0	 45	  3	  1	  1	  6	  5	  1	  2	  0	0.25345	  0	0.90000	  0	 11	 40	 41	  1	
23-Apr-2013	sub2326	2326	  2	  0	 46	  3	  1	  2	  3	  4	  1	  1	  0	0.30011	  0	0.90000	  0	 12	 40	 41	  1	
23-Apr-2013	sub2326	2326	  2	  0	 47	  3	  1	  6	  1	  4	  0	  1	  1	0.26353	  0	0.90000	  0	 16	 47	 38	  1	
23-Apr-2013	sub2326	2326	  2	  0	 48	  3	  1	  3	  5	  5	  1	  1	  1	0.44359	  1	0.90000	  0	 13	 32	 33	  1	
23-Apr-2013	sub2326	2326	  2	  0	 49	  3	  1	  1	  6	  5	  1	  2	  0	1.29012	  0	0.90000	  1	 11	 40	 51	  0	
23-Apr-2013	sub2326	2326	  2	  0	 50	  3	  1	  2	  3	  4	  1	  1	  0	1.54312	  0	0.90000	  1	 12	 40	 51	  0	
23-Apr-2013	sub2326	2326	  2	  0	 51	  3	  1	  6	  1	  4	  1	  1	  0	0.67228	  0	0.90000	  0	 16	 45	 46	  0	
23-Apr-2013	sub2326	2326	  2	  0	 52	  3	  1	  2	  3	  4	  1	  1	  0	0.37393	  0	0.90000	  0	 12	 40	 41	  1	
23-Apr-2013	sub2326	2326	  2	  0	 53	  3	  1	  2	  3	  4	  1	  2	  1	0.40245	  1	0.90000	  0	 12	 30	 31	  1	
23-Apr-2013	sub2326	2326	  2	  0	 54	  3	  1	  3	  5	  5	  1	  1	  1	0.36802	  1	0.90000	  0	 13	 32	 33	  1	
23-Apr-2013	sub2326	2326	  2	  0	 55	  3	  1	  2	  3	  4	  1	  2	  1	0.18831	  1	0.90000	  0	 12	 30	 31	  1	
23-Apr-2013	sub2326	2326	  2	  0	 56	  3	  1	  3	  5	  5	  1	  2	  0	0.24565	  0	0.90000	  0	 13	 42	 43	  1	
23-Apr-2013	sub2326	2326	  2	  0	 57	  3	  1	  1	  6	  5	  1	  1	  1	0.44496	  1	0.90000	  0	 11	 30	 31	  1	
23-Apr-2013	sub2326	2326	  2	  0	 58	  3	  1	  5	  2	  6	  1	  1	  1	0.17850	  1	0.90000	  0	 15	 35	 36	  1	
23-Apr-2013	sub2326	2326	  2	  0	 59	  3	  1	  1	  6	  5	  1	  1	  1	0.01732	  1	0.90000	  0	 11	 30	 31	  1	
23-Apr-2013	sub2326	2326	  2	  0	 60	  3	  1	  6	  1	  4	  1	  1	  0	0.45972	  0	0.90000	  0	 16	 45	 46	  1	
23-Apr-2013	sub2326	2326	  2	  0	 61	  3	  1	  6	  1	  4	  1	  1	  0	0.37830	  0	0.90000	  0	 16	 45	 46	  1	
23-Apr-2013	sub2326	2326	  2	  0	 62	  3	  1	  4	  4	  5	  1	  2	  1	0.11079	  1	0.90000	  0	 14	 32	 33	  1	
23-Apr-2013	sub2326	2326	  2	  0	 63	  3	  1	  2	  3	  4	  1	  1	  0	0.43978	  0	0.90000	  0	 12	 40	 41	  1	
23-Apr-2013	sub2326	2326	  2	  0	 64	  3	  1	  5	  2	  6	  0	  2	  1	0.37129	  0	0.90000	  0	 15	 47	 38	  1	
23-Apr-2013	sub2326	2326	  2	  0	 65	  3	  1	  2	  3	  4	  1	  2	  1	0.37344	  1	0.90000	  0	 12	 30	 31	  1	
23-Apr-2013	sub2326	2326	  2	  0	 66	  3	  1	  5	  2	  6	  0	  2	  1	0.45668	  0	0.90000	  0	 15	 47	 38	  1	
23-Apr-2013	sub2326	2326	  2	  0	 67	  3	  1	  6	  1	  4	  0	  2	  0	0.31660	  1	0.90000	  0	 16	 37	 48	  1	
23-Apr-2013	sub2326	2326	  2	  0	 68	  3	  1	  5	  2	  6	  1	  2	  0	0.34800	  0	0.90000	  0	 15	 45	 46	  1	
23-Apr-2013	sub2326	2326	  2	  0	 69	  3	  1	  3	  5	  5	  1	  1	  1	1.84180	  1	0.90000	  1	 13	 32	 51	  0	
23-Apr-2013	sub2326	2326	  2	  0	 70	  3	  1	  6	  1	  4	  0	  1	  1	0.47155	  0	0.90000	  0	 16	 47	 38	  1	
23-Apr-2013	sub2326	2326	  2	  0	 71	  3	  1	  4	  4	  5	  1	  2	  1	0.23131	  1	0.90000	  0	 14	 32	 33	  1	
23-Apr-2013	sub2326	2326	  2	  0	 72	  3	  1	  1	  6	  5	  1	  1	  1	0.21424	  1	0.90000	  0	 11	 30	 31	  1	
23-Apr-2013	sub2326	2326	  2	  0	 73	  3	  1	  2	  3	  4	  1	  2	  1	0.21359	  1	0.90000	  0	 12	 30	 31	  1	
23-Apr-2013	sub2326	2326	  2	  0	 74	  3	  1	  1	  6	  5	  1	  1	  1	0.08770	  1	0.90000	  0	 11	 30	 31	  1	
23-Apr-2013	sub2326	2326	  2	  0	 75	  3	  1	  2	  3	  4	  1	  2	  1	0.13499	  1	0.90000	  0	 12	 30	 31	  1	
23-Apr-2013	sub2326	2326	  2	  0	 76	  3	  2	  5	  2	  6	  0	  1	  0	0.00009	  1	0.90000	  0	 25	 67	 88	  1	
23-Apr-2013	sub2326	2326	  2	  0	 77	  3	  2	  3	  5	  5	  1	  2	  0	0.03577	  0	0.90000	  0	 23	 82	 83	  1	
23-Apr-2013	sub2326	2326	  2	  0	 78	  3	  2	  5	  2	  6	  0	  1	  0	0.17420	  1	0.90000	  0	 25	 67	 88	  1	
23-Apr-2013	sub2326	2326	  2	  0	 79	  3	  2	  6	  1	  4	  0	  1	  1	0.00017	  0	0.90000	  0	 26	 87	 68	  1	
23-Apr-2013	sub2326	2326	  2	  0	 80	  3	  2	  5	  2	  6	  0	  2	  1	0.23705	  0	0.90000	  0	 25	 87	 68	  1	
23-Apr-2013	sub2326	2326	  2	  0	 81	  3	  2	  2	  3	  4	  1	  1	  0	0.32616	  0	0.90000	  0	 22	 80	 81	  1	
23-Apr-2013	sub2326	2326	  2	  0	 82	  3	  2	  2	  3	  4	  1	  2	  1	0.21501	  1	0.90000	  0	 22	 60	 61	  1	
23-Apr-2013	sub2326	2326	  2	  0	 83	  3	  2	  3	  5	  5	  1	  2	  0	0.25732	  0	0.90000	  0	 23	 82	 83	  1	
23-Apr-2013	sub2326	2326	  2	  0	 84	  3	  2	  3	  5	  5	  1	  2	  0	0.24302	  0	0.90000	  0	 23	 82	 83	  1	
23-Apr-2013	sub2326	2326	  2	  0	 85	  3	  2	  4	  4	  5	  1	  1	  0	0.10036	  0	0.90000	  0	 24	 82	 83	  1	
23-Apr-2013	sub2326	2326	  2	  0	 86	  3	  2	  2	  3	  4	  1	  2	  1	0.27887	  1	0.90000	  0	 22	 60	 61	  1	
23-Apr-2013	sub2326	2326	  2	  0	 87	  3	  2	  4	  4	  5	  1	  2	  1	0.34152	  1	0.90000	  0	 24	 62	 63	  1	
23-Apr-2013	sub2326	2326	  2	  0	 88	  3	  2	  4	  4	  5	  1	  1	  0	0.27121	  0	0.90000	  0	 24	 82	 83	  1	
23-Apr-2013	sub2326	2326	  2	  0	 89	  3	  2	  1	  6	  5	  1	  2	  0	0.17126	  0	0.90000	  0	 21	 80	 81	  1	
23-Apr-2013	sub2326	2326	  2	  0	 90	  3	  2	  5	  2	  6	  0	  2	  1	0.41195	  0	0.90000	  0	 25	 87	 68	  1	
23-Apr-2013	sub2326	2326	  2	  0	 91	  3	  2	  2	  3	  4	  1	  2	  1	0.25505	  1	0.90000	  0	 22	 60	 61	  1	
23-Apr-2013	sub2326	2326	  2	  0	 92	  3	  2	  1	  6	  5	  1	  2	  0	0.34126	  0	0.90000	  0	 21	 80	 81	  1	
23-Apr-2013	sub2326	2326	  2	  0	 93	  3	  2	  2	  3	  4	  1	  1	  0	0.47492	  0	0.90000	  0	 22	 80	 81	  1	
23-Apr-2013	sub2326	2326	  2	  0	 94	  3	  2	  4	  4	  5	  0	  2	  0	0.22559	  1	0.90000	  0	 24	 64	 89	  1	
23-Apr-2013	sub2326	2326	  2	  0	 95	  3	  2	  2	  3	  4	  1	  2	  1	1.56537	  1	0.90000	  1	 22	 60	 51	  0	
23-Apr-2013	sub2326	2326	  2	  0	 96	  3	  2	  3	  5	  5	  1	  1	  1	0.39496	  1	0.90000	  0	 23	 62	 63	  1	
23-Apr-2013	sub2326	2326	  2	  0	 97	  3	  2	  1	  6	  5	  1	  2	  0	0.31113	  0	0.90000	  0	 21	 80	 81	  1	
23-Apr-2013	sub2326	2326	  2	  0	 98	  3	  2	  5	  2	  6	  0	  1	  0	0.34511	  1	0.90000	  0	 25	 67	 88	  1	
23-Apr-2013	sub2326	2326	  2	  0	 99	  3	  2	  5	  2	  6	  0	  1	  0	0.14358	  1	0.90000	  0	 25	 67	 88	  1	
23-Apr-2013	sub2326	2326	  2	  0	100	  3	  2	  1	  6	  5	  1	  1	  1	0.23552	  1	0.90000	  0	 21	 60	 61	  1	
23-Apr-2013	sub2326	2326	  2	  0	101	  3	  2	  2	  3	  4	  1	  1	  0	0.34601	  0	0.90000	  0	 22	 80	 81	  1	
23-Apr-2013	sub2326	2326	  2	  0	102	  3	  2	  5	  2	  6	  0	  1	  0	0.10559	  1	0.90000	  0	 25	 67	 88	  1	
23-Apr-2013	sub2326	2326	  2	  0	103	  3	  2	  5	  2	  6	  0	  1	  0	0.19151	  1	0.90000	  0	 25	 67	 88	  1	
23-Apr-2013	sub2326	2326	  2	  0	104	  3	  2	  6	  1	  4	  1	  1	  0	0.10597	  0	0.90000	  0	 26	 85	 86	  1	
23-Apr-2013	sub2326	2326	  2	  0	105	  3	  2	  1	  6	  5	  1	  2	  0	0.23360	  0	0.90000	  0	 21	 80	 81	  1	
23-Apr-2013	sub2326	2326	  2	  0	106	  3	  2	  3	  5	  5	  0	  2	  1	0.41103	  0	0.90000	  0	 23	 84	 69	  1	
23-Apr-2013	sub2326	2326	  2	  0	107	  3	  2	  6	  1	  4	  1	  2	  1	0.57096	  1	0.90000	  0	 26	 65	 66	  0	
23-Apr-2013	sub2326	2326	  2	  0	108	  3	  2	  3	  5	  5	  1	  2	  0	0.36140	  0	0.90000	  0	 23	 82	 83	  1	
23-Apr-2013	sub2326	2326	  2	  0	109	  3	  2	  6	  1	  4	  1	  2	  1	2.28485	  1	0.90000	  1	 26	 65	 51	  0	
23-Apr-2013	sub2326	2326	  2	  0	110	  3	  2	  2	  3	  4	  1	  1	  0	0.31929	  0	0.90000	  0	 22	 80	 81	  1	
23-Apr-2013	sub2326	2326	  2	  0	111	  3	  2	  3	  5	  5	  1	  2	  0	0.40463	  0	0.90000	  0	 23	 82	 83	  1	
23-Apr-2013	sub2326	2326	  2	  0	112	  3	  2	  5	  2	  6	  0	  2	  1	0.04755	  0	0.90000	  0	 25	 87	 68	  1	
23-Apr-2013	sub2326	2326	  2	  0	113	  3	  2	  3	  5	  5	  1	  1	  1	0.12446	  1	0.90000	  0	 23	 62	 63	  1	
23-Apr-2013	sub2326	2326	  2	  0	114	  3	  2	  2	  3	  4	  1	  2	  1	0.09339	  1	0.90000	  0	 22	 60	 61	  1	
23-Apr-2013	sub2326	2326	  2	  0	115	  3	  2	  1	  6	  5	  1	  1	  1	1.61244	  1	0.90000	  1	 21	 60	 51	  0	
23-Apr-2013	sub2326	2326	  2	  0	116	  3	  2	  1	  6	  5	  1	  2	  0	0.69942	  0	0.90000	  0	 21	 80	 81	  0	
23-Apr-2013	sub2326	2326	  2	  0	117	  3	  2	  5	  2	  6	  0	  1	  0	1.60360	  1	0.90000	  1	 25	 67	 51	  0	
23-Apr-2013	sub2326	2326	  2	  0	118	  3	  2	  1	  6	  5	  1	  1	  1	0.21718	  1	0.90000	  0	 21	 60	 61	  1	
23-Apr-2013	sub2326	2326	  2	  0	119	  3	  2	  4	  4	  5	  1	  2	  1	0.26239	  1	0.90000	  0	 24	 62	 63	  1	
23-Apr-2013	sub2326	2326	  2	  0	120	  3	  2	  1	  6	  5	  1	  2	  0	0.32025	  0	0.90000	  0	 21	 80	 81	  1	
23-Apr-2013	sub2326	2326	  2	  0	121	  3	  2	  1	  6	  5	  1	  2	  0	0.29244	  0	0.90000	  0	 21	 80	 81	  1	
23-Apr-2013	sub2326	2326	  2	  0	122	  3	  2	  6	  1	  4	  0	  1	  1	0.38255	  0	0.90000	  0	 26	 87	 68	  1	
23-Apr-2013	sub2326	2326	  2	  0	123	  3	  2	  5	  2	  6	  0	  2	  1	0.67013	  0	0.90000	  0	 25	 87	 68	  0	
23-Apr-2013	sub2326	2326	  2	  0	124	  3	  2	  6	  1	  4	  1	  2	  1	0.26414	  1	0.90000	  0	 26	 65	 66	  1	
23-Apr-2013	sub2326	2326	  2	  0	125	  3	  2	  6	  1	  4	  1	  2	  1	0.27128	  1	0.90000	  0	 26	 65	 66	  1	
23-Apr-2013	sub2326	2326	  2	  0	126	  3	  2	  4	  4	  5	  0	  2	  0	0.36741	  1	0.90000	  0	 24	 64	 89	  1	
23-Apr-2013	sub2326	2326	  2	  0	127	  3	  2	  4	  4	  5	  1	  1	  0	0.37616	  0	0.90000	  0	 24	 82	 83	  1	
23-Apr-2013	sub2326	2326	  2	  0	128	  3	  2	  1	  6	  5	  1	  2	  0	0.19073	  0	0.90000	  0	 21	 80	 81	  1	
23-Apr-2013	sub2326	2326	  2	  0	129	  3	  2	  6	  1	  4	  0	  1	  1	1.81941	  0	0.90000	  1	 26	 87	 51	  0	
23-Apr-2013	sub2326	2326	  2	  0	130	  3	  2	  3	  5	  5	  1	  1	  1	0.00814	  1	0.90000	  0	 23	 62	 63	  1	
23-Apr-2013	sub2326	2326	  2	  0	131	  3	  2	  1	  6	  5	  1	  2	  0	0.31210	  0	0.90000	  0	 21	 80	 81	  1	
23-Apr-2013	sub2326	2326	  2	  0	132	  3	  2	  4	  4	  5	  0	  2	  0	0.25727	  1	0.90000	  0	 24	 64	 89	  1	
23-Apr-2013	sub2326	2326	  2	  0	133	  3	  2	  6	  1	  4	  1	  2	  1	0.24213	  1	0.90000	  0	 26	 65	 66	  1	
23-Apr-2013	sub2326	2326	  2	  0	134	  3	  2	  2	  3	  4	  1	  2	  1	0.26086	  1	0.90000	  0	 22	 60	 61	  1	
23-Apr-2013	sub2326	2326	  2	  0	135	  3	  2	  2	  3	  4	  1	  2	  1	0.01237	  1	0.90000	  0	 22	 60	 61	  1	
23-Apr-2013	sub2326	2326	  2	  0	136	  3	  2	  1	  6	  5	  1	  2	  0	0.00017	  0	0.90000	  0	 21	 80	 81	  1	
23-Apr-2013	sub2326	2326	  2	  0	137	  3	  2	  4	  4	  5	  1	  1	  0	0.31274	  0	0.90000	  0	 24	 82	 83	  1	
23-Apr-2013	sub2326	2326	  2	  0	138	  3	  2	  4	  4	  5	  1	  1	  0	0.46982	  0	0.90000	  0	 24	 82	 83	  1	
23-Apr-2013	sub2326	2326	  2	  0	139	  3	  2	  6	  1	  4	  0	  1	  1	0.24108	  0	0.90000	  0	 26	 87	 68	  1	
23-Apr-2013	sub2326	2326	  2	  0	140	  3	  2	  3	  5	  5	  0	  2	  1	0.21343	  0	0.90000	  0	 23	 84	 69	  1	
23-Apr-2013	sub2326	2326	  2	  0	141	  3	  2	  5	  2	  6	  0	  2	  1	0.37125	  0	0.90000	  0	 25	 87	 68	  1	
23-Apr-2013	sub2326	2326	  2	  0	142	  3	  2	  3	  5	  5	  1	  1	  1	1.77293	  1	0.90000	  1	 23	 62	 51	  0	
23-Apr-2013	sub2326	2326	  2	  0	143	  3	  2	  4	  4	  5	  1	  2	  1	0.06982	  1	0.90000	  0	 24	 62	 63	  1	
23-Apr-2013	sub2326	2326	  2	  0	144	  3	  2	  4	  4	  5	  1	  2	  1	0.34594	  1	0.90000	  0	 24	 62	 63	  1	
23-Apr-2013	sub2326	2326	  2	  0	145	  3	  2	  5	  2	  6	  0	  2	  1	0.37717	  0	0.90000	  0	 25	 87	 68	  1	
23-Apr-2013	sub2326	2326	  2	  0	146	  3	  2	  6	  1	  4	  0	  2	  0	0.20943	  1	0.90000	  0	 26	 67	 88	  1	
23-Apr-2013	sub2326	2326	  2	  0	147	  3	  2	  6	  1	  4	  0	  2	  0	0.32630	  1	0.90000	  0	 26	 67	 88	  1	
23-Apr-2013	sub2326	2326	  2	  0	148	  3	  2	  2	  3	  4	  1	  2	  1	0.40649	  1	0.90000	  0	 22	 60	 61	  1	
23-Apr-2013	sub2326	2326	  2	  0	149	  3	  2	  3	  5	  5	  1	  2	  0	0.18727	  0	0.90000	  0	 23	 82	 83	  1	
23-Apr-2013	sub2326	2326	  2	  0	150	  3	  2	  4	  4	  5	  1	  2	  1	0.29467	  1	0.90000	  0	 24	 62	 63	  1	
23-Apr-2013	sub2326	2326	  2	  0	  1	  4	  1	  6	  4	  1	  0	  2	  0	0.63463	  1	0.60000	  1	 16	 37	 51	  0	
23-Apr-2013	sub2326	2326	  2	  0	  2	  4	  1	  3	  1	  3	  1	  1	  1	0.43661	  1	0.90000	  0	 13	 32	 33	  1	
23-Apr-2013	sub2326	2326	  2	  0	  3	  4	  1	  2	  5	  1	  1	  1	  0	0.46085	  0	0.90000	  0	 12	 40	 41	  1	
23-Apr-2013	sub2326	2326	  2	  0	  4	  4	  1	  6	  4	  1	  1	  2	  1	0.36943	  1	0.90000	  0	 16	 35	 36	  1	
23-Apr-2013	sub2326	2326	  2	  0	  5	  4	  1	  5	  6	  2	  0	  1	  0	0.29542	  1	0.90000	  0	 15	 37	 48	  1	
23-Apr-2013	sub2326	2326	  2	  0	  6	  4	  1	  5	  6	  2	  1	  2	  0	0.36994	  0	0.90000	  0	 15	 45	 46	  1	
23-Apr-2013	sub2326	2326	  2	  0	  7	  4	  1	  3	  1	  3	  1	  2	  0	0.61802	  0	0.90000	  0	 13	 42	 43	  0	
23-Apr-2013	sub2326	2326	  2	  0	  8	  4	  1	  3	  1	  3	  1	  1	  1	0.15334	  1	0.90000	  0	 13	 32	 33	  1	
23-Apr-2013	sub2326	2326	  2	  0	  9	  4	  1	  6	  4	  1	  0	  2	  0	0.40690	  1	0.90000	  0	 16	 37	 48	  1	
23-Apr-2013	sub2326	2326	  2	  0	 10	  4	  1	  6	  4	  1	  1	  1	  0	0.26254	  0	0.90000	  0	 16	 45	 46	  1	
23-Apr-2013	sub2326	2326	  2	  0	 11	  4	  1	  4	  3	  1	  0	  2	  0	0.14387	  1	0.90000	  0	 14	 34	 49	  1	
23-Apr-2013	sub2326	2326	  2	  0	 12	  4	  1	  2	  5	  1	  1	  1	  0	0.05651	  0	0.90000	  0	 12	 40	 41	  1	
23-Apr-2013	sub2326	2326	  2	  0	 13	  4	  1	  5	  6	  2	  0	  1	  0	2.17544	  1	0.90000	  1	 15	 37	 51	  0	
23-Apr-2013	sub2326	2326	  2	  0	 14	  4	  1	  2	  5	  1	  1	  1	  0	1.76296	  0	0.90000	  1	 12	 40	 51	  0	
23-Apr-2013	sub2326	2326	  2	  0	 15	  4	  1	  6	  4	  1	  0	  1	  1	0.52654	  0	0.90000	  0	 16	 47	 38	  0	
23-Apr-2013	sub2326	2326	  2	  0	 16	  4	  1	  2	  5	  1	  1	  2	  1	0.24232	  1	0.90000	  0	 12	 30	 31	  1	
23-Apr-2013	sub2326	2326	  2	  0	 17	  4	  1	  1	  2	  5	  1	  2	  0	0.73336	  0	0.90000	  0	 11	 40	 41	  0	
23-Apr-2013	sub2326	2326	  2	  0	 18	  4	  1	  5	  6	  2	  0	  2	  1	0.44343	  0	0.90000	  0	 15	 47	 38	  1	
23-Apr-2013	sub2326	2326	  2	  0	 19	  4	  1	  6	  4	  1	  0	  2	  0	0.21751	  1	0.90000	  0	 16	 37	 48	  1	
23-Apr-2013	sub2326	2326	  2	  0	 20	  4	  1	  2	  5	  1	  1	  2	  1	0.16304	  1	0.90000	  0	 12	 30	 31	  1	
23-Apr-2013	sub2326	2326	  2	  0	 21	  4	  1	  1	  2	  5	  1	  2	  0	0.31922	  0	0.90000	  0	 11	 40	 41	  1	
23-Apr-2013	sub2326	2326	  2	  0	 22	  4	  1	  2	  5	  1	  1	  1	  0	0.41834	  0	0.90000	  0	 12	 40	 41	  1	
23-Apr-2013	sub2326	2326	  2	  0	 23	  4	  1	  4	  3	  1	  1	  2	  1	0.62354	  1	0.90000	  0	 14	 32	 33	  0	
23-Apr-2013	sub2326	2326	  2	  0	 24	  4	  1	  2	  5	  1	  1	  2	  1	0.05835	  1	0.90000	  0	 12	 30	 31	  1	
23-Apr-2013	sub2326	2326	  2	  0	 25	  4	  1	  4	  3	  1	  1	  2	  1	0.45278	  1	0.90000	  0	 14	 32	 33	  1	
23-Apr-2013	sub2326	2326	  2	  0	 26	  4	  1	  1	  2	  5	  1	  2	  0	0.07076	  0	0.90000	  0	 11	 40	 41	  1	
23-Apr-2013	sub2326	2326	  2	  0	 27	  4	  1	  3	  1	  3	  0	  2	  1	1.83463	  0	0.90000	  1	 13	 44	 51	  0	
23-Apr-2013	sub2326	2326	  2	  0	 28	  4	  1	  3	  1	  3	  0	  1	  0	0.00821	  1	0.90000	  0	 13	 34	 49	  1	
23-Apr-2013	sub2326	2326	  2	  0	 29	  4	  1	  3	  1	  3	  1	  2	  0	1.22684	  0	0.90000	  1	 13	 42	 51	  0	
23-Apr-2013	sub2326	2326	  2	  0	 30	  4	  1	  6	  4	  1	  1	  2	  1	0.24293	  1	0.90000	  0	 16	 35	 36	  1	
23-Apr-2013	sub2326	2326	  2	  0	 31	  4	  1	  3	  1	  3	  0	  2	  1	1.82008	  0	0.90000	  1	 13	 44	 51	  0	
23-Apr-2013	sub2326	2326	  2	  0	 32	  4	  1	  4	  3	  1	  1	  2	  1	0.32047	  1	0.90000	  0	 14	 32	 33	  1	
23-Apr-2013	sub2326	2326	  2	  0	 33	  4	  1	  3	  1	  3	  1	  2	  0	0.39232	  0	0.90000	  0	 13	 42	 43	  1	
23-Apr-2013	sub2326	2326	  2	  0	 34	  4	  1	  5	  6	  2	  1	  2	  0	0.27144	  0	0.90000	  0	 15	 45	 46	  1	
23-Apr-2013	sub2326	2326	  2	  0	 35	  4	  1	  4	  3	  1	  1	  2	  1	1.89013	  1	0.90000	  1	 14	 32	 51	  0	
23-Apr-2013	sub2326	2326	  2	  0	 36	  4	  1	  4	  3	  1	  1	  1	  0	0.25550	  0	0.90000	  0	 14	 42	 43	  1	
23-Apr-2013	sub2326	2326	  2	  0	 37	  4	  1	  3	  1	  3	  1	  2	  0	0.36363	  0	0.90000	  0	 13	 42	 43	  1	
23-Apr-2013	sub2326	2326	  2	  0	 38	  4	  1	  2	  5	  1	  1	  2	  1	1.40953	  1	0.90000	  1	 12	 30	 51	  0	
23-Apr-2013	sub2326	2326	  2	  0	 39	  4	  1	  1	  2	  5	  1	  2	  0	0.00009	  0	0.90000	  0	 11	 40	 41	  1	
23-Apr-2013	sub2326	2326	  2	  0	 40	  4	  1	  4	  3	  1	  1	  1	  0	0.00017	  0	0.90000	  0	 14	 42	 43	  1	
23-Apr-2013	sub2326	2326	  2	  0	 41	  4	  1	  1	  2	  5	  1	  2	  0	0.00363	  0	0.90000	  0	 11	 40	 41	  1	
23-Apr-2013	sub2326	2326	  2	  0	 42	  4	  1	  4	  3	  1	  1	  2	  1	0.38244	  1	0.90000	  0	 14	 32	 33	  1	
23-Apr-2013	sub2326	2326	  2	  0	 43	  4	  1	  5	  6	  2	  0	  2	  1	0.39036	  0	0.90000	  0	 15	 47	 38	  1	
23-Apr-2013	sub2326	2326	  2	  0	 44	  4	  1	  2	  5	  1	  1	  2	  1	0.28196	  1	0.90000	  0	 12	 30	 31	  1	
23-Apr-2013	sub2326	2326	  2	  0	 45	  4	  1	  5	  6	  2	  1	  2	  0	0.02512	  0	0.90000	  0	 15	 45	 46	  1	
23-Apr-2013	sub2326	2326	  2	  0	 46	  4	  1	  5	  6	  2	  1	  2	  0	1.57913	  0	0.90000	  1	 15	 45	 51	  0	
23-Apr-2013	sub2326	2326	  2	  0	 47	  4	  1	  2	  5	  1	  1	  2	  1	1.88481	  1	0.90000	  1	 12	 30	 51	  0	
23-Apr-2013	sub2326	2326	  2	  0	 48	  4	  1	  1	  2	  5	  1	  2	  0	0.05229	  0	0.90000	  0	 11	 40	 41	  1	
23-Apr-2013	sub2326	2326	  2	  0	 49	  4	  1	  6	  4	  1	  0	  2	  0	0.39466	  1	0.90000	  0	 16	 37	 48	  1	
23-Apr-2013	sub2326	2326	  2	  0	 50	  4	  1	  5	  6	  2	  0	  1	  0	0.00020	  1	0.90000	  0	 15	 37	 48	  1	
23-Apr-2013	sub2326	2326	  2	  0	 51	  4	  1	  4	  3	  1	  0	  2	  0	0.36081	  1	0.90000	  0	 14	 34	 49	  1	
23-Apr-2013	sub2326	2326	  2	  0	 52	  4	  1	  2	  5	  1	  1	  1	  0	0.23295	  0	0.90000	  0	 12	 40	 41	  1	
23-Apr-2013	sub2326	2326	  2	  0	 53	  4	  1	  6	  4	  1	  0	  1	  1	2.06612	  0	0.90000	  1	 16	 47	 51	  0	
23-Apr-2013	sub2326	2326	  2	  0	 54	  4	  1	  5	  6	  2	  1	  2	  0	1.02709	  0	0.90000	  1	 15	 45	 51	  0	
23-Apr-2013	sub2326	2326	  2	  0	 55	  4	  1	  3	  1	  3	  1	  2	  0	0.24513	  0	0.90000	  0	 13	 42	 43	  1	
23-Apr-2013	sub2326	2326	  2	  0	 56	  4	  1	  4	  3	  1	  1	  2	  1	0.00009	  1	0.90000	  0	 14	 32	 33	  1	
23-Apr-2013	sub2326	2326	  2	  0	 57	  4	  1	  5	  6	  2	  1	  2	  0	1.57577	  0	0.90000	  1	 15	 45	 51	  0	
23-Apr-2013	sub2326	2326	  2	  0	 58	  4	  1	  4	  3	  1	  1	  2	  1	0.28956	  1	0.90000	  0	 14	 32	 33	  1	
23-Apr-2013	sub2326	2326	  2	  0	 59	  4	  1	  6	  4	  1	  1	  2	  1	0.48090	  1	0.90000	  0	 16	 35	 36	  1	
23-Apr-2013	sub2326	2326	  2	  0	 60	  4	  1	  4	  3	  1	  1	  2	  1	0.36760	  1	0.90000	  0	 14	 32	 33	  1	
23-Apr-2013	sub2326	2326	  2	  0	 61	  4	  1	  6	  4	  1	  1	  1	  0	0.43969	  0	0.90000	  0	 16	 45	 46	  1	
23-Apr-2013	sub2326	2326	  2	  0	 62	  4	  1	  1	  2	  5	  1	  1	  1	0.42804	  1	0.90000	  0	 11	 30	 31	  1	
23-Apr-2013	sub2326	2326	  2	  0	 63	  4	  1	  2	  5	  1	  1	  1	  0	0.33964	  0	0.90000	  0	 12	 40	 41	  1	
23-Apr-2013	sub2326	2326	  2	  0	 64	  4	  1	  2	  5	  1	  1	  1	  0	0.42782	  0	0.90000	  0	 12	 40	 41	  1	
23-Apr-2013	sub2326	2326	  2	  0	 65	  4	  1	  5	  6	  2	  0	  2	  1	0.21297	  0	0.90000	  0	 15	 47	 38	  1	
23-Apr-2013	sub2326	2326	  2	  0	 66	  4	  1	  1	  2	  5	  1	  2	  0	0.36524	  0	0.90000	  0	 11	 40	 41	  1	
23-Apr-2013	sub2326	2326	  2	  0	 67	  4	  1	  1	  2	  5	  1	  2	  0	0.27449	  0	0.90000	  0	 11	 40	 41	  1	
23-Apr-2013	sub2326	2326	  2	  0	 68	  4	  1	  1	  2	  5	  1	  1	  1	0.29152	  1	0.90000	  0	 11	 30	 31	  1	
23-Apr-2013	sub2326	2326	  2	  0	 69	  4	  1	  3	  1	  3	  1	  2	  0	0.26889	  0	0.90000	  0	 13	 42	 43	  1	
23-Apr-2013	sub2326	2326	  2	  0	 70	  4	  1	  3	  1	  3	  1	  1	  1	0.27574	  1	0.90000	  0	 13	 32	 33	  1	
23-Apr-2013	sub2326	2326	  2	  0	 71	  4	  1	  1	  2	  5	  1	  2	  0	0.35728	  0	0.90000	  0	 11	 40	 41	  1	
23-Apr-2013	sub2326	2326	  2	  0	 72	  4	  1	  1	  2	  5	  1	  1	  1	0.34146	  1	0.90000	  0	 11	 30	 31	  1	
23-Apr-2013	sub2326	2326	  2	  0	 73	  4	  1	  3	  1	  3	  1	  1	  1	0.37154	  1	0.90000	  0	 13	 32	 33	  1	
23-Apr-2013	sub2326	2326	  2	  0	 74	  4	  1	  6	  4	  1	  1	  1	  0	0.41578	  0	0.90000	  0	 16	 45	 46	  1	
23-Apr-2013	sub2326	2326	  2	  0	 75	  4	  1	  6	  4	  1	  1	  2	  1	0.24106	  1	0.90000	  0	 16	 35	 36	  1	
23-Apr-2013	sub2326	2326	  2	  0	 76	  4	  2	  5	  6	  2	  0	  1	  0	0.35774	  1	0.90000	  0	 25	 67	 88	  1	
23-Apr-2013	sub2326	2326	  2	  0	 77	  4	  2	  5	  6	  2	  0	  2	  1	0.30961	  0	0.90000	  0	 25	 87	 68	  1	
23-Apr-2013	sub2326	2326	  2	  0	 78	  4	  2	  2	  5	  1	  1	  2	  1	0.31948	  1	0.90000	  0	 22	 60	 61	  1	
23-Apr-2013	sub2326	2326	  2	  0	 79	  4	  2	  5	  6	  2	  0	  2	  1	0.41450	  0	0.90000	  0	 25	 87	 68	  1	
23-Apr-2013	sub2326	2326	  2	  0	 80	  4	  2	  1	  2	  5	  1	  1	  1	0.40517	  1	0.90000	  0	 21	 60	 61	  1	
23-Apr-2013	sub2326	2326	  2	  0	 81	  4	  2	  3	  1	  3	  1	  1	  1	0.51077	  1	0.90000	  0	 23	 62	 63	  0	
23-Apr-2013	sub2326	2326	  2	  0	 82	  4	  2	  6	  4	  1	  1	  1	  0	0.39250	  0	0.90000	  0	 26	 85	 86	  1	
23-Apr-2013	sub2326	2326	  2	  0	 83	  4	  2	  2	  5	  1	  1	  1	  0	0.42145	  0	0.90000	  0	 22	 80	 81	  1	
23-Apr-2013	sub2326	2326	  2	  0	 84	  4	  2	  5	  6	  2	  0	  2	  1	0.21275	  0	0.90000	  0	 25	 87	 68	  1	
23-Apr-2013	sub2326	2326	  2	  0	 85	  4	  2	  3	  1	  3	  0	  2	  1	0.33431	  0	0.90000	  0	 23	 84	 69	  1	
23-Apr-2013	sub2326	2326	  2	  0	 86	  4	  2	  6	  4	  1	  1	  2	  1	0.35481	  1	0.90000	  0	 26	 65	 66	  1	
23-Apr-2013	sub2326	2326	  2	  0	 87	  4	  2	  5	  6	  2	  0	  2	  1	0.32010	  0	0.90000	  0	 25	 87	 68	  1	
23-Apr-2013	sub2326	2326	  2	  0	 88	  4	  2	  5	  6	  2	  0	  1	  0	0.34905	  1	0.90000	  0	 25	 67	 88	  1	
23-Apr-2013	sub2326	2326	  2	  0	 89	  4	  2	  3	  1	  3	  1	  2	  0	0.17860	  0	0.90000	  0	 23	 82	 83	  1	
23-Apr-2013	sub2326	2326	  2	  0	 90	  4	  2	  6	  4	  1	  1	  1	  0	0.40640	  0	0.90000	  0	 26	 85	 86	  1	
23-Apr-2013	sub2326	2326	  2	  0	 91	  4	  2	  6	  4	  1	  1	  2	  1	0.45381	  1	0.90000	  0	 26	 65	 66	  1	
23-Apr-2013	sub2326	2326	  2	  0	 92	  4	  2	  4	  3	  1	  1	  1	  0	0.30244	  0	0.90000	  0	 24	 82	 83	  1	
23-Apr-2013	sub2326	2326	  2	  0	 93	  4	  2	  2	  5	  1	  1	  2	  1	0.41731	  1	0.90000	  0	 22	 60	 61	  1	
23-Apr-2013	sub2326	2326	  2	  0	 94	  4	  2	  2	  5	  1	  1	  2	  1	0.34287	  1	0.90000	  0	 22	 60	 61	  1	
23-Apr-2013	sub2326	2326	  2	  0	 95	  4	  2	  1	  2	  5	  1	  2	  0	0.31220	  0	0.90000	  0	 21	 80	 81	  1	
23-Apr-2013	sub2326	2326	  2	  0	 96	  4	  2	  5	  6	  2	  0	  1	  0	0.22593	  1	0.90000	  0	 25	 67	 88	  1	
23-Apr-2013	sub2326	2326	  2	  0	 97	  4	  2	  3	  1	  3	  1	  1	  1	0.33059	  1	0.90000	  0	 23	 62	 63	  1	
23-Apr-2013	sub2326	2326	  2	  0	 98	  4	  2	  6	  4	  1	  1	  1	  0	0.40331	  0	0.90000	  0	 26	 85	 86	  1	
23-Apr-2013	sub2326	2326	  2	  0	 99	  4	  2	  4	  3	  1	  0	  1	  1	0.40289	  0	0.90000	  0	 24	 84	 69	  1	
23-Apr-2013	sub2326	2326	  2	  0	100	  4	  2	  4	  3	  1	  1	  1	  0	0.38157	  0	0.90000	  0	 24	 82	 83	  1	
23-Apr-2013	sub2326	2326	  2	  0	101	  4	  2	  3	  1	  3	  0	  1	  0	0.36120	  1	0.90000	  0	 23	 64	 89	  1	
23-Apr-2013	sub2326	2326	  2	  0	102	  4	  2	  1	  2	  5	  1	  1	  1	0.38662	  1	0.90000	  0	 21	 60	 61	  1	
23-Apr-2013	sub2326	2326	  2	  0	103	  4	  2	  3	  1	  3	  1	  1	  1	0.51820	  1	0.90000	  0	 23	 62	 63	  0	
23-Apr-2013	sub2326	2326	  2	  0	104	  4	  2	  5	  6	  2	  0	  2	  1	0.16769	  0	0.90000	  0	 25	 87	 68	  1	
23-Apr-2013	sub2326	2326	  2	  0	105	  4	  2	  2	  5	  1	  1	  1	  0	0.28833	  0	0.90000	  0	 22	 80	 81	  1	
23-Apr-2013	sub2326	2326	  2	  0	106	  4	  2	  2	  5	  1	  1	  2	  1	0.27644	  1	0.90000	  0	 22	 60	 61	  1	
23-Apr-2013	sub2326	2326	  2	  0	107	  4	  2	  4	  3	  1	  1	  1	  0	0.33841	  0	0.90000	  0	 24	 82	 83	  1	
23-Apr-2013	sub2326	2326	  2	  0	108	  4	  2	  1	  2	  5	  1	  2	  0	0.08904	  0	0.90000	  0	 21	 80	 81	  1	
23-Apr-2013	sub2326	2326	  2	  0	109	  4	  2	  6	  4	  1	  1	  1	  0	0.15788	  0	0.90000	  0	 26	 85	 86	  1	
23-Apr-2013	sub2326	2326	  2	  0	110	  4	  2	  5	  6	  2	  0	  2	  1	0.15245	  0	0.90000	  0	 25	 87	 68	  1	
23-Apr-2013	sub2326	2326	  2	  0	111	  4	  2	  5	  6	  2	  0	  2	  1	0.28804	  0	0.90000	  0	 25	 87	 68	  1	
23-Apr-2013	sub2326	2326	  2	  0	112	  4	  2	  4	  3	  1	  1	  2	  1	0.45679	  1	0.90000	  0	 24	 62	 63	  1	
23-Apr-2013	sub2326	2326	  2	  0	113	  4	  2	  2	  5	  1	  1	  2	  1	0.33233	  1	0.90000	  0	 22	 60	 61	  1	
23-Apr-2013	sub2326	2326	  2	  0	114	  4	  2	  4	  3	  1	  1	  1	  0	0.27250	  0	0.90000	  0	 24	 82	 83	  1	
23-Apr-2013	sub2326	2326	  2	  0	115	  4	  2	  6	  4	  1	  0	  1	  1	0.29257	  0	0.90000	  0	 26	 87	 68	  1	
23-Apr-2013	sub2326	2326	  2	  0	116	  4	  2	  4	  3	  1	  0	  2	  0	0.23106	  1	0.90000	  0	 24	 64	 89	  1	
23-Apr-2013	sub2326	2326	  2	  0	117	  4	  2	  2	  5	  1	  1	  1	  0	0.26310	  0	0.90000	  0	 22	 80	 81	  1	
23-Apr-2013	sub2326	2326	  2	  0	118	  4	  2	  6	  4	  1	  0	  2	  0	0.31321	  1	0.90000	  0	 26	 67	 88	  1	
23-Apr-2013	sub2326	2326	  2	  0	119	  4	  2	  3	  1	  3	  1	  1	  1	0.18007	  1	0.90000	  0	 23	 62	 63	  1	
23-Apr-2013	sub2326	2326	  2	  0	120	  4	  2	  5	  6	  2	  0	  2	  1	0.37354	  0	0.90000	  0	 25	 87	 68	  1	
23-Apr-2013	sub2326	2326	  2	  0	121	  4	  2	  6	  4	  1	  0	  2	  0	0.27258	  1	0.90000	  0	 26	 67	 88	  1	
23-Apr-2013	sub2326	2326	  2	  0	122	  4	  2	  1	  2	  5	  1	  2	  0	1.56335	  0	0.90000	  1	 21	 80	 51	  0	
23-Apr-2013	sub2326	2326	  2	  0	123	  4	  2	  4	  3	  1	  1	  2	  1	0.29605	  1	0.90000	  0	 24	 62	 63	  1	
23-Apr-2013	sub2326	2326	  2	  0	124	  4	  2	  2	  5	  1	  1	  1	  0	0.27035	  0	0.90000	  0	 22	 80	 81	  1	
23-Apr-2013	sub2326	2326	  2	  0	125	  4	  2	  2	  5	  1	  1	  2	  1	0.20194	  1	0.90000	  0	 22	 60	 61	  1	
23-Apr-2013	sub2326	2326	  2	  0	126	  4	  2	  3	  1	  3	  1	  2	  0	0.30945	  0	0.90000	  0	 23	 82	 83	  1	
23-Apr-2013	sub2326	2326	  2	  0	127	  4	  2	  3	  1	  3	  1	  1	  1	0.26286	  1	0.90000	  0	 23	 62	 63	  1	
23-Apr-2013	sub2326	2326	  2	  0	128	  4	  2	  1	  2	  5	  1	  2	  0	0.40303	  0	0.90000	  0	 21	 80	 81	  1	
23-Apr-2013	sub2326	2326	  2	  0	129	  4	  2	  1	  2	  5	  1	  1	  1	0.28923	  1	0.90000	  0	 21	 60	 61	  1	
23-Apr-2013	sub2326	2326	  2	  0	130	  4	  2	  1	  2	  5	  1	  1	  1	0.36726	  1	0.90000	  0	 21	 60	 61	  1	
23-Apr-2013	sub2326	2326	  2	  0	131	  4	  2	  1	  2	  5	  1	  2	  0	0.23821	  0	0.90000	  0	 21	 80	 81	  1	
23-Apr-2013	sub2326	2326	  2	  0	132	  4	  2	  4	  3	  1	  0	  1	  1	0.40406	  0	0.90000	  0	 24	 84	 69	  1	
23-Apr-2013	sub2326	2326	  2	  0	133	  4	  2	  1	  2	  5	  1	  2	  0	0.21424	  0	0.90000	  0	 21	 80	 81	  1	
23-Apr-2013	sub2326	2326	  2	  0	134	  4	  2	  5	  6	  2	  0	  1	  0	0.29483	  1	0.90000	  0	 25	 67	 88	  1	
23-Apr-2013	sub2326	2326	  2	  0	135	  4	  2	  4	  3	  1	  1	  1	  0	0.47746	  0	0.90000	  0	 24	 82	 83	  1	
23-Apr-2013	sub2326	2326	  2	  0	136	  4	  2	  6	  4	  1	  0	  1	  1	0.32480	  0	0.90000	  0	 26	 87	 68	  1	
23-Apr-2013	sub2326	2326	  2	  0	137	  4	  2	  2	  5	  1	  1	  1	  0	0.42293	  0	0.90000	  0	 22	 80	 81	  1	
23-Apr-2013	sub2326	2326	  2	  0	138	  4	  2	  4	  3	  1	  1	  2	  1	0.17721	  1	0.90000	  0	 24	 62	 63	  1	
23-Apr-2013	sub2326	2326	  2	  0	139	  4	  2	  2	  5	  1	  1	  1	  0	0.48039	  0	0.90000	  0	 22	 80	 81	  1	
23-Apr-2013	sub2326	2326	  2	  0	140	  4	  2	  3	  1	  3	  1	  1	  1	0.45470	  1	0.90000	  0	 23	 62	 63	  1	
23-Apr-2013	sub2326	2326	  2	  0	141	  4	  2	  6	  4	  1	  0	  1	  1	0.36799	  0	0.90000	  0	 26	 87	 68	  1	
23-Apr-2013	sub2326	2326	  2	  0	142	  4	  2	  1	  2	  5	  1	  1	  1	0.36819	  1	0.90000	  0	 21	 60	 61	  1	
23-Apr-2013	sub2326	2326	  2	  0	143	  4	  2	  1	  2	  5	  1	  1	  1	0.38271	  1	0.90000	  0	 21	 60	 61	  1	
23-Apr-2013	sub2326	2326	  2	  0	144	  4	  2	  4	  3	  1	  1	  1	  0	0.24682	  0	0.90000	  0	 24	 82	 83	  1	
23-Apr-2013	sub2326	2326	  2	  0	145	  4	  2	  1	  2	  5	  1	  2	  0	0.28641	  0	0.90000	  0	 21	 80	 81	  1	
23-Apr-2013	sub2326	2326	  2	  0	146	  4	  2	  4	  3	  1	  1	  1	  0	0.21430	  0	0.90000	  0	 24	 82	 83	  1	
23-Apr-2013	sub2326	2326	  2	  0	147	  4	  2	  3	  1	  3	  1	  1	  1	0.43424	  1	0.90000	  0	 23	 62	 63	  1	
23-Apr-2013	sub2326	2326	  2	  0	148	  4	  2	  3	  1	  3	  1	  1	  1	0.40847	  1	0.90000	  0	 23	 62	 63	  1	
23-Apr-2013	sub2326	2326	  2	  0	149	  4	  2	  5	  6	  2	  0	  1	  0	0.34579	  1	0.90000	  0	 25	 67	 88	  1	
23-Apr-2013	sub2326	2326	  2	  0	150	  4	  2	  6	  4	  1	  0	  2	  0	0.13436	  1	0.90000	  0	 26	 67	 88	  1	
23-Apr-2013	sub2326	2326	  2	  0	  1	  5	  1	  5	  6	  1	  1	  2	  0	0.53144	  0	0.60000	  0	 15	 45	 46	  0	
23-Apr-2013	sub2326	2326	  2	  0	  2	  5	  1	  4	  4	  4	  1	  1	  0	0.37011	  0	0.30000	  1	 14	 42	 51	  1	
23-Apr-2013	sub2326	2326	  2	  0	  3	  5	  1	  2	  2	  2	  1	  1	  0	0.38867	  0	0.90000	  0	 12	 40	 41	  1	
23-Apr-2013	sub2326	2326	  2	  0	  4	  5	  1	  3	  5	  4	  1	  1	  1	0.23942	  1	0.90000	  0	 13	 32	 33	  1	
23-Apr-2013	sub2326	2326	  2	  0	  5	  5	  1	  1	  1	  5	  1	  2	  0	0.28409	  0	0.90000	  0	 11	 40	 41	  1	
23-Apr-2013	sub2326	2326	  2	  0	  6	  5	  1	  6	  3	  5	  1	  1	  0	0.20761	  0	0.90000	  0	 16	 45	 46	  1	
23-Apr-2013	sub2326	2326	  2	  0	  7	  5	  1	  1	  1	  5	  1	  2	  0	1.94738	  0	0.90000	  1	 11	 40	 51	  0	
23-Apr-2013	sub2326	2326	  2	  0	  8	  5	  1	  1	  1	  5	  1	  1	  1	1.67118	  1	0.90000	  1	 11	 30	 51	  0	
23-Apr-2013	sub2326	2326	  2	  0	  9	  5	  1	  6	  3	  5	  1	  2	  1	0.24332	  1	0.90000	  0	 16	 35	 36	  1	
23-Apr-2013	sub2326	2326	  2	  0	 10	  5	  1	  3	  5	  4	  1	  2	  0	0.04904	  0	0.90000	  0	 13	 42	 43	  1	
23-Apr-2013	sub2326	2326	  2	  0	 11	  5	  1	  1	  1	  5	  1	  1	  1	0.41765	  1	0.90000	  0	 11	 30	 31	  1	
23-Apr-2013	sub2326	2326	  2	  0	 12	  5	  1	  3	  5	  4	  1	  2	  0	0.26350	  0	0.90000	  0	 13	 42	 43	  1	
23-Apr-2013	sub2326	2326	  2	  0	 13	  5	  1	  4	  4	  4	  1	  1	  0	0.28682	  0	0.90000	  0	 14	 42	 43	  1	
23-Apr-2013	sub2326	2326	  2	  0	 14	  5	  1	  3	  5	  4	  0	  2	  1	0.68444	  0	0.90000	  0	 13	 44	 39	  0	
23-Apr-2013	sub2326	2326	  2	  0	 15	  5	  1	  3	  5	  4	  1	  1	  1	0.26877	  1	0.90000	  0	 13	 32	 33	  1	
23-Apr-2013	sub2326	2326	  2	  0	 16	  5	  1	  5	  6	  1	  0	  2	  1	0.30263	  0	0.90000	  0	 15	 47	 38	  1	
23-Apr-2013	sub2326	2326	  2	  0	 17	  5	  1	  3	  5	  4	  1	  1	  1	0.22314	  1	0.90000	  0	 13	 32	 33	  1	
23-Apr-2013	sub2326	2326	  2	  0	 18	  5	  1	  4	  4	  4	  1	  2	  1	0.22936	  1	0.90000	  0	 14	 32	 33	  1	
23-Apr-2013	sub2326	2326	  2	  0	 19	  5	  1	  6	  3	  5	  0	  1	  1	0.18347	  0	0.90000	  0	 16	 47	 38	  1	
23-Apr-2013	sub2326	2326	  2	  0	 20	  5	  1	  2	  2	  2	  1	  2	  1	0.00092	  1	0.90000	  0	 12	 30	 31	  1	
23-Apr-2013	sub2326	2326	  2	  0	 21	  5	  1	  5	  6	  1	  1	  1	  1	0.24406	  1	0.90000	  0	 15	 35	 36	  1	
23-Apr-2013	sub2326	2326	  2	  0	 22	  5	  1	  2	  2	  2	  1	  1	  0	0.28103	  0	0.90000	  0	 12	 40	 41	  1	
23-Apr-2013	sub2326	2326	  2	  0	 23	  5	  1	  6	  3	  5	  0	  2	  0	0.39059	  1	0.90000	  0	 16	 37	 48	  1	
23-Apr-2013	sub2326	2326	  2	  0	 24	  5	  1	  2	  2	  2	  1	  1	  0	0.26735	  0	0.90000	  0	 12	 40	 41	  1	
23-Apr-2013	sub2326	2326	  2	  0	 25	  5	  1	  4	  4	  4	  1	  2	  1	0.61496	  1	0.90000	  0	 14	 32	 33	  0	
23-Apr-2013	sub2326	2326	  2	  0	 26	  5	  1	  1	  1	  5	  1	  2	  0	0.38777	  0	0.90000	  0	 11	 40	 41	  1	
23-Apr-2013	sub2326	2326	  2	  0	 27	  5	  1	  5	  6	  1	  0	  2	  1	0.10282	  0	0.90000	  0	 15	 47	 38	  1	
23-Apr-2013	sub2326	2326	  2	  0	 28	  5	  1	  6	  3	  5	  0	  2	  0	0.27724	  1	0.90000	  0	 16	 37	 48	  1	
23-Apr-2013	sub2326	2326	  2	  0	 29	  5	  1	  4	  4	  4	  1	  2	  1	1.20530	  1	0.90000	  1	 14	 32	 51	  0	
23-Apr-2013	sub2326	2326	  2	  0	 30	  5	  1	  1	  1	  5	  1	  1	  1	0.00009	  1	0.90000	  0	 11	 30	 31	  1	
23-Apr-2013	sub2326	2326	  2	  0	 31	  5	  1	  2	  2	  2	  1	  2	  1	0.24284	  1	0.90000	  0	 12	 30	 31	  1	
23-Apr-2013	sub2326	2326	  2	  0	 32	  5	  1	  1	  1	  5	  1	  1	  1	0.08820	  1	0.90000	  0	 11	 30	 31	  1	
23-Apr-2013	sub2326	2326	  2	  0	 33	  5	  1	  2	  2	  2	  1	  2	  1	0.00013	  1	0.90000	  0	 12	 30	 31	  1	
23-Apr-2013	sub2326	2326	  2	  0	 34	  5	  1	  5	  6	  1	  1	  1	  1	0.03991	  1	0.90000	  0	 15	 35	 36	  1	
23-Apr-2013	sub2326	2326	  2	  0	 35	  5	  1	  6	  3	  5	  0	  2	  0	0.26206	  1	0.90000	  0	 16	 37	 48	  1	
23-Apr-2013	sub2326	2326	  2	  0	 36	  5	  1	  5	  6	  1	  1	  1	  1	0.00092	  1	0.90000	  0	 15	 35	 36	  1	
23-Apr-2013	sub2326	2326	  2	  0	 37	  5	  1	  1	  1	  5	  1	  1	  1	0.65732	  1	0.90000	  0	 11	 30	 31	  0	
23-Apr-2013	sub2326	2326	  2	  0	 38	  5	  1	  5	  6	  1	  0	  1	  0	0.16344	  1	0.90000	  0	 15	 37	 48	  1	
23-Apr-2013	sub2326	2326	  2	  0	 39	  5	  1	  3	  5	  4	  0	  1	  0	0.04872	  1	0.90000	  0	 13	 34	 49	  1	
23-Apr-2013	sub2326	2326	  2	  0	 40	  5	  1	  4	  4	  4	  1	  1	  0	0.07908	  0	0.90000	  0	 14	 42	 43	  1	
23-Apr-2013	sub2326	2326	  2	  0	 41	  5	  1	  3	  5	  4	  1	  1	  1	1.82928	  1	0.90000	  1	 13	 32	 51	  0	
23-Apr-2013	sub2326	2326	  2	  0	 42	  5	  1	  6	  3	  5	  1	  2	  1	0.20654	  1	0.90000	  0	 16	 35	 36	  1	
23-Apr-2013	sub2326	2326	  2	  0	 43	  5	  1	  6	  3	  5	  0	  2	  0	0.30673	  1	0.90000	  0	 16	 37	 48	  1	
23-Apr-2013	sub2326	2326	  2	  0	 44	  5	  1	  3	  5	  4	  0	  1	  0	0.22027	  1	0.90000	  0	 13	 34	 49	  1	
23-Apr-2013	sub2326	2326	  2	  0	 45	  5	  1	  3	  5	  4	  1	  2	  0	0.51257	  0	0.90000	  0	 13	 42	 43	  0	
23-Apr-2013	sub2326	2326	  2	  0	 46	  5	  1	  4	  4	  4	  0	  1	  1	0.30603	  0	0.90000	  0	 14	 44	 39	  1	
23-Apr-2013	sub2326	2326	  2	  0	 47	  5	  1	  5	  6	  1	  0	  1	  0	0.25126	  1	0.90000	  0	 15	 37	 48	  1	
23-Apr-2013	sub2326	2326	  2	  0	 48	  5	  1	  5	  6	  1	  0	  1	  0	0.40062	  1	0.90000	  0	 15	 37	 48	  1	
23-Apr-2013	sub2326	2326	  2	  0	 49	  5	  1	  6	  3	  5	  0	  1	  1	0.43254	  0	0.90000	  0	 16	 47	 38	  1	
23-Apr-2013	sub2326	2326	  2	  0	 50	  5	  1	  1	  1	  5	  1	  1	  1	0.57845	  1	0.90000	  0	 11	 30	 31	  0	
23-Apr-2013	sub2326	2326	  2	  0	 51	  5	  1	  6	  3	  5	  1	  1	  0	0.21628	  0	0.90000	  0	 16	 45	 46	  1	
23-Apr-2013	sub2326	2326	  2	  0	 52	  5	  1	  2	  2	  2	  1	  2	  1	0.45376	  1	0.90000	  0	 12	 30	 31	  1	
23-Apr-2013	sub2326	2326	  2	  0	 53	  5	  1	  5	  6	  1	  1	  2	  0	0.26846	  0	0.90000	  0	 15	 45	 46	  1	
23-Apr-2013	sub2326	2326	  2	  0	 54	  5	  1	  5	  6	  1	  1	  1	  1	0.44969	  1	0.90000	  0	 15	 35	 36	  1	
23-Apr-2013	sub2326	2326	  2	  0	 55	  5	  1	  1	  1	  5	  1	  2	  0	0.35555	  0	0.90000	  0	 11	 40	 41	  1	
23-Apr-2013	sub2326	2326	  2	  0	 56	  5	  1	  4	  4	  4	  1	  1	  0	0.14494	  0	0.90000	  0	 14	 42	 43	  1	
23-Apr-2013	sub2326	2326	  2	  0	 57	  5	  1	  3	  5	  4	  1	  2	  0	0.19950	  0	0.90000	  0	 13	 42	 43	  1	
23-Apr-2013	sub2326	2326	  2	  0	 58	  5	  1	  4	  4	  4	  0	  1	  1	0.24021	  0	0.90000	  0	 14	 44	 39	  1	
23-Apr-2013	sub2326	2326	  2	  0	 59	  5	  1	  6	  3	  5	  1	  1	  0	0.24092	  0	0.90000	  0	 16	 45	 46	  1	
23-Apr-2013	sub2326	2326	  2	  0	 60	  5	  1	  1	  1	  5	  1	  1	  1	0.35996	  1	0.90000	  0	 11	 30	 31	  1	
23-Apr-2013	sub2326	2326	  2	  0	 61	  5	  1	  2	  2	  2	  1	  1	  0	0.20953	  0	0.90000	  0	 12	 40	 41	  1	
23-Apr-2013	sub2326	2326	  2	  0	 62	  5	  1	  2	  2	  2	  1	  1	  0	0.29547	  0	0.90000	  0	 12	 40	 41	  1	
23-Apr-2013	sub2326	2326	  2	  0	 63	  5	  1	  3	  5	  4	  1	  1	  1	1.74127	  1	0.90000	  1	 13	 32	 51	  0	
23-Apr-2013	sub2326	2326	  2	  0	 64	  5	  1	  4	  4	  4	  1	  2	  1	0.26670	  1	0.90000	  0	 14	 32	 33	  1	
23-Apr-2013	sub2326	2326	  2	  0	 65	  5	  1	  6	  3	  5	  1	  2	  1	0.28479	  1	0.90000	  0	 16	 35	 36	  1	
23-Apr-2013	sub2326	2326	  2	  0	 66	  5	  1	  2	  2	  2	  1	  2	  1	0.28502	  1	0.90000	  0	 12	 30	 31	  1	
23-Apr-2013	sub2326	2326	  2	  0	 67	  5	  1	  5	  6	  1	  0	  1	  0	0.09386	  1	0.90000	  0	 15	 37	 48	  1	
23-Apr-2013	sub2326	2326	  2	  0	 68	  5	  1	  2	  2	  2	  1	  1	  0	0.30132	  0	0.90000	  0	 12	 40	 41	  1	
23-Apr-2013	sub2326	2326	  2	  0	 69	  5	  1	  4	  4	  4	  1	  1	  0	0.20141	  0	0.90000	  0	 14	 42	 43	  1	
23-Apr-2013	sub2326	2326	  2	  0	 70	  5	  1	  2	  2	  2	  1	  2	  1	0.22961	  1	0.90000	  0	 12	 30	 31	  1	
23-Apr-2013	sub2326	2326	  2	  0	 71	  5	  1	  6	  3	  5	  0	  2	  0	0.44927	  1	0.90000	  0	 16	 37	 48	  1	
23-Apr-2013	sub2326	2326	  2	  0	 72	  5	  1	  4	  4	  4	  1	  1	  0	0.39858	  0	0.90000	  0	 14	 42	 43	  1	
23-Apr-2013	sub2326	2326	  2	  0	 73	  5	  1	  2	  2	  2	  1	  2	  1	0.14028	  1	0.90000	  0	 12	 30	 31	  1	
23-Apr-2013	sub2326	2326	  2	  0	 74	  5	  1	  1	  1	  5	  1	  2	  0	0.21080	  0	0.90000	  0	 11	 40	 41	  1	
23-Apr-2013	sub2326	2326	  2	  0	 75	  5	  1	  3	  5	  4	  1	  1	  1	1.73872	  1	0.90000	  1	 13	 32	 51	  0	
23-Apr-2013	sub2326	2326	  2	  0	 76	  5	  2	  1	  1	  5	  1	  2	  0	0.36230	  0	0.90000	  0	 21	 80	 81	  1	
23-Apr-2013	sub2326	2326	  2	  0	 77	  5	  2	  6	  3	  5	  0	  2	  0	0.23550	  1	0.90000	  0	 26	 67	 88	  1	
23-Apr-2013	sub2326	2326	  2	  0	 78	  5	  2	  3	  5	  4	  1	  1	  1	0.27708	  1	0.90000	  0	 23	 62	 63	  1	
23-Apr-2013	sub2326	2326	  2	  0	 79	  5	  2	  4	  4	  4	  1	  2	  1	0.00330	  1	0.90000	  0	 24	 62	 63	  1	
23-Apr-2013	sub2326	2326	  2	  0	 80	  5	  2	  6	  3	  5	  1	  2	  1	0.22957	  1	0.90000	  0	 26	 65	 66	  1	
23-Apr-2013	sub2326	2326	  2	  0	 81	  5	  2	  2	  2	  2	  1	  1	  0	0.00017	  0	0.90000	  0	 22	 80	 81	  1	
23-Apr-2013	sub2326	2326	  2	  0	 82	  5	  2	  5	  6	  1	  0	  1	  0	1.87332	  1	0.90000	  1	 25	 67	 51	  0	
23-Apr-2013	sub2326	2326	  2	  0	 83	  5	  2	  5	  6	  1	  0	  2	  1	0.00009	  0	0.90000	  0	 25	 87	 68	  1	
23-Apr-2013	sub2326	2326	  2	  0	 84	  5	  2	  2	  2	  2	  1	  1	  0	0.16480	  0	0.90000	  0	 22	 80	 81	  1	
23-Apr-2013	sub2326	2326	  2	  0	 85	  5	  2	  5	  6	  1	  0	  2	  1	0.06916	  0	0.90000	  0	 25	 87	 68	  1	
23-Apr-2013	sub2326	2326	  2	  0	 86	  5	  2	  6	  3	  5	  1	  1	  0	1.82895	  0	0.90000	  1	 26	 85	 51	  0	
23-Apr-2013	sub2326	2326	  2	  0	 87	  5	  2	  4	  4	  4	  0	  2	  0	0.53392	  1	0.90000	  0	 24	 64	 89	  0	
23-Apr-2013	sub2326	2326	  2	  0	 88	  5	  2	  1	  1	  5	  1	  2	  0	0.00093	  0	0.90000	  0	 21	 80	 81	  1	
23-Apr-2013	sub2326	2326	  2	  0	 89	  5	  2	  3	  5	  4	  1	  2	  0	0.18246	  0	0.90000	  0	 23	 82	 83	  1	
23-Apr-2013	sub2326	2326	  2	  0	 90	  5	  2	  2	  2	  2	  1	  1	  0	1.77471	  0	0.90000	  1	 22	 80	 51	  0	
23-Apr-2013	sub2326	2326	  2	  0	 91	  5	  2	  3	  5	  4	  1	  2	  0	0.30254	  0	0.90000	  0	 23	 82	 83	  1	
23-Apr-2013	sub2326	2326	  2	  0	 92	  5	  2	  5	  6	  1	  0	  1	  0	2.03042	  1	0.90000	  1	 25	 67	 51	  0	
23-Apr-2013	sub2326	2326	  2	  0	 93	  5	  2	  1	  1	  5	  1	  1	  1	0.27910	  1	0.90000	  0	 21	 60	 61	  1	
23-Apr-2013	sub2326	2326	  2	  0	 94	  5	  2	  6	  3	  5	  1	  1	  0	0.12196	  0	0.90000	  0	 26	 85	 86	  1	
23-Apr-2013	sub2326	2326	  2	  0	 95	  5	  2	  3	  5	  4	  0	  1	  0	0.14595	  1	0.90000	  0	 23	 64	 89	  1	
23-Apr-2013	sub2326	2326	  2	  0	 96	  5	  2	  2	  2	  2	  1	  2	  1	0.05750	  1	0.90000	  0	 22	 60	 61	  1	
23-Apr-2013	sub2326	2326	  2	  0	 97	  5	  2	  4	  4	  4	  0	  1	  1	0.25990	  0	0.90000	  0	 24	 84	 69	  1	
23-Apr-2013	sub2326	2326	  2	  0	 98	  5	  2	  1	  1	  5	  1	  2	  0	0.33925	  0	0.90000	  0	 21	 80	 81	  1	
23-Apr-2013	sub2326	2326	  2	  0	 99	  5	  2	  3	  5	  4	  1	  2	  0	0.35410	  0	0.90000	  0	 23	 82	 83	  1	
23-Apr-2013	sub2326	2326	  2	  0	100	  5	  2	  3	  5	  4	  1	  2	  0	0.39668	  0	0.90000	  0	 23	 82	 83	  1	
23-Apr-2013	sub2326	2326	  2	  0	101	  5	  2	  5	  6	  1	  0	  1	  0	0.19249	  1	0.90000	  0	 25	 67	 88	  1	
23-Apr-2013	sub2326	2326	  2	  0	102	  5	  2	  5	  6	  1	  0	  1	  0	0.28165	  1	0.90000	  0	 25	 67	 88	  1	
23-Apr-2013	sub2326	2326	  2	  0	103	  5	  2	  5	  6	  1	  0	  1	  0	0.23691	  1	0.90000	  0	 25	 67	 88	  1	
23-Apr-2013	sub2326	2326	  2	  0	104	  5	  2	  4	  4	  4	  1	  2	  1	0.18972	  1	0.90000	  0	 24	 62	 63	  1	
23-Apr-2013	sub2326	2326	  2	  0	105	  5	  2	  1	  1	  5	  1	  2	  0	0.32287	  0	0.90000	  0	 21	 80	 81	  1	
23-Apr-2013	sub2326	2326	  2	  0	106	  5	  2	  1	  1	  5	  1	  2	  0	0.22498	  0	0.90000	  0	 21	 80	 81	  1	
23-Apr-2013	sub2326	2326	  2	  0	107	  5	  2	  4	  4	  4	  1	  2	  1	0.04376	  1	0.90000	  0	 24	 62	 63	  1	
23-Apr-2013	sub2326	2326	  2	  0	108	  5	  2	  6	  3	  5	  1	  1	  0	0.40991	  0	0.90000	  0	 26	 85	 86	  1	
23-Apr-2013	sub2326	2326	  2	  0	109	  5	  2	  1	  1	  5	  1	  1	  1	0.29528	  1	0.90000	  0	 21	 60	 61	  1	
23-Apr-2013	sub2326	2326	  2	  0	110	  5	  2	  5	  6	  1	  0	  2	  1	0.10201	  0	0.90000	  0	 25	 87	 68	  1	
23-Apr-2013	sub2326	2326	  2	  0	111	  5	  2	  2	  2	  2	  1	  1	  0	0.24714	  0	0.90000	  0	 22	 80	 81	  1	
23-Apr-2013	sub2326	2326	  2	  0	112	  5	  2	  2	  2	  2	  1	  2	  1	0.31722	  1	0.90000	  0	 22	 60	 61	  1	
23-Apr-2013	sub2326	2326	  2	  0	113	  5	  2	  5	  6	  1	  0	  1	  0	0.38533	  1	0.90000	  0	 25	 67	 88	  1	
23-Apr-2013	sub2326	2326	  2	  0	114	  5	  2	  4	  4	  4	  0	  1	  1	0.97149	  0	0.90000	  1	 24	 84	 51	  0	
23-Apr-2013	sub2326	2326	  2	  0	115	  5	  2	  1	  1	  5	  1	  2	  0	0.32496	  0	0.90000	  0	 21	 80	 81	  1	
23-Apr-2013	sub2326	2326	  2	  0	116	  5	  2	  3	  5	  4	  1	  1	  1	0.34410	  1	0.90000	  0	 23	 62	 63	  1	
23-Apr-2013	sub2326	2326	  2	  0	117	  5	  2	  2	  2	  2	  1	  1	  0	0.21450	  0	0.90000	  0	 22	 80	 81	  1	
23-Apr-2013	sub2326	2326	  2	  0	118	  5	  2	  4	  4	  4	  1	  2	  1	0.16884	  1	0.90000	  0	 24	 62	 63	  1	
23-Apr-2013	sub2326	2326	  2	  0	119	  5	  2	  3	  5	  4	  0	  1	  0	0.30131	  1	0.90000	  0	 23	 64	 89	  1	
23-Apr-2013	sub2326	2326	  2	  0	120	  5	  2	  4	  4	  4	  1	  2	  1	0.21619	  1	0.90000	  0	 24	 62	 63	  1	
23-Apr-2013	sub2326	2326	  2	  0	121	  5	  2	  1	  1	  5	  1	  2	  0	0.18130	  0	0.90000	  0	 21	 80	 81	  1	
23-Apr-2013	sub2326	2326	  2	  0	122	  5	  2	  5	  6	  1	  0	  1	  0	0.27352	  1	0.90000	  0	 25	 67	 88	  1	
23-Apr-2013	sub2326	2326	  2	  0	123	  5	  2	  4	  4	  4	  1	  2	  1	1.47134	  1	0.90000	  1	 24	 62	 51	  0	
23-Apr-2013	sub2326	2326	  2	  0	124	  5	  2	  3	  5	  4	  1	  2	  0	0.05583	  0	0.90000	  0	 23	 82	 83	  1	
23-Apr-2013	sub2326	2326	  2	  0	125	  5	  2	  3	  5	  4	  1	  1	  1	0.23075	  1	0.90000	  0	 23	 62	 63	  1	
23-Apr-2013	sub2326	2326	  2	  0	126	  5	  2	  2	  2	  2	  1	  1	  0	0.35518	  0	0.90000	  0	 22	 80	 81	  1	
23-Apr-2013	sub2326	2326	  2	  0	127	  5	  2	  2	  2	  2	  1	  2	  1	0.19004	  1	0.90000	  0	 22	 60	 61	  1	
23-Apr-2013	sub2326	2326	  2	  0	128	  5	  2	  5	  6	  1	  0	  1	  0	0.25448	  1	0.90000	  0	 25	 67	 88	  1	
23-Apr-2013	sub2326	2326	  2	  0	129	  5	  2	  1	  1	  5	  1	  1	  1	0.35297	  1	0.90000	  0	 21	 60	 61	  1	
23-Apr-2013	sub2326	2326	  2	  0	130	  5	  2	  2	  2	  2	  1	  1	  0	0.28979	  0	0.90000	  0	 22	 80	 81	  1	
23-Apr-2013	sub2326	2326	  2	  0	131	  5	  2	  5	  6	  1	  0	  2	  1	0.28588	  0	0.90000	  0	 25	 87	 68	  1	
23-Apr-2013	sub2326	2326	  2	  0	132	  5	  2	  4	  4	  4	  1	  1	  0	0.35363	  0	0.90000	  0	 24	 82	 83	  1	
23-Apr-2013	sub2326	2326	  2	  0	133	  5	  2	  6	  3	  5	  0	  2	  0	0.25360	  1	0.90000	  0	 26	 67	 88	  1	
23-Apr-2013	sub2326	2326	  2	  0	134	  5	  2	  1	  1	  5	  1	  1	  1	0.27530	  1	0.90000	  0	 21	 60	 61	  1	
23-Apr-2013	sub2326	2326	  2	  0	135	  5	  2	  3	  5	  4	  1	  2	  0	0.53875	  0	0.90000	  0	 23	 82	 83	  0	
23-Apr-2013	sub2326	2326	  2	  0	136	  5	  2	  6	  3	  5	  0	  1	  1	0.29798	  0	0.90000	  0	 26	 87	 68	  1	
23-Apr-2013	sub2326	2326	  2	  0	137	  5	  2	  6	  3	  5	  0	  1	  1	0.27655	  0	0.90000	  0	 26	 87	 68	  1	
23-Apr-2013	sub2326	2326	  2	  0	138	  5	  2	  1	  1	  5	  1	  1	  1	0.37100	  1	0.90000	  0	 21	 60	 61	  1	
23-Apr-2013	sub2326	2326	  2	  0	139	  5	  2	  6	  3	  5	  0	  2	  0	0.25500	  1	0.90000	  0	 26	 67	 88	  1	
23-Apr-2013	sub2326	2326	  2	  0	140	  5	  2	  4	  4	  4	  1	  1	  0	0.28046	  0	0.90000	  0	 24	 82	 83	  1	
23-Apr-2013	sub2326	2326	  2	  0	141	  5	  2	  3	  5	  4	  1	  2	  0	0.24028	  0	0.90000	  0	 23	 82	 83	  1	
23-Apr-2013	sub2326	2326	  2	  0	142	  5	  2	  6	  3	  5	  1	  1	  0	0.15184	  0	0.90000	  0	 26	 85	 86	  1	
23-Apr-2013	sub2326	2326	  2	  0	143	  5	  2	  6	  3	  5	  1	  1	  0	0.17453	  0	0.90000	  0	 26	 85	 86	  1	
23-Apr-2013	sub2326	2326	  2	  0	144	  5	  2	  2	  2	  2	  1	  2	  1	0.11607	  1	0.90000	  0	 22	 60	 61	  1	
23-Apr-2013	sub2326	2326	  2	  0	145	  5	  2	  4	  4	  4	  1	  1	  0	0.20075	  0	0.90000	  0	 24	 82	 83	  1	
23-Apr-2013	sub2326	2326	  2	  0	146	  5	  2	  2	  2	  2	  1	  1	  0	0.37375	  0	0.90000	  0	 22	 80	 81	  1	
23-Apr-2013	sub2326	2326	  2	  0	147	  5	  2	  5	  6	  1	  0	  2	  1	0.05689	  0	0.90000	  0	 25	 87	 68	  1	
23-Apr-2013	sub2326	2326	  2	  0	148	  5	  2	  6	  3	  5	  0	  2	  0	1.31989	  1	0.90000	  1	 26	 67	 51	  0	
23-Apr-2013	sub2326	2326	  2	  0	149	  5	  2	  1	  1	  5	  1	  2	  0	1.21961	  0	0.90000	  1	 21	 80	 51	  0	
23-Apr-2013	sub2326	2326	  2	  0	150	  5	  2	  4	  4	  4	  1	  2	  1	0.27931	  1	0.90000	  0	 24	 62	 63	  1	
23-Apr-2013	sub2326	2326	  2	  0	  1	  6	  1	  6	  4	  3	  1	  1	  0	0.33811	  0	0.60000	  0	 16	 45	 46	  1	
23-Apr-2013	sub2326	2326	  2	  0	  2	  6	  1	  6	  4	  3	  0	  1	  1	0.33940	  0	0.30000	  1	 16	 47	 51	  1	
23-Apr-2013	sub2326	2326	  2	  0	  3	  6	  1	  4	  2	  4	  1	  2	  1	0.24793	  1	0.90000	  0	 14	 32	 33	  1	
23-Apr-2013	sub2326	2326	  2	  0	  4	  6	  1	  3	  1	  1	  1	  1	  1	0.44692	  1	0.90000	  0	 13	 32	 33	  1	
23-Apr-2013	sub2326	2326	  2	  0	  5	  6	  1	  1	  5	  3	  1	  2	  0	0.20831	  0	0.90000	  0	 11	 40	 41	  1	
23-Apr-2013	sub2326	2326	  2	  0	  6	  6	  1	  6	  4	  3	  1	  1	  0	0.27302	  0	0.90000	  0	 16	 45	 46	  1	
23-Apr-2013	sub2326	2326	  2	  0	  7	  6	  1	  5	  6	  4	  0	  2	  1	0.27735	  0	0.90000	  0	 15	 47	 38	  1	
23-Apr-2013	sub2326	2326	  2	  0	  8	  6	  1	  2	  3	  6	  1	  1	  0	0.24814	  0	0.90000	  0	 12	 40	 41	  1	
23-Apr-2013	sub2326	2326	  2	  0	  9	  6	  1	  1	  5	  3	  1	  2	  0	0.04111	  0	0.90000	  0	 11	 40	 41	  1	
23-Apr-2013	sub2326	2326	  2	  0	 10	  6	  1	  3	  1	  1	  1	  2	  0	0.36028	  0	0.90000	  0	 13	 42	 43	  1	
23-Apr-2013	sub2326	2326	  2	  0	 11	  6	  1	  6	  4	  3	  0	  2	  0	0.03372	  1	0.90000	  0	 16	 37	 48	  1	
23-Apr-2013	sub2326	2326	  2	  0	 12	  6	  1	  4	  2	  4	  1	  1	  0	0.24322	  0	0.90000	  0	 14	 42	 43	  1	
23-Apr-2013	sub2326	2326	  2	  0	 13	  6	  1	  3	  1	  1	  1	  2	  0	0.11894	  0	0.90000	  0	 13	 42	 43	  1	
23-Apr-2013	sub2326	2326	  2	  0	 14	  6	  1	  1	  5	  3	  1	  1	  1	0.00830	  1	0.90000	  0	 11	 30	 31	  1	
23-Apr-2013	sub2326	2326	  2	  0	 15	  6	  1	  2	  3	  6	  1	  2	  1	0.17301	  1	0.90000	  0	 12	 30	 31	  1	
23-Apr-2013	sub2326	2326	  2	  0	 16	  6	  1	  1	  5	  3	  1	  2	  0	0.49002	  0	0.80000	  0	 11	 40	 41	  1	
23-Apr-2013	sub2326	2326	  2	  0	 17	  6	  1	  3	  1	  1	  0	  2	  1	0.30728	  0	0.80000	  0	 13	 44	 39	  1	
23-Apr-2013	sub2326	2326	  2	  0	 18	  6	  1	  2	  3	  6	  1	  2	  1	0.27092	  1	0.70000	  0	 12	 30	 31	  1	
23-Apr-2013	sub2326	2326	  2	  0	 19	  6	  1	  4	  2	  4	  1	  2	  1	0.36510	  1	0.70000	  0	 14	 32	 33	  1	
23-Apr-2013	sub2326	2326	  2	  0	 20	  6	  1	  4	  2	  4	  1	  1	  0	0.27777	  0	0.70000	  0	 14	 42	 43	  1	
23-Apr-2013	sub2326	2326	  2	  0	 21	  6	  1	  4	  2	  4	  1	  2	  1	0.16997	  1	0.60000	  0	 14	 32	 33	  1	
23-Apr-2013	sub2326	2326	  2	  0	 22	  6	  1	  2	  3	  6	  1	  2	  1	0.20177	  1	0.60000	  0	 12	 30	 31	  1	
23-Apr-2013	sub2326	2326	  2	  0	 23	  6	  1	  4	  2	  4	  1	  2	  1	0.31586	  1	0.60000	  0	 14	 32	 33	  1	
23-Apr-2013	sub2326	2326	  2	  0	 24	  6	  1	  1	  5	  3	  1	  1	  1	0.42660	  1	0.60000	  0	 11	 30	 31	  1	
23-Apr-2013	sub2326	2326	  2	  0	 25	  6	  1	  3	  1	  1	  1	  1	  1	0.48088	  1	0.60000	  0	 13	 32	 33	  1	
23-Apr-2013	sub2326	2326	  2	  0	 26	  6	  1	  3	  1	  1	  1	  1	  1	0.36210	  1	0.50000	  0	 13	 32	 33	  1	
23-Apr-2013	sub2326	2326	  2	  0	 27	  6	  1	  2	  3	  6	  1	  2	  1	0.26060	  1	0.50000	  0	 12	 30	 31	  1	
23-Apr-2013	sub2326	2326	  2	  0	 28	  6	  1	  4	  2	  4	  0	  2	  0	0.30489	  1	0.50000	  0	 14	 34	 49	  1	
23-Apr-2013	sub2326	2326	  2	  0	 29	  6	  1	  2	  3	  6	  1	  1	  0	0.38980	  0	0.50000	  0	 12	 40	 41	  1	
23-Apr-2013	sub2326	2326	  2	  0	 30	  6	  1	  5	  6	  4	  1	  2	  0	0.20435	  0	0.50000	  0	 15	 45	 46	  1	
23-Apr-2013	sub2326	2326	  2	  0	 31	  6	  1	  5	  6	  4	  0	  2	  1	0.19425	  0	0.50000	  0	 15	 47	 38	  1	
23-Apr-2013	sub2326	2326	  2	  0	 32	  6	  1	  2	  3	  6	  1	  1	  0	0.68102	  0	0.50000	  1	 12	 40	 51	  0	
23-Apr-2013	sub2326	2326	  2	  0	 33	  6	  1	  1	  5	  3	  1	  2	  0	0.31574	  0	0.80000	  0	 11	 40	 41	  1	
23-Apr-2013	sub2326	2326	  2	  0	 34	  6	  1	  4	  2	  4	  1	  1	  0	0.29864	  0	0.80000	  0	 14	 42	 43	  1	
23-Apr-2013	sub2326	2326	  2	  0	 35	  6	  1	  6	  4	  3	  0	  2	  0	0.05224	  1	0.70000	  0	 16	 37	 48	  1	
23-Apr-2013	sub2326	2326	  2	  0	 36	  6	  1	  6	  4	  3	  1	  2	  1	0.38762	  1	0.70000	  0	 16	 35	 36	  1	
23-Apr-2013	sub2326	2326	  2	  0	 37	  6	  1	  1	  5	  3	  1	  2	  0	0.38721	  0	0.70000	  0	 11	 40	 41	  1	
23-Apr-2013	sub2326	2326	  2	  0	 38	  6	  1	  5	  6	  4	  0	  2	  1	0.27595	  0	0.70000	  0	 15	 47	 38	  1	
23-Apr-2013	sub2326	2326	  2	  0	 39	  6	  1	  5	  6	  4	  0	  1	  0	0.36346	  1	0.70000	  0	 15	 37	 48	  1	
23-Apr-2013	sub2326	2326	  2	  0	 40	  6	  1	  3	  1	  1	  1	  1	  1	0.97067	  1	0.70000	  1	 13	 32	 51	  0	
23-Apr-2013	sub2326	2326	  2	  0	 41	  6	  1	  2	  3	  6	  1	  1	  0	1.16033	  0	0.90000	  1	 12	 40	 51	  0	
23-Apr-2013	sub2326	2326	  2	  0	 42	  6	  1	  1	  5	  3	  1	  2	  0	0.37167	  0	0.90000	  0	 11	 40	 41	  1	
23-Apr-2013	sub2326	2326	  2	  0	 43	  6	  1	  1	  5	  3	  1	  1	  1	0.07802	  1	0.90000	  0	 11	 30	 31	  1	
23-Apr-2013	sub2326	2326	  2	  0	 44	  6	  1	  6	  4	  3	  1	  2	  1	0.42696	  1	0.90000	  0	 16	 35	 36	  1	
23-Apr-2013	sub2326	2326	  2	  0	 45	  6	  1	  4	  2	  4	  1	  2	  1	0.09470	  1	0.90000	  0	 14	 32	 33	  1	
23-Apr-2013	sub2326	2326	  2	  0	 46	  6	  1	  6	  4	  3	  1	  2	  1	0.05718	  1	0.90000	  0	 16	 35	 36	  1	
23-Apr-2013	sub2326	2326	  2	  0	 47	  6	  1	  1	  5	  3	  1	  2	  0	0.16741	  0	0.90000	  0	 11	 40	 41	  1	
23-Apr-2013	sub2326	2326	  2	  0	 48	  6	  1	  5	  6	  4	  0	  1	  0	0.14762	  1	0.90000	  0	 15	 37	 48	  1	
23-Apr-2013	sub2326	2326	  2	  0	 49	  6	  1	  4	  2	  4	  0	  1	  1	0.47901	  0	0.90000	  0	 14	 44	 39	  1	
23-Apr-2013	sub2326	2326	  2	  0	 50	  6	  1	  5	  6	  4	  1	  1	  1	0.34031	  1	0.90000	  0	 15	 35	 36	  1	
23-Apr-2013	sub2326	2326	  2	  0	 51	  6	  1	  6	  4	  3	  1	  1	  0	0.10767	  0	0.90000	  0	 16	 45	 46	  1	
23-Apr-2013	sub2326	2326	  2	  0	 52	  6	  1	  1	  5	  3	  1	  2	  0	0.04928	  0	0.90000	  0	 11	 40	 41	  1	
23-Apr-2013	sub2326	2326	  2	  0	 53	  6	  1	  3	  1	  1	  1	  1	  1	0.32560	  1	0.90000	  0	 13	 32	 33	  1	
23-Apr-2013	sub2326	2326	  2	  0	 54	  6	  1	  3	  1	  1	  0	  1	  0	0.30670	  1	0.90000	  0	 13	 34	 49	  1	
23-Apr-2013	sub2326	2326	  2	  0	 55	  6	  1	  2	  3	  6	  1	  2	  1	0.31034	  1	0.90000	  0	 12	 30	 31	  1	
23-Apr-2013	sub2326	2326	  2	  0	 56	  6	  1	  5	  6	  4	  1	  2	  0	0.18592	  0	0.90000	  0	 15	 45	 46	  1	
23-Apr-2013	sub2326	2326	  2	  0	 57	  6	  1	  2	  3	  6	  1	  1	  0	0.00092	  0	0.90000	  0	 12	 40	 41	  1	
23-Apr-2013	sub2326	2326	  2	  0	 58	  6	  1	  3	  1	  1	  0	  1	  0	1.67722	  1	0.90000	  1	 13	 34	 51	  0	
23-Apr-2013	sub2326	2326	  2	  0	 59	  6	  1	  6	  4	  3	  0	  1	  1	0.32366	  0	0.90000	  0	 16	 47	 38	  1	
23-Apr-2013	sub2326	2326	  2	  0	 60	  6	  1	  6	  4	  3	  0	  2	  0	0.05947	  1	0.90000	  0	 16	 37	 48	  1	
23-Apr-2013	sub2326	2326	  2	  0	 61	  6	  1	  5	  6	  4	  0	  1	  0	0.27766	  1	0.90000	  0	 15	 37	 48	  1	
23-Apr-2013	sub2326	2326	  2	  0	 62	  6	  1	  2	  3	  6	  1	  2	  1	0.00009	  1	0.90000	  0	 12	 30	 31	  1	
23-Apr-2013	sub2326	2326	  2	  0	 63	  6	  1	  5	  6	  4	  1	  1	  1	0.19557	  1	0.90000	  0	 15	 35	 36	  1	
23-Apr-2013	sub2326	2326	  2	  0	 64	  6	  1	  3	  1	  1	  1	  2	  0	0.08399	  0	0.90000	  0	 13	 42	 43	  1	
23-Apr-2013	sub2326	2326	  2	  0	 65	  6	  1	  1	  5	  3	  1	  1	  1	0.20638	  1	0.90000	  0	 11	 30	 31	  1	
23-Apr-2013	sub2326	2326	  2	  0	 66	  6	  1	  2	  3	  6	  1	  1	  0	0.30480	  0	0.90000	  0	 12	 40	 41	  1	
23-Apr-2013	sub2326	2326	  2	  0	 67	  6	  1	  6	  4	  3	  1	  1	  0	0.25565	  0	0.90000	  0	 16	 45	 46	  1	
23-Apr-2013	sub2326	2326	  2	  0	 68	  6	  1	  5	  6	  4	  1	  2	  0	0.17063	  0	0.90000	  0	 15	 45	 46	  1	
23-Apr-2013	sub2326	2326	  2	  0	 69	  6	  1	  2	  3	  6	  1	  1	  0	0.25526	  0	0.90000	  0	 12	 40	 41	  1	
23-Apr-2013	sub2326	2326	  2	  0	 70	  6	  1	  5	  6	  4	  1	  2	  0	0.21093	  0	0.90000	  0	 15	 45	 46	  1	
23-Apr-2013	sub2326	2326	  2	  0	 71	  6	  1	  4	  2	  4	  1	  1	  0	0.00096	  0	0.90000	  0	 14	 42	 43	  1	
23-Apr-2013	sub2326	2326	  2	  0	 72	  6	  1	  3	  1	  1	  1	  1	  1	2.12594	  1	0.90000	  1	 13	 32	 51	  0	
23-Apr-2013	sub2326	2326	  2	  0	 73	  6	  1	  6	  4	  3	  0	  1	  1	0.30508	  0	0.90000	  0	 16	 47	 38	  1	
23-Apr-2013	sub2326	2326	  2	  0	 74	  6	  1	  4	  2	  4	  1	  1	  0	0.23385	  0	0.90000	  0	 14	 42	 43	  1	
23-Apr-2013	sub2326	2326	  2	  0	 75	  6	  1	  3	  1	  1	  1	  2	  0	0.19823	  0	0.90000	  0	 13	 42	 43	  1	
23-Apr-2013	sub2326	2326	  2	  0	 76	  6	  2	  4	  2	  4	  1	  1	  0	0.26721	  0	0.90000	  0	 24	 82	 83	  1	
23-Apr-2013	sub2326	2326	  2	  0	 77	  6	  2	  2	  3	  6	  1	  2	  1	0.10990	  1	0.90000	  0	 22	 60	 61	  1	
23-Apr-2013	sub2326	2326	  2	  0	 78	  6	  2	  3	  1	  1	  1	  2	  0	0.36298	  0	0.90000	  0	 23	 82	 83	  1	
23-Apr-2013	sub2326	2326	  2	  0	 79	  6	  2	  2	  3	  6	  1	  1	  0	0.34520	  0	0.90000	  0	 22	 80	 81	  1	
23-Apr-2013	sub2326	2326	  2	  0	 80	  6	  2	  5	  6	  4	  0	  1	  0	0.35795	  1	0.90000	  0	 25	 67	 88	  1	
23-Apr-2013	sub2326	2326	  2	  0	 81	  6	  2	  1	  5	  3	  1	  1	  1	0.34406	  1	0.90000	  0	 21	 60	 61	  1	
23-Apr-2013	sub2326	2326	  2	  0	 82	  6	  2	  4	  2	  4	  0	  2	  0	0.29331	  1	0.90000	  0	 24	 64	 89	  1	
23-Apr-2013	sub2326	2326	  2	  0	 83	  6	  2	  3	  1	  1	  1	  2	  0	0.08644	  0	0.90000	  0	 23	 82	 83	  1	
23-Apr-2013	sub2326	2326	  2	  0	 84	  6	  2	  2	  3	  6	  1	  1	  0	0.21926	  0	0.90000	  0	 22	 80	 81	  1	
23-Apr-2013	sub2326	2326	  2	  0	 85	  6	  2	  4	  2	  4	  1	  2	  1	0.22770	  1	0.90000	  0	 24	 62	 63	  1	
23-Apr-2013	sub2326	2326	  2	  0	 86	  6	  2	  2	  3	  6	  1	  2	  1	0.24992	  1	0.90000	  0	 22	 60	 61	  1	
23-Apr-2013	sub2326	2326	  2	  0	 87	  6	  2	  6	  4	  3	  0	  2	  0	0.37134	  1	0.80000	  0	 26	 67	 88	  1	
23-Apr-2013	sub2326	2326	  2	  0	 88	  6	  2	  3	  1	  1	  1	  1	  1	0.08005	  1	0.80000	  0	 23	 62	 63	  1	
23-Apr-2013	sub2326	2326	  2	  0	 89	  6	  2	  3	  1	  1	  1	  1	  1	0.47286	  1	0.80000	  0	 23	 62	 63	  1	
23-Apr-2013	sub2326	2326	  2	  0	 90	  6	  2	  5	  6	  4	  0	  2	  1	0.26179	  0	0.80000	  0	 25	 87	 68	  1	
23-Apr-2013	sub2326	2326	  2	  0	 91	  6	  2	  6	  4	  3	  0	  1	  1	0.41456	  0	0.80000	  0	 26	 87	 68	  1	
23-Apr-2013	sub2326	2326	  2	  0	 92	  6	  2	  6	  4	  3	  0	  2	  0	0.42704	  1	0.80000	  0	 26	 67	 88	  1	
23-Apr-2013	sub2326	2326	  2	  0	 93	  6	  2	  5	  6	  4	  0	  1	  0	0.15443	  1	0.80000	  0	 25	 67	 88	  1	
23-Apr-2013	sub2326	2326	  2	  0	 94	  6	  2	  2	  3	  6	  1	  2	  1	0.16389	  1	0.80000	  0	 22	 60	 61	  1	
23-Apr-2013	sub2326	2326	  2	  0	 95	  6	  2	  1	  5	  3	  1	  1	  1	0.36629	  1	0.80000	  0	 21	 60	 61	  1	
23-Apr-2013	sub2326	2326	  2	  0	 96	  6	  2	  5	  6	  4	  0	  2	  1	0.39442	  0	0.80000	  0	 25	 87	 68	  1	
23-Apr-2013	sub2326	2326	  2	  0	 97	  6	  2	  5	  6	  4	  0	  1	  0	0.24843	  1	0.80000	  0	 25	 67	 88	  1	
23-Apr-2013	sub2326	2326	  2	  0	 98	  6	  2	  5	  6	  4	  0	  2	  1	0.34020	  0	0.80000	  0	 25	 87	 68	  1	
23-Apr-2013	sub2326	2326	  2	  0	 99	  6	  2	  6	  4	  3	  1	  1	  0	0.41381	  0	0.80000	  0	 26	 85	 86	  1	
23-Apr-2013	sub2326	2326	  2	  0	100	  6	  2	  3	  1	  1	  1	  2	  0	0.32938	  0	0.80000	  0	 23	 82	 83	  1	
23-Apr-2013	sub2326	2326	  2	  0	101	  6	  2	  4	  2	  4	  1	  1	  0	0.13009	  0	0.70000	  0	 24	 82	 83	  1	
23-Apr-2013	sub2326	2326	  2	  0	102	  6	  2	  1	  5	  3	  1	  2	  0	0.12692	  0	0.70000	  0	 21	 80	 81	  1	
23-Apr-2013	sub2326	2326	  2	  0	103	  6	  2	  1	  5	  3	  1	  1	  1	0.15976	  1	0.70000	  0	 21	 60	 61	  1	
23-Apr-2013	sub2326	2326	  2	  0	104	  6	  2	  4	  2	  4	  1	  2	  1	0.20762	  1	0.70000	  0	 24	 62	 63	  1	
23-Apr-2013	sub2326	2326	  2	  0	105	  6	  2	  2	  3	  6	  1	  1	  0	0.25905	  0	0.70000	  0	 22	 80	 81	  1	
23-Apr-2013	sub2326	2326	  2	  0	106	  6	  2	  2	  3	  6	  1	  2	  1	0.16028	  1	0.70000	  0	 22	 60	 61	  1	
23-Apr-2013	sub2326	2326	  2	  0	107	  6	  2	  3	  1	  1	  1	  1	  1	0.15400	  1	0.70000	  0	 23	 62	 63	  1	
23-Apr-2013	sub2326	2326	  2	  0	108	  6	  2	  4	  2	  4	  0	  1	  1	0.26586	  0	0.70000	  0	 24	 84	 69	  1	
23-Apr-2013	sub2326	2326	  2	  0	109	  6	  2	  5	  6	  4	  0	  2	  1	0.19517	  0	0.70000	  0	 25	 87	 68	  1	
23-Apr-2013	sub2326	2326	  2	  0	110	  6	  2	  4	  2	  4	  1	  1	  0	0.18175	  0	0.70000	  0	 24	 82	 83	  1	
23-Apr-2013	sub2326	2326	  2	  0	111	  6	  2	  3	  1	  1	  1	  2	  0	0.09527	  0	0.70000	  0	 23	 82	 83	  1	
23-Apr-2013	sub2326	2326	  2	  0	112	  6	  2	  4	  2	  4	  1	  1	  0	1.87829	  0	0.70000	  1	 24	 82	 51	  0	
23-Apr-2013	sub2326	2326	  2	  0	113	  6	  2	  4	  2	  4	  1	  1	  0	0.19423	  0	0.80000	  0	 24	 82	 83	  1	
23-Apr-2013	sub2326	2326	  2	  0	114	  6	  2	  1	  5	  3	  1	  2	  0	0.04987	  0	0.80000	  0	 21	 80	 81	  1	
23-Apr-2013	sub2326	2326	  2	  0	115	  6	  2	  4	  2	  4	  1	  1	  0	0.14336	  0	0.80000	  0	 24	 82	 83	  1	
23-Apr-2013	sub2326	2326	  2	  0	116	  6	  2	  1	  5	  3	  1	  1	  1	1.85746	  1	0.80000	  1	 21	 60	 51	  0	
23-Apr-2013	sub2326	2326	  2	  0	117	  6	  2	  3	  1	  1	  0	  2	  1	0.34300	  0	0.80000	  0	 23	 84	 69	  1	
23-Apr-2013	sub2326	2326	  2	  0	118	  6	  2	  2	  3	  6	  1	  2	  1	0.26569	  1	0.80000	  0	 22	 60	 61	  1	
23-Apr-2013	sub2326	2326	  2	  0	119	  6	  2	  2	  3	  6	  1	  2	  1	0.20331	  1	0.80000	  0	 22	 60	 61	  1	
23-Apr-2013	sub2326	2326	  2	  0	120	  6	  2	  5	  6	  4	  0	  2	  1	1.18603	  0	0.80000	  1	 25	 87	 51	  0	
23-Apr-2013	sub2326	2326	  2	  0	121	  6	  2	  1	  5	  3	  1	  1	  1	0.37277	  1	0.90000	  0	 21	 60	 61	  1	
23-Apr-2013	sub2326	2326	  2	  0	122	  6	  2	  5	  6	  4	  0	  2	  1	0.10118	  0	0.90000	  0	 25	 87	 68	  1	
23-Apr-2013	sub2326	2326	  2	  0	123	  6	  2	  1	  5	  3	  1	  1	  1	0.11503	  1	0.90000	  0	 21	 60	 61	  1	
23-Apr-2013	sub2326	2326	  2	  0	124	  6	  2	  1	  5	  3	  1	  2	  0	0.10541	  0	0.90000	  0	 21	 80	 81	  1	
23-Apr-2013	sub2326	2326	  2	  0	125	  6	  2	  6	  4	  3	  1	  1	  0	0.23777	  0	0.90000	  0	 26	 85	 86	  1	
23-Apr-2013	sub2326	2326	  2	  0	126	  6	  2	  1	  5	  3	  1	  2	  0	0.04708	  0	0.90000	  0	 21	 80	 81	  1	
23-Apr-2013	sub2326	2326	  2	  0	127	  6	  2	  2	  3	  6	  1	  1	  0	0.40878	  0	0.90000	  0	 22	 80	 81	  1	
23-Apr-2013	sub2326	2326	  2	  0	128	  6	  2	  3	  1	  1	  0	  2	  1	0.25742	  0	0.90000	  0	 23	 84	 69	  1	
23-Apr-2013	sub2326	2326	  2	  0	129	  6	  2	  6	  4	  3	  1	  1	  0	0.22953	  0	0.90000	  0	 26	 85	 86	  1	
23-Apr-2013	sub2326	2326	  2	  0	130	  6	  2	  2	  3	  6	  1	  1	  0	0.15520	  0	0.80000	  0	 22	 80	 81	  1	
23-Apr-2013	sub2326	2326	  2	  0	131	  6	  2	  5	  6	  4	  0	  2	  1	0.10435	  0	0.80000	  0	 25	 87	 68	  1	
23-Apr-2013	sub2326	2326	  2	  0	132	  6	  2	  6	  4	  3	  1	  2	  1	0.16315	  1	0.80000	  0	 26	 65	 66	  1	
23-Apr-2013	sub2326	2326	  2	  0	133	  6	  2	  6	  4	  3	  0	  2	  0	0.28333	  1	0.80000	  0	 26	 67	 88	  1	
23-Apr-2013	sub2326	2326	  2	  0	134	  6	  2	  6	  4	  3	  0	  2	  0	0.21416	  1	0.80000	  0	 26	 67	 88	  1	
23-Apr-2013	sub2326	2326	  2	  0	135	  6	  2	  1	  5	  3	  1	  2	  0	0.28779	  0	0.80000	  0	 21	 80	 81	  1	
23-Apr-2013	sub2326	2326	  2	  0	136	  6	  2	  6	  4	  3	  1	  2	  1	0.12926	  1	0.80000	  0	 26	 65	 66	  1	
23-Apr-2013	sub2326	2326	  2	  0	137	  6	  2	  5	  6	  4	  0	  2	  1	0.14013	  0	0.80000	  0	 25	 87	 68	  1	
23-Apr-2013	sub2326	2326	  2	  0	138	  6	  2	  1	  5	  3	  1	  2	  0	0.17389	  0	0.80000	  0	 21	 80	 81	  1	
23-Apr-2013	sub2326	2326	  2	  0	139	  6	  2	  5	  6	  4	  0	  1	  0	0.22119	  1	0.80000	  0	 25	 67	 88	  1	
23-Apr-2013	sub2326	2326	  2	  0	140	  6	  2	  3	  1	  1	  1	  2	  0	0.04971	  0	0.80000	  0	 23	 82	 83	  1	
23-Apr-2013	sub2326	2326	  2	  0	141	  6	  2	  1	  5	  3	  1	  1	  1	0.10322	  1	0.80000	  0	 21	 60	 61	  1	
23-Apr-2013	sub2326	2326	  2	  0	142	  6	  2	  6	  4	  3	  1	  2	  1	0.00017	  1	0.80000	  0	 26	 65	 66	  1	
23-Apr-2013	sub2326	2326	  2	  0	143	  6	  2	  2	  3	  6	  1	  1	  0	0.37441	  0	0.80000	  0	 22	 80	 81	  1	
23-Apr-2013	sub2326	2326	  2	  0	144	  6	  2	  3	  1	  1	  1	  1	  1	0.26972	  1	0.80000	  0	 23	 62	 63	  1	
23-Apr-2013	sub2326	2326	  2	  0	145	  6	  2	  4	  2	  4	  0	  2	  0	0.09406	  1	0.80000	  0	 24	 64	 89	  1	
23-Apr-2013	sub2326	2326	  2	  0	146	  6	  2	  4	  2	  4	  1	  1	  0	2.15956	  0	0.80000	  1	 24	 82	 51	  0	
23-Apr-2013	sub2326	2326	  2	  0	147	  6	  2	  6	  4	  3	  0	  1	  1	0.35169	  0	0.80000	  0	 26	 87	 68	  1	
23-Apr-2013	sub2326	2326	  2	  0	148	  6	  2	  4	  2	  4	  1	  2	  1	0.20260	  1	0.80000	  0	 24	 62	 63	  1	
23-Apr-2013	sub2326	2326	  2	  0	149	  6	  2	  5	  6	  4	  0	  1	  0	0.26488	  1	0.80000	  0	 25	 67	 88	  1	
23-Apr-2013	sub2326	2326	  2	  0	150	  6	  2	  3	  1	  1	  1	  1	  1	0.33744	  1	0.80000	  0	 23	 62	 63	  1	
