Date 	 Name 	 ID 	 Gender 	 Appearance 	 Trial 	 Block 	 Bin 	 Condition 	 Category 	 Number 	 Valid 	 Keypress 	 Correct 	 RT 	 Realcorrect 	 Deadline 	 Timeout 	 Stimtrigger 	 Resptrigger 	 Fedtrigger 	 WithinTime 	 
23-Apr-13	sub2327	2327	2	1	1	1	1	6	1	2	1	1	0	0.86542	0	0.6	1	16	45	51	0	
23-Apr-13	sub2327	2327	2	1	2	1	1	3	3	6	1	1	1	0.61654	1	0.9	0	13	32	33	0	
23-Apr-13	sub2327	2327	2	1	3	1	1	2	6	1	1	2	1	0.5402	1	0.9	0	12	30	31	0	
23-Apr-13	sub2327	2327	2	1	4	1	1	6	1	2	0	1	1	0.47561	0	0.9	0	16	47	38	1	
23-Apr-13	sub2327	2327	2	1	5	1	1	2	6	1	1	1	0	0.36023	0	0.9	0	12	40	41	1	
23-Apr-13	sub2327	2327	2	1	6	1	1	6	1	2	0	1	1	0.51309	0	0.9	0	16	47	38	0	
23-Apr-13	sub2327	2327	2	1	7	1	1	3	3	6	1	2	0	0.63028	0	0.9	0	13	42	43	0	
23-Apr-13	sub2327	2327	2	1	8	1	1	6	1	2	1	1	0	0.56463	0	0.9	0	16	45	46	0	
23-Apr-13	sub2327	2327	2	1	9	1	1	5	5	5	1	1	1	0.45934	1	0.9	0	15	35	36	1	
23-Apr-13	sub2327	2327	2	1	10	1	1	1	4	5	1	1	1	0.54621	1	0.9	0	11	30	31	0	
23-Apr-13	sub2327	2327	2	1	11	1	1	1	4	5	1	1	1	0.42825	1	0.9	0	11	30	31	1	
23-Apr-13	sub2327	2327	2	1	12	1	1	4	2	2	1	1	0	0.40665	0	0.9	0	14	42	43	1	
23-Apr-13	sub2327	2327	2	1	13	1	1	3	3	6	0	1	0	0.44349	1	0.9	0	13	34	49	1	
23-Apr-13	sub2327	2327	2	1	14	1	1	6	1	2	0	1	1	0.44165	0	0.9	0	16	47	38	1	
23-Apr-13	sub2327	2327	2	1	15	1	1	4	2	2	1	1	0	0.41756	0	0.9	0	14	42	43	1	
23-Apr-13	sub2327	2327	2	1	16	1	1	4	2	2	1	1	0	0.43368	0	0.8	0	14	42	43	1	
23-Apr-13	sub2327	2327	2	1	17	1	1	2	6	1	1	1	0	0.52922	0	0.8	0	12	40	41	0	
23-Apr-13	sub2327	2327	2	1	18	1	1	3	3	6	1	2	0	0.68551	0	0.7	0	13	42	43	0	
23-Apr-13	sub2327	2327	2	1	19	1	1	2	6	1	1	2	1	0.3266	1	0.7	0	12	30	31	1	
23-Apr-13	sub2327	2327	2	1	20	1	1	4	2	2	1	2	1	0.45009	1	0.7	0	14	32	33	1	
23-Apr-13	sub2327	2327	2	1	21	1	1	6	1	2	0	1	1	0.48523	0	0.6	0	16	47	38	1	
23-Apr-13	sub2327	2327	2	1	22	1	1	1	4	5	1	2	0	0.50893	0	0.6	0	11	40	41	0	
23-Apr-13	sub2327	2327	2	1	23	1	1	2	6	1	1	1	0	0.24233	0	0.6	0	12	40	41	1	
23-Apr-13	sub2327	2327	2	1	24	1	1	3	3	6	1	1	1	0.40888	1	0.6	0	13	32	33	1	
23-Apr-13	sub2327	2327	2	1	25	1	1	5	5	5	0	1	0	0.54513	1	0.6	0	15	37	48	0	
23-Apr-13	sub2327	2327	2	1	26	1	1	4	2	2	1	1	0	0.2934	0	0.5	0	14	42	43	1	
23-Apr-13	sub2327	2327	2	1	27	1	1	3	3	6	0	2	1	0.54991	0	0.5	1	13	44	51	0	
23-Apr-13	sub2327	2327	2	1	28	1	1	2	6	1	1	2	1	0.5597	1	0.9	0	12	30	31	0	
23-Apr-13	sub2327	2327	2	1	29	1	1	5	5	5	1	2	0	0.42855	0	0.9	0	15	45	46	1	
23-Apr-13	sub2327	2327	2	1	30	1	1	2	6	1	1	2	1	0.49646	1	0.8	0	12	30	31	1	
23-Apr-13	sub2327	2327	2	1	31	1	1	4	2	2	0	2	0	0.45871	1	0.8	0	14	34	49	1	
23-Apr-13	sub2327	2327	2	1	32	1	1	1	4	5	1	2	0	0.32951	0	0.8	0	11	40	41	1	
23-Apr-13	sub2327	2327	2	1	33	1	1	4	2	2	1	2	1	0.43009	1	0.8	0	14	32	33	1	
23-Apr-13	sub2327	2327	2	1	34	1	1	3	3	6	1	1	1	0.51991	1	0.8	0	13	32	33	0	
23-Apr-13	sub2327	2327	2	1	35	1	1	6	1	2	1	1	0	0.4926	0	0.7	0	16	45	46	1	
23-Apr-13	sub2327	2327	2	1	36	1	1	3	3	6	1	1	1	0.50532	1	0.7	0	13	32	33	0	
23-Apr-13	sub2327	2327	2	1	37	1	1	1	4	5	1	1	1	0.38699	1	0.7	0	11	30	31	1	
23-Apr-13	sub2327	2327	2	1	38	1	1	6	1	2	0	1	1	0.37288	0	0.7	0	16	47	38	1	
23-Apr-13	sub2327	2327	2	1	39	1	1	6	1	2	0	1	1	0.42933	0	0.7	0	16	47	38	1	
23-Apr-13	sub2327	2327	2	1	40	1	1	1	4	5	1	2	0	0.37429	0	0.7	0	11	40	41	1	
23-Apr-13	sub2327	2327	2	1	41	1	1	5	5	5	1	2	0	0.59192	0	0.6	0	15	45	46	0	
23-Apr-13	sub2327	2327	2	1	42	1	1	5	5	5	0	2	1	0.43272	0	0.6	0	15	47	38	1	
23-Apr-13	sub2327	2327	2	1	43	1	1	5	5	5	0	2	1	0.7355	0	0.6	1	15	47	51	0	
23-Apr-13	sub2327	2327	2	1	44	1	1	1	4	5	1	2	0	0.37516	0	0.8	0	11	40	41	1	
23-Apr-13	sub2327	2327	2	1	45	1	1	3	3	6	1	1	1	0.48829	1	0.8	0	13	32	33	1	
23-Apr-13	sub2327	2327	2	1	46	1	1	5	5	5	1	2	0	0.50169	0	0.8	0	15	45	46	0	
23-Apr-13	sub2327	2327	2	1	47	1	1	6	1	2	0	1	1	0.42088	0	0.8	0	16	47	38	1	
23-Apr-13	sub2327	2327	2	1	48	1	1	2	6	1	1	2	1	0.57667	1	0.8	0	12	30	31	0	
23-Apr-13	sub2327	2327	2	1	49	1	1	3	3	6	1	1	1	0.53549	1	0.8	0	13	32	33	0	
23-Apr-13	sub2327	2327	2	1	50	1	1	5	5	5	1	2	0	0.49214	0	0.8	0	15	45	46	1	
23-Apr-13	sub2327	2327	2	1	51	1	1	3	3	6	0	1	0	0.42714	1	0.7	0	13	34	49	1	
23-Apr-13	sub2327	2327	2	1	52	1	1	5	5	5	0	1	0	0.42411	1	0.7	0	15	37	48	1	
23-Apr-13	sub2327	2327	2	1	53	1	1	4	2	2	1	2	1	0.57181	1	0.7	0	14	32	33	0	
23-Apr-13	sub2327	2327	2	1	54	1	1	1	4	5	1	1	1	0.47216	1	0.7	0	11	30	31	1	
23-Apr-13	sub2327	2327	2	1	55	1	1	1	4	5	1	1	1	0.38073	1	0.7	0	11	30	31	1	
23-Apr-13	sub2327	2327	2	1	56	1	1	2	6	1	1	2	1	0.49238	1	0.7	0	12	30	31	1	
23-Apr-13	sub2327	2327	2	1	57	1	1	4	2	2	0	1	1	0.33851	0	0.7	0	14	44	39	1	
23-Apr-13	sub2327	2327	2	1	58	1	1	5	5	5	1	1	1	0.47316	1	0.7	0	15	35	36	1	
23-Apr-13	sub2327	2327	2	1	59	1	1	3	3	6	1	1	1	0.4207	1	0.7	0	13	32	33	1	
23-Apr-13	sub2327	2327	2	1	60	1	1	2	6	1	1	2	1	0.49266	1	0.7	0	12	30	31	1	
23-Apr-13	sub2327	2327	2	1	61	1	1	2	6	1	1	2	1	0.38726	1	0.6	0	12	30	31	1	
23-Apr-13	sub2327	2327	2	1	62	1	1	6	1	2	0	1	1	0.44508	0	0.6	0	16	47	38	1	
23-Apr-13	sub2327	2327	2	1	63	1	1	6	1	2	1	1	0	0.42799	0	0.6	0	16	45	46	1	
23-Apr-13	sub2327	2327	2	1	64	1	1	4	2	2	1	1	0	0.41857	0	0.6	0	14	42	43	1	
23-Apr-13	sub2327	2327	2	1	65	1	1	5	5	5	1	1	1	0.41032	1	0.6	0	15	35	36	1	
23-Apr-13	sub2327	2327	2	1	66	1	1	2	6	1	1	2	1	0.43401	1	0.6	0	12	30	31	1	
23-Apr-13	sub2327	2327	2	1	67	1	1	1	4	5	1	1	1	0.59715	1	0.6	0	11	30	31	0	
23-Apr-13	sub2327	2327	2	1	68	1	1	2	6	1	1	2	1	0.45702	1	0.6	0	12	30	31	1	
23-Apr-13	sub2327	2327	2	1	69	1	1	4	2	2	1	1	0	0.47443	0	0.6	0	14	42	43	1	
23-Apr-13	sub2327	2327	2	1	70	1	1	5	5	5	0	1	0	0.45954	1	0.6	0	15	37	48	1	
23-Apr-13	sub2327	2327	2	1	71	1	1	1	4	5	1	1	1	0.34731	1	0.6	0	11	30	31	1	
23-Apr-13	sub2327	2327	2	1	72	1	1	1	4	5	1	1	1	0.48213	1	0.6	0	11	30	31	1	
23-Apr-13	sub2327	2327	2	1	73	1	1	6	1	2	1	1	0	0.42151	0	0.6	0	16	45	46	1	
23-Apr-13	sub2327	2327	2	1	74	1	1	4	2	2	1	1	0	0.48088	0	0.6	0	14	42	43	1	
23-Apr-13	sub2327	2327	2	1	75	1	1	3	3	6	1	1	1	0.45335	1	0.6	0	13	32	33	1	
23-Apr-13	sub2327	2327	2	1	1	2	1	5	3	3	1	1	1	0.3543	1	0.6	0	15	35	36	1	
23-Apr-13	sub2327	2327	2	1	2	2	1	5	3	3	1	1	1	0.38099	1	0.3	1	15	35	51	1	
23-Apr-13	sub2327	2327	2	1	3	2	1	1	1	4	1	1	1	0.30402	1	0.9	0	11	30	31	1	
23-Apr-13	sub2327	2327	2	1	4	2	1	6	6	5	1	1	0	0.38111	0	0.9	0	16	45	46	1	
23-Apr-13	sub2327	2327	2	1	5	2	1	5	3	3	0	1	0	0.48475	1	0.9	0	15	37	48	1	
23-Apr-13	sub2327	2327	2	1	6	2	1	6	6	5	0	1	1	0.37174	0	0.9	0	16	47	38	1	
23-Apr-13	sub2327	2327	2	1	7	2	1	5	3	3	0	1	0	0.42139	1	0.9	0	15	37	48	1	
23-Apr-13	sub2327	2327	2	1	8	2	1	6	6	5	0	1	1	0.50487	0	0.9	0	16	47	38	0	
23-Apr-13	sub2327	2327	2	1	9	2	1	6	6	5	0	1	1	0.37364	0	0.9	0	16	47	38	1	
23-Apr-13	sub2327	2327	2	1	10	2	1	3	4	3	1	1	1	0.39891	1	0.9	0	13	32	33	1	
23-Apr-13	sub2327	2327	2	1	11	2	1	4	2	4	1	1	0	0.48288	0	0.9	0	14	42	43	1	
23-Apr-13	sub2327	2327	2	1	12	2	1	2	5	3	1	1	0	0.48773	0	0.9	0	12	40	41	1	
23-Apr-13	sub2327	2327	2	1	13	2	1	4	2	4	1	1	0	0.33787	0	0.9	0	14	42	43	1	
23-Apr-13	sub2327	2327	2	1	14	2	1	1	1	4	1	1	1	0.3668	1	0.9	0	11	30	31	1	
23-Apr-13	sub2327	2327	2	1	15	2	1	6	6	5	1	2	1	0.39661	1	0.9	0	16	35	36	1	
23-Apr-13	sub2327	2327	2	1	16	2	1	6	6	5	0	2	0	0.5255	1	0.8	0	16	37	48	0	
23-Apr-13	sub2327	2327	2	1	17	2	1	1	1	4	1	1	1	0.47603	1	0.8	0	11	30	31	1	
23-Apr-13	sub2327	2327	2	1	18	2	1	6	6	5	1	1	0	0.44844	0	0.7	0	16	45	46	1	
23-Apr-13	sub2327	2327	2	1	19	2	1	6	6	5	1	1	0	0.37405	0	0.7	0	16	45	46	1	
23-Apr-13	sub2327	2327	2	1	20	2	1	5	3	3	0	1	0	0.42424	1	0.7	0	15	37	48	1	
23-Apr-13	sub2327	2327	2	1	21	2	1	3	4	3	1	1	1	0.52649	1	0.6	0	13	32	33	0	
23-Apr-13	sub2327	2327	2	1	22	2	1	1	1	4	1	1	1	0.4968	1	0.6	0	11	30	31	1	
23-Apr-13	sub2327	2327	2	1	23	2	1	6	6	5	1	2	1	0.46516	1	0.6	0	16	35	36	1	
23-Apr-13	sub2327	2327	2	1	24	2	1	2	5	3	1	2	1	0.55503	1	0.6	0	12	30	31	0	
23-Apr-13	sub2327	2327	2	1	25	2	1	1	1	4	1	1	1	0.54613	1	0.6	0	11	30	31	0	
23-Apr-13	sub2327	2327	2	1	26	2	1	3	4	3	0	2	1	0.4849	0	0.5	0	13	44	39	1	
23-Apr-13	sub2327	2327	2	1	27	2	1	6	6	5	0	1	1	0.38589	0	0.5	0	16	47	38	1	
23-Apr-13	sub2327	2327	2	1	28	2	1	3	4	3	1	1	1	0.33761	1	0.5	0	13	32	33	1	
23-Apr-13	sub2327	2327	2	1	29	2	1	2	5	3	1	2	1	0.43454	1	0.5	0	12	30	31	1	
23-Apr-13	sub2327	2327	2	1	30	2	1	6	6	5	1	1	0	0.51388	0	0.5	1	16	45	51	0	
23-Apr-13	sub2327	2327	2	1	31	2	1	4	2	4	1	2	1	0.47568	1	0.8	0	14	32	33	1	
23-Apr-13	sub2327	2327	2	1	32	2	1	5	3	3	1	1	1	0.50854	1	0.8	0	15	35	36	0	
23-Apr-13	sub2327	2327	2	1	33	2	1	4	2	4	1	2	1	0.49648	1	0.8	0	14	32	33	1	
23-Apr-13	sub2327	2327	2	1	34	2	1	3	4	3	1	1	1	0.48176	1	0.8	0	13	32	33	1	
23-Apr-13	sub2327	2327	2	1	35	2	1	3	4	3	0	1	0	0.39947	1	0.7	0	13	34	49	1	
23-Apr-13	sub2327	2327	2	1	36	2	1	4	2	4	1	2	1	0.64048	1	0.7	0	14	32	33	0	
23-Apr-13	sub2327	2327	2	1	37	2	1	1	1	4	1	1	1	0.33889	1	0.7	0	11	30	31	1	
23-Apr-13	sub2327	2327	2	1	38	2	1	1	1	4	1	1	1	0.43121	1	0.7	0	11	30	31	1	
23-Apr-13	sub2327	2327	2	1	39	2	1	6	6	5	1	1	0	0.35725	0	0.7	0	16	45	46	1	
23-Apr-13	sub2327	2327	2	1	40	2	1	4	2	4	1	2	1	0.59689	1	0.7	0	14	32	33	0	
23-Apr-13	sub2327	2327	2	1	41	2	1	1	1	4	1	1	1	0.43272	1	0.6	0	11	30	31	1	
23-Apr-13	sub2327	2327	2	1	42	2	1	5	3	3	1	1	1	0.40873	1	0.6	0	15	35	36	1	
23-Apr-13	sub2327	2327	2	1	43	2	1	2	5	3	1	2	1	0.43047	1	0.6	0	12	30	31	1	
23-Apr-13	sub2327	2327	2	1	44	2	1	2	5	3	1	2	1	0.44149	1	0.6	0	12	30	31	1	
23-Apr-13	sub2327	2327	2	1	45	2	1	5	3	3	0	1	0	0.52914	1	0.6	0	15	37	48	0	
23-Apr-13	sub2327	2327	2	1	46	2	1	5	3	3	1	1	1	0.42495	1	0.6	0	15	35	36	1	
23-Apr-13	sub2327	2327	2	1	47	2	1	4	2	4	0	2	0	0.51017	1	0.6	0	14	34	49	0	
23-Apr-13	sub2327	2327	2	1	48	2	1	6	6	5	0	2	0	0.4875	1	0.6	0	16	37	48	1	
23-Apr-13	sub2327	2327	2	1	49	2	1	1	1	4	1	1	1	0.41258	1	0.6	0	11	30	31	1	
23-Apr-13	sub2327	2327	2	1	50	2	1	3	4	3	1	1	1	0.54967	1	0.6	0	13	32	33	0	
23-Apr-13	sub2327	2327	2	1	51	2	1	2	5	3	1	2	1	0.47042	1	0.5	0	12	30	31	1	
23-Apr-13	sub2327	2327	2	1	52	2	1	3	4	3	0	2	1	0.44771	0	0.5	0	13	44	39	1	
23-Apr-13	sub2327	2327	2	1	53	2	1	5	3	3	1	1	1	0.46498	1	0.5	0	15	35	36	1	
23-Apr-13	sub2327	2327	2	1	54	2	1	3	4	3	1	1	1	0.35798	1	0.5	0	13	32	33	1	
23-Apr-13	sub2327	2327	2	1	55	2	1	1	1	4	1	1	1	0.37155	1	0.5	0	11	30	31	1	
23-Apr-13	sub2327	2327	2	1	56	2	1	1	1	4	1	1	1	0.48766	1	0.5	0	11	30	31	1	
23-Apr-13	sub2327	2327	2	1	57	2	1	4	2	4	1	2	1	0.57992	1	0.5	1	14	32	51	0	
23-Apr-13	sub2327	2327	2	1	58	2	1	2	5	3	1	2	1	0.61196	1	0.7	0	12	30	31	0	
23-Apr-13	sub2327	2327	2	1	59	2	1	3	4	3	1	1	1	0.35908	1	0.7	0	13	32	33	1	
23-Apr-13	sub2327	2327	2	1	60	2	1	2	5	3	1	1	0	0.40471	0	0.7	0	12	40	41	1	
23-Apr-13	sub2327	2327	2	1	61	2	1	1	1	4	1	1	1	0.27187	1	0.6	0	11	30	31	1	
23-Apr-13	sub2327	2327	2	1	62	2	1	4	2	4	1	2	1	0.54074	1	0.6	0	14	32	33	0	
23-Apr-13	sub2327	2327	2	1	63	2	1	5	3	3	0	1	0	0.54446	1	0.6	0	15	37	48	0	
23-Apr-13	sub2327	2327	2	1	64	2	1	4	2	4	1	2	1	0.52014	1	0.6	0	14	32	33	0	
23-Apr-13	sub2327	2327	2	1	65	2	1	2	5	3	1	1	0	0.33075	0	0.6	0	12	40	41	1	
23-Apr-13	sub2327	2327	2	1	66	2	1	2	5	3	1	2	1	0.46856	1	0.6	0	12	30	31	1	
23-Apr-13	sub2327	2327	2	1	67	2	1	2	5	3	1	2	1	0.41615	1	0.6	0	12	30	31	1	
23-Apr-13	sub2327	2327	2	1	68	2	1	5	3	3	0	1	0	0.40449	1	0.6	0	15	37	48	1	
23-Apr-13	sub2327	2327	2	1	69	2	1	3	4	3	1	1	1	0.50454	1	0.6	0	13	32	33	0	
23-Apr-13	sub2327	2327	2	1	70	2	1	3	4	3	1	1	1	0.436	1	0.6	0	13	32	33	1	
23-Apr-13	sub2327	2327	2	1	71	2	1	3	4	3	1	1	1	0.41873	1	0.6	0	13	32	33	1	
23-Apr-13	sub2327	2327	2	1	72	2	1	2	5	3	1	1	0	0.40465	0	0.6	0	12	40	41	1	
23-Apr-13	sub2327	2327	2	1	73	2	1	2	5	3	1	2	1	0.46626	1	0.6	0	12	30	31	1	
23-Apr-13	sub2327	2327	2	1	74	2	1	4	2	4	0	1	1	0.48801	0	0.6	0	14	44	39	1	
23-Apr-13	sub2327	2327	2	1	75	2	1	4	2	4	1	2	1	0.60317	1	0.6	1	14	32	51	0	
23-Apr-13	sub2327	2327	2	1	76	2	2	1	1	4	1	1	1	0.48219	1	0.7	0	21	60	61	1	
23-Apr-13	sub2327	2327	2	1	77	2	2	2	5	3	1	2	1	0.48143	1	0.7	0	22	60	61	1	
23-Apr-13	sub2327	2327	2	1	78	2	2	6	6	5	1	1	0	0.36515	0	0.7	0	26	85	86	1	
23-Apr-13	sub2327	2327	2	1	79	2	2	2	5	3	1	2	1	0.59547	1	0.7	0	22	60	61	0	
23-Apr-13	sub2327	2327	2	1	80	2	2	4	2	4	1	2	1	0.46066	1	0.7	0	24	62	63	1	
23-Apr-13	sub2327	2327	2	1	81	2	2	4	2	4	1	2	1	0.50857	1	0.6	0	24	62	63	0	
23-Apr-13	sub2327	2327	2	1	82	2	2	2	5	3	1	1	0	0.38513	0	0.6	0	22	80	81	1	
23-Apr-13	sub2327	2327	2	1	83	2	2	5	3	3	0	1	0	0.44792	1	0.6	0	25	67	88	1	
23-Apr-13	sub2327	2327	2	1	84	2	2	2	5	3	1	1	0	0.36224	0	0.6	0	22	80	81	1	
23-Apr-13	sub2327	2327	2	1	85	2	2	1	1	4	1	1	1	0.40016	1	0.6	0	21	60	61	1	
23-Apr-13	sub2327	2327	2	1	86	2	2	1	1	4	1	1	1	0.49325	1	0.6	0	21	60	61	1	
23-Apr-13	sub2327	2327	2	1	87	2	2	6	6	5	0	1	1	0.35867	0	0.6	0	26	87	68	1	
23-Apr-13	sub2327	2327	2	1	88	2	2	1	1	4	1	1	1	0.4413	1	0.6	0	21	60	61	1	
23-Apr-13	sub2327	2327	2	1	89	2	2	6	6	5	1	1	0	0.34849	0	0.6	0	26	85	86	1	
23-Apr-13	sub2327	2327	2	1	90	2	2	6	6	5	0	1	1	0.41678	0	0.6	0	26	87	68	1	
23-Apr-13	sub2327	2327	2	1	91	2	2	5	3	3	0	1	0	0.36287	1	0.6	0	25	67	88	1	
23-Apr-13	sub2327	2327	2	1	92	2	2	6	6	5	0	1	1	0.49946	0	0.6	0	26	87	68	1	
23-Apr-13	sub2327	2327	2	1	93	2	2	5	3	3	0	1	0	0.44451	1	0.6	0	25	67	88	1	
23-Apr-13	sub2327	2327	2	1	94	2	2	6	6	5	1	1	0	0.39079	0	0.6	0	26	85	86	1	
23-Apr-13	sub2327	2327	2	1	95	2	2	1	1	4	1	1	1	0.40911	1	0.6	0	21	60	61	1	
23-Apr-13	sub2327	2327	2	1	96	2	2	3	4	3	1	1	1	0.35475	1	0.6	0	23	62	63	1	
23-Apr-13	sub2327	2327	2	1	97	2	2	2	5	3	1	2	1	0.47895	1	0.6	0	22	60	61	1	
23-Apr-13	sub2327	2327	2	1	98	2	2	3	4	3	1	1	1	0.48114	1	0.6	0	23	62	63	1	
23-Apr-13	sub2327	2327	2	1	99	2	2	4	2	4	1	2	1	0.49213	1	0.6	0	24	62	63	1	
23-Apr-13	sub2327	2327	2	1	100	2	2	5	3	3	0	1	0	0.49476	1	0.6	0	25	67	88	1	
23-Apr-13	sub2327	2327	2	1	101	2	2	5	3	3	0	1	0	0.48261	1	0.5	0	25	67	88	1	
23-Apr-13	sub2327	2327	2	1	102	2	2	5	3	3	0	2	1	0.52846	0	0.5	1	25	87	51	0	
23-Apr-13	sub2327	2327	2	1	103	2	2	5	3	3	0	2	1	0.53877	0	0.6	0	25	87	68	0	
23-Apr-13	sub2327	2327	2	1	104	2	2	1	1	4	1	1	1	0.48146	1	0.6	0	21	60	61	1	
23-Apr-13	sub2327	2327	2	1	105	2	2	6	6	5	0	1	1	0.46922	0	0.6	0	26	87	68	1	
23-Apr-13	sub2327	2327	2	1	106	2	2	4	2	4	1	2	1	0.57558	1	0.6	0	24	62	63	0	
23-Apr-13	sub2327	2327	2	1	107	2	2	3	4	3	0	1	0	0.47899	1	0.6	0	23	64	89	1	
23-Apr-13	sub2327	2327	2	1	108	2	2	3	4	3	0	1	0	0.5113	1	0.6	0	23	64	89	0	
23-Apr-13	sub2327	2327	2	1	109	2	2	3	4	3	1	2	0	0.54003	0	0.6	0	23	82	83	0	
23-Apr-13	sub2327	2327	2	1	110	2	2	6	6	5	1	1	0	0.53536	0	0.6	0	26	85	86	0	
23-Apr-13	sub2327	2327	2	1	111	2	2	2	5	3	1	2	1	0.4893	1	0.6	0	22	60	61	1	
23-Apr-13	sub2327	2327	2	1	112	2	2	4	2	4	0	2	0	0.47801	1	0.6	0	24	64	89	1	
23-Apr-13	sub2327	2327	2	1	113	2	2	6	6	5	0	1	1	0.48323	0	0.6	0	26	87	68	1	
23-Apr-13	sub2327	2327	2	1	114	2	2	3	4	3	1	1	1	0.41898	1	0.6	0	23	62	63	1	
23-Apr-13	sub2327	2327	2	1	115	2	2	4	2	4	1	2	1	0.54287	1	0.6	0	24	62	63	0	
23-Apr-13	sub2327	2327	2	1	116	2	2	4	2	4	1	2	1	0.46083	1	0.6	0	24	62	63	1	
23-Apr-13	sub2327	2327	2	1	117	2	2	4	2	4	0	2	0	0.39185	1	0.6	0	24	64	89	1	
23-Apr-13	sub2327	2327	2	1	118	2	2	1	1	4	1	1	1	0.46908	1	0.6	0	21	60	61	1	
23-Apr-13	sub2327	2327	2	1	119	2	2	1	1	4	1	1	1	0.42052	1	0.6	0	21	60	61	1	
23-Apr-13	sub2327	2327	2	1	120	2	2	5	3	3	0	2	1	0.58676	0	0.6	0	25	87	68	0	
23-Apr-13	sub2327	2327	2	1	121	2	2	2	5	3	1	1	0	0.6801	0	0.6	1	22	80	51	0	
23-Apr-13	sub2327	2327	2	1	122	2	2	5	3	3	0	1	0	0.52885	1	0.6	0	25	67	88	0	
23-Apr-13	sub2327	2327	2	1	123	2	2	4	2	4	0	2	0	0.49995	1	0.6	0	24	64	89	1	
23-Apr-13	sub2327	2327	2	1	124	2	2	1	1	4	1	1	1	0.45109	1	0.6	0	21	60	61	1	
23-Apr-13	sub2327	2327	2	1	125	2	2	3	4	3	1	1	1	0.5495	1	0.6	0	23	62	63	0	
23-Apr-13	sub2327	2327	2	1	126	2	2	2	5	3	1	2	1	0.48138	1	0.6	0	22	60	61	1	
23-Apr-13	sub2327	2327	2	1	127	2	2	5	3	3	0	2	1	0.38397	0	0.6	0	25	87	68	1	
23-Apr-13	sub2327	2327	2	1	128	2	2	1	1	4	1	1	1	0.43587	1	0.6	0	21	60	61	1	
23-Apr-13	sub2327	2327	2	1	129	2	2	3	4	3	1	1	1	0.53564	1	0.6	0	23	62	63	0	
23-Apr-13	sub2327	2327	2	1	130	2	2	5	3	3	0	1	0	0.46428	1	0.6	0	25	67	88	1	
23-Apr-13	sub2327	2327	2	1	131	2	2	3	4	3	1	1	1	0.53602	1	0.6	0	23	62	63	0	
23-Apr-13	sub2327	2327	2	1	132	2	2	5	3	3	0	2	1	0.63456	0	0.6	1	25	87	51	0	
23-Apr-13	sub2327	2327	2	1	133	2	2	1	1	4	1	1	1	0.32543	1	0.7	0	21	60	61	1	
23-Apr-13	sub2327	2327	2	1	134	2	2	1	1	4	1	2	0	0.35847	0	0.7	0	21	80	81	1	
23-Apr-13	sub2327	2327	2	1	135	2	2	3	4	3	1	1	1	0.58809	1	0.7	0	23	62	63	0	
23-Apr-13	sub2327	2327	2	1	136	2	2	4	2	4	1	2	1	0.46265	1	0.7	0	24	62	63	1	
23-Apr-13	sub2327	2327	2	1	137	2	2	3	4	3	1	1	1	0.69208	1	0.7	0	23	62	63	0	
23-Apr-13	sub2327	2327	2	1	138	2	2	6	6	5	1	1	0	0.50251	0	0.7	0	26	85	86	0	
23-Apr-13	sub2327	2327	2	1	139	2	2	2	5	3	1	2	1	0.50309	1	0.7	0	22	60	61	0	
23-Apr-13	sub2327	2327	2	1	140	2	2	1	1	4	1	1	1	0.38839	1	0.7	0	21	60	61	1	
23-Apr-13	sub2327	2327	2	1	141	2	2	2	5	3	1	1	0	0.42653	0	0.6	0	22	80	81	1	
23-Apr-13	sub2327	2327	2	1	142	2	2	6	6	5	0	1	1	0.44285	0	0.6	0	26	87	68	1	
23-Apr-13	sub2327	2327	2	1	143	2	2	4	2	4	1	2	1	0.48137	1	0.6	0	24	62	63	1	
23-Apr-13	sub2327	2327	2	1	144	2	2	4	2	4	1	2	1	0.4565	1	0.6	0	24	62	63	1	
23-Apr-13	sub2327	2327	2	1	145	2	2	3	4	3	1	2	0	0.45812	0	0.6	0	23	82	83	1	
23-Apr-13	sub2327	2327	2	1	146	2	2	5	3	3	0	1	0	0.5565	1	0.6	0	25	67	88	0	
23-Apr-13	sub2327	2327	2	1	147	2	2	2	5	3	1	2	1	0.54386	1	0.6	0	22	60	61	0	
23-Apr-13	sub2327	2327	2	1	148	2	2	4	2	4	1	2	1	0.47398	1	0.6	0	24	62	63	1	
23-Apr-13	sub2327	2327	2	1	149	2	2	6	6	5	1	1	0	0.60264	0	0.6	1	26	85	51	0	
23-Apr-13	sub2327	2327	2	1	150	2	2	2	5	3	1	2	1	0.58646	1	0.7	0	22	60	61	0	
23-Apr-13	sub2327	2327	2	1	1	3	1	1	1	6	1	1	1	0.35145	1	0.6	0	11	30	31	1	
23-Apr-13	sub2327	2327	2	1	2	3	1	6	6	3	1	1	0	0.31915	0	0.3	1	16	45	51	1	
23-Apr-13	sub2327	2327	2	1	3	3	1	6	6	3	1	1	0	0.32946	0	0.9	0	16	45	46	1	
23-Apr-13	sub2327	2327	2	1	4	3	1	4	2	6	1	1	0	0.30709	0	0.9	0	14	42	43	1	
23-Apr-13	sub2327	2327	2	1	5	3	1	2	5	2	1	1	0	0.38754	0	0.9	0	12	40	41	1	
23-Apr-13	sub2327	2327	2	1	6	3	1	2	5	2	1	1	0	0.28444	0	0.9	0	12	40	41	1	
23-Apr-13	sub2327	2327	2	1	7	3	1	1	1	6	1	1	1	0.28217	1	0.9	0	11	30	31	1	
23-Apr-13	sub2327	2327	2	1	8	3	1	4	2	6	1	2	1	0.46741	1	0.9	0	14	32	33	1	
23-Apr-13	sub2327	2327	2	1	9	3	1	6	6	3	1	2	1	0.37026	1	0.9	0	16	35	36	1	
23-Apr-13	sub2327	2327	2	1	10	3	1	5	4	2	1	1	1	0.45685	1	0.9	0	15	35	36	1	
23-Apr-13	sub2327	2327	2	1	11	3	1	2	5	2	1	1	0	0.64284	0	0.9	0	12	40	41	0	
23-Apr-13	sub2327	2327	2	1	12	3	1	3	3	1	1	1	1	0.56032	1	0.9	0	13	32	33	0	
23-Apr-13	sub2327	2327	2	1	13	3	1	6	6	3	0	2	0	0.45492	1	0.9	0	16	37	48	1	
23-Apr-13	sub2327	2327	2	1	14	3	1	2	5	2	1	1	0	0.53412	0	0.9	0	12	40	41	0	
23-Apr-13	sub2327	2327	2	1	15	3	1	3	3	1	1	1	1	0.5572	1	0.9	0	13	32	33	0	
23-Apr-13	sub2327	2327	2	1	16	3	1	4	2	6	0	2	0	0.43237	1	0.8	0	14	34	49	1	
23-Apr-13	sub2327	2327	2	1	17	3	1	6	6	3	0	2	0	0.40457	1	0.8	0	16	37	48	1	
23-Apr-13	sub2327	2327	2	1	18	3	1	1	1	6	1	1	1	0.48233	1	0.7	0	11	30	31	1	
23-Apr-13	sub2327	2327	2	1	19	3	1	2	5	2	1	2	1	0.49922	1	0.7	0	12	30	31	1	
23-Apr-13	sub2327	2327	2	1	20	3	1	6	6	3	0	2	0	0.54033	1	0.7	0	16	37	48	0	
23-Apr-13	sub2327	2327	2	1	21	3	1	1	1	6	1	1	1	0.51095	1	0.6	0	11	30	31	0	
23-Apr-13	sub2327	2327	2	1	22	3	1	3	3	1	1	1	1	0.54304	1	0.6	0	13	32	33	0	
23-Apr-13	sub2327	2327	2	1	23	3	1	2	5	2	1	2	1	0.50303	1	0.6	0	12	30	31	0	
23-Apr-13	sub2327	2327	2	1	24	3	1	2	5	2	1	2	1	0.40078	1	0.6	0	12	30	31	1	
23-Apr-13	sub2327	2327	2	1	25	3	1	3	3	1	0	2	1	0.30886	0	0.6	0	13	44	39	1	
23-Apr-13	sub2327	2327	2	1	26	3	1	6	6	3	0	1	1	0.46789	0	0.5	0	16	47	38	1	
23-Apr-13	sub2327	2327	2	1	27	3	1	4	2	6	1	2	1	0.57168	1	0.5	1	14	32	51	0	
23-Apr-13	sub2327	2327	2	1	28	3	1	3	3	1	1	1	1	0.52938	1	0.9	0	13	32	33	0	
23-Apr-13	sub2327	2327	2	1	29	3	1	3	3	1	1	1	1	0.41704	1	0.9	0	13	32	33	1	
23-Apr-13	sub2327	2327	2	1	30	3	1	4	2	6	1	2	1	0.44056	1	0.8	0	14	32	33	1	
23-Apr-13	sub2327	2327	2	1	31	3	1	6	6	3	1	1	0	0.39694	0	0.8	0	16	45	46	1	
23-Apr-13	sub2327	2327	2	1	32	3	1	5	4	2	0	2	1	0.46689	0	0.8	0	15	47	38	1	
23-Apr-13	sub2327	2327	2	1	33	3	1	2	5	2	1	2	1	0.58988	1	0.8	0	12	30	31	0	
23-Apr-13	sub2327	2327	2	1	34	3	1	6	6	3	0	1	1	0.45003	0	0.8	0	16	47	38	1	
23-Apr-13	sub2327	2327	2	1	35	3	1	3	3	1	1	1	1	0.38583	1	0.7	0	13	32	33	1	
23-Apr-13	sub2327	2327	2	1	36	3	1	5	4	2	0	2	1	0.43337	0	0.7	0	15	47	38	1	
23-Apr-13	sub2327	2327	2	1	37	3	1	1	1	6	1	2	0	0.40106	0	0.7	0	11	40	41	1	
23-Apr-13	sub2327	2327	2	1	38	3	1	2	5	2	1	2	1	0.45071	1	0.7	0	12	30	31	1	
23-Apr-13	sub2327	2327	2	1	39	3	1	3	3	1	0	1	0	0.46141	1	0.7	0	13	34	49	1	
23-Apr-13	sub2327	2327	2	1	40	3	1	3	3	1	1	1	1	0.45931	1	0.7	0	13	32	33	1	
23-Apr-13	sub2327	2327	2	1	41	3	1	5	4	2	0	2	1	0.58544	0	0.6	0	15	47	38	0	
23-Apr-13	sub2327	2327	2	1	42	3	1	4	2	6	1	2	1	0.51617	1	0.6	0	14	32	33	0	
23-Apr-13	sub2327	2327	2	1	43	3	1	3	3	1	0	1	0	0.50578	1	0.6	0	13	34	49	0	
23-Apr-13	sub2327	2327	2	1	44	3	1	5	4	2	1	2	0	0.50986	0	0.6	0	15	45	46	0	
23-Apr-13	sub2327	2327	2	1	45	3	1	3	3	1	1	1	1	0.48283	1	0.6	0	13	32	33	1	
23-Apr-13	sub2327	2327	2	1	46	3	1	5	4	2	0	2	1	0.50973	0	0.6	0	15	47	38	0	
23-Apr-13	sub2327	2327	2	1	47	3	1	5	4	2	1	2	0	0.4291	0	0.6	0	15	45	46	1	
23-Apr-13	sub2327	2327	2	1	48	3	1	2	5	2	1	2	1	0.52463	1	0.6	0	12	30	31	0	
23-Apr-13	sub2327	2327	2	1	49	3	1	5	4	2	1	2	0	0.35127	0	0.6	0	15	45	46	1	
23-Apr-13	sub2327	2327	2	1	50	3	1	5	4	2	1	2	0	0.41782	0	0.6	0	15	45	46	1	
23-Apr-13	sub2327	2327	2	1	51	3	1	1	1	6	1	1	1	0.57075	1	0.5	1	11	30	51	0	
23-Apr-13	sub2327	2327	2	1	52	3	1	4	2	6	1	1	0	40.15674	0	0.7	1	14	42	51	0	
23-Apr-13	sub2327	2327	2	1	53	3	1	5	4	2	0	1	0	154.47069	1	0.9	1	15	37	51	0	
23-Apr-13	sub2327	2327	2	1	54	3	1	3	3	1	1	1	1	0.47444	1	0.9	0	13	32	33	1	
23-Apr-13	sub2327	2327	2	1	55	3	1	2	5	2	1	2	1	0.52931	1	0.9	0	12	30	31	0	
23-Apr-13	sub2327	2327	2	1	56	3	1	1	1	6	1	1	1	0.42498	1	0.9	0	11	30	31	1	
23-Apr-13	sub2327	2327	2	1	57	3	1	5	4	2	1	2	0	0.47625	0	0.9	0	15	45	46	1	
23-Apr-13	sub2327	2327	2	1	58	3	1	4	2	6	1	2	1	0.54308	1	0.9	0	14	32	33	0	
23-Apr-13	sub2327	2327	2	1	59	3	1	6	6	3	0	1	1	0.43941	0	0.9	0	16	47	38	1	
23-Apr-13	sub2327	2327	2	1	60	3	1	6	6	3	0	1	1	0.38898	0	0.9	0	16	47	38	1	
23-Apr-13	sub2327	2327	2	1	61	3	1	2	5	2	1	1	0	0.33492	0	0.9	0	12	40	41	1	
23-Apr-13	sub2327	2327	2	1	62	3	1	1	1	6	1	1	1	0.39393	1	0.9	0	11	30	31	1	
23-Apr-13	sub2327	2327	2	1	63	3	1	3	3	1	1	1	1	0.37058	1	0.9	0	13	32	33	1	
23-Apr-13	sub2327	2327	2	1	64	3	1	1	1	6	1	2	0	0.39211	0	0.9	0	11	40	41	1	
23-Apr-13	sub2327	2327	2	1	65	3	1	4	2	6	1	2	1	0.36223	1	0.9	0	14	32	33	1	
23-Apr-13	sub2327	2327	2	1	66	3	1	1	1	6	1	2	0	0.4705	0	0.9	0	11	40	41	1	
23-Apr-13	sub2327	2327	2	1	67	3	1	6	6	3	1	1	0	0.60224	0	0.9	0	16	45	46	0	
23-Apr-13	sub2327	2327	2	1	68	3	1	4	2	6	0	2	0	0.46013	1	0.9	0	14	34	49	1	
23-Apr-13	sub2327	2327	2	1	69	3	1	6	6	3	1	1	0	0.53272	0	0.9	0	16	45	46	0	
23-Apr-13	sub2327	2327	2	1	70	3	1	1	1	6	1	1	1	0.37939	1	0.9	0	11	30	31	1	
23-Apr-13	sub2327	2327	2	1	71	3	1	2	5	2	1	2	1	0.3533	1	0.9	0	12	30	31	1	
23-Apr-13	sub2327	2327	2	1	72	3	1	4	2	6	1	2	1	0.47417	1	0.9	0	14	32	33	1	
23-Apr-13	sub2327	2327	2	1	73	3	1	1	1	6	1	1	1	0.47358	1	0.8	0	11	30	31	1	
23-Apr-13	sub2327	2327	2	1	74	3	1	5	4	2	1	2	0	0.57009	0	0.8	0	15	45	46	0	
23-Apr-13	sub2327	2327	2	1	75	3	1	4	2	6	1	2	1	0.49344	1	0.8	0	14	32	33	1	
23-Apr-13	sub2327	2327	2	1	76	3	2	1	1	6	1	1	1	0.48288	1	0.8	0	21	60	61	1	
23-Apr-13	sub2327	2327	2	1	77	3	2	5	4	2	0	2	1	0.58601	0	0.8	0	25	87	68	0	
23-Apr-13	sub2327	2327	2	1	78	3	2	2	5	2	1	2	1	0.52488	1	0.8	0	22	60	61	0	
23-Apr-13	sub2327	2327	2	1	79	3	2	3	3	1	1	1	1	0.38752	1	0.8	0	23	62	63	1	
23-Apr-13	sub2327	2327	2	1	80	3	2	1	1	6	1	1	1	0.46098	1	0.8	0	21	60	61	1	
23-Apr-13	sub2327	2327	2	1	81	3	2	6	6	3	0	1	1	0.4005	0	0.8	0	26	87	68	1	
23-Apr-13	sub2327	2327	2	1	82	3	2	2	5	2	1	2	1	0.52029	1	0.8	0	22	60	61	0	
23-Apr-13	sub2327	2327	2	1	83	3	2	5	4	2	0	2	1	0.53663	0	0.8	0	25	87	68	0	
23-Apr-13	sub2327	2327	2	1	84	3	2	2	5	2	1	2	1	0.53048	1	0.8	0	22	60	61	0	
23-Apr-13	sub2327	2327	2	1	85	3	2	3	3	1	0	1	0	0.38491	1	0.7	0	23	64	89	1	
23-Apr-13	sub2327	2327	2	1	86	3	2	3	3	1	1	1	1	0.40971	1	0.7	0	23	62	63	1	
23-Apr-13	sub2327	2327	2	1	87	3	2	6	6	3	1	1	0	0.54376	0	0.7	0	26	85	86	0	
23-Apr-13	sub2327	2327	2	1	88	3	2	2	5	2	1	2	1	0.50193	1	0.7	0	22	60	61	0	
23-Apr-13	sub2327	2327	2	1	89	3	2	3	3	1	1	1	1	0.40093	1	0.7	0	23	62	63	1	
23-Apr-13	sub2327	2327	2	1	90	3	2	2	5	2	1	2	1	0.55633	1	0.7	0	22	60	61	0	
23-Apr-13	sub2327	2327	2	1	91	3	2	4	2	6	1	2	1	0.53103	1	0.7	0	24	62	63	0	
23-Apr-13	sub2327	2327	2	1	92	3	2	5	4	2	0	2	1	0.59263	0	0.7	0	25	87	68	0	
23-Apr-13	sub2327	2327	2	1	93	3	2	4	2	6	1	2	1	0.36891	1	0.7	0	24	62	63	1	
23-Apr-13	sub2327	2327	2	1	94	3	2	1	1	6	1	1	1	0.40168	1	0.7	0	21	60	61	1	
23-Apr-13	sub2327	2327	2	1	95	3	2	3	3	1	1	1	1	0.37093	1	0.7	0	23	62	63	1	
23-Apr-13	sub2327	2327	2	1	96	3	2	4	2	6	1	2	1	0.4514	1	0.7	0	24	62	63	1	
23-Apr-13	sub2327	2327	2	1	97	3	2	5	4	2	0	2	1	0.79312	0	0.7	1	25	87	51	0	
23-Apr-13	sub2327	2327	2	1	98	3	2	5	4	2	0	2	1	0.46883	0	0.8	0	25	87	68	1	
23-Apr-13	sub2327	2327	2	1	99	3	2	6	6	3	1	1	0	0.47177	0	0.8	0	26	85	86	1	
23-Apr-13	sub2327	2327	2	1	100	3	2	5	4	2	0	2	1	0.58239	0	0.8	0	25	87	68	0	
23-Apr-13	sub2327	2327	2	1	101	3	2	1	1	6	1	1	1	0.32818	1	0.7	0	21	60	61	1	
23-Apr-13	sub2327	2327	2	1	102	3	2	6	6	3	0	2	0	0.39188	1	0.7	0	26	67	88	1	
23-Apr-13	sub2327	2327	2	1	103	3	2	2	5	2	1	2	1	0.44433	1	0.7	0	22	60	61	1	
23-Apr-13	sub2327	2327	2	1	104	3	2	3	3	1	1	1	1	0.36711	1	0.7	0	23	62	63	1	
23-Apr-13	sub2327	2327	2	1	105	3	2	2	5	2	1	2	1	0.48172	1	0.7	0	22	60	61	1	
23-Apr-13	sub2327	2327	2	1	106	3	2	4	2	6	0	2	0	0.4283	1	0.7	0	24	64	89	1	
23-Apr-13	sub2327	2327	2	1	107	3	2	3	3	1	1	1	1	0.45529	1	0.7	0	23	62	63	1	
23-Apr-13	sub2327	2327	2	1	108	3	2	2	5	2	1	2	1	0.4339	1	0.7	0	22	60	61	1	
23-Apr-13	sub2327	2327	2	1	109	3	2	6	6	3	1	1	0	0.42935	0	0.7	0	26	85	86	1	
23-Apr-13	sub2327	2327	2	1	110	3	2	3	3	1	0	1	0	0.36416	1	0.7	0	23	64	89	1	
23-Apr-13	sub2327	2327	2	1	111	3	2	1	1	6	1	1	1	0.37722	1	0.7	0	21	60	61	1	
23-Apr-13	sub2327	2327	2	1	112	3	2	6	6	3	0	1	1	0.4148	0	0.7	0	26	87	68	1	
23-Apr-13	sub2327	2327	2	1	113	3	2	4	2	6	1	2	1	0.35859	1	0.7	0	24	62	63	1	
23-Apr-13	sub2327	2327	2	1	114	3	2	4	2	6	1	2	1	0.32871	1	0.7	0	24	62	63	1	
23-Apr-13	sub2327	2327	2	1	115	3	2	1	1	6	1	2	0	0.41652	0	0.7	0	21	80	81	1	
23-Apr-13	sub2327	2327	2	1	116	3	2	2	5	2	1	2	1	0.43597	1	0.7	0	22	60	61	1	
23-Apr-13	sub2327	2327	2	1	117	3	2	5	4	2	0	2	1	0.55169	0	0.7	0	25	87	68	0	
23-Apr-13	sub2327	2327	2	1	118	3	2	1	1	6	1	1	1	0.35674	1	0.7	0	21	60	61	1	
23-Apr-13	sub2327	2327	2	1	119	3	2	4	2	6	1	2	1	0.37911	1	0.7	0	24	62	63	1	
23-Apr-13	sub2327	2327	2	1	120	3	2	2	5	2	1	2	1	0.52032	1	0.7	0	22	60	61	0	
23-Apr-13	sub2327	2327	2	1	121	3	2	3	3	1	1	1	1	0.41445	1	0.6	0	23	62	63	1	
23-Apr-13	sub2327	2327	2	1	122	3	2	3	3	1	1	1	1	0.40043	1	0.6	0	23	62	63	1	
23-Apr-13	sub2327	2327	2	1	123	3	2	5	4	2	0	2	1	0.40046	0	0.6	0	25	87	68	1	
23-Apr-13	sub2327	2327	2	1	124	3	2	5	4	2	0	2	1	0.38573	0	0.6	0	25	87	68	1	
23-Apr-13	sub2327	2327	2	1	125	3	2	4	2	6	1	1	0	0.45433	0	0.6	0	24	82	83	1	
23-Apr-13	sub2327	2327	2	1	126	3	2	5	4	2	0	2	1	0.46123	0	0.6	0	25	87	68	1	
23-Apr-13	sub2327	2327	2	1	127	3	2	5	4	2	0	2	1	0.36902	0	0.6	0	25	87	68	1	
23-Apr-13	sub2327	2327	2	1	128	3	2	1	1	6	1	1	1	0.42479	1	0.6	0	21	60	61	1	
23-Apr-13	sub2327	2327	2	1	129	3	2	6	6	3	0	1	1	0.49652	0	0.6	0	26	87	68	1	
23-Apr-13	sub2327	2327	2	1	130	3	2	3	3	1	1	1	1	0.35045	1	0.6	0	23	62	63	1	
23-Apr-13	sub2327	2327	2	1	131	3	2	5	4	2	0	2	1	0.52913	0	0.6	0	25	87	68	0	
23-Apr-13	sub2327	2327	2	1	132	3	2	4	2	6	0	2	0	0.43923	1	0.6	0	24	64	89	1	
23-Apr-13	sub2327	2327	2	1	133	3	2	5	4	2	0	2	1	0.4201	0	0.6	0	25	87	68	1	
23-Apr-13	sub2327	2327	2	1	134	3	2	6	6	3	1	1	0	0.50684	0	0.6	0	26	85	86	0	
23-Apr-13	sub2327	2327	2	1	135	3	2	6	6	3	1	1	0	0.45352	0	0.6	0	26	85	86	1	
23-Apr-13	sub2327	2327	2	1	136	3	2	4	2	6	1	2	1	0.46542	1	0.6	0	24	62	63	1	
23-Apr-13	sub2327	2327	2	1	137	3	2	1	1	6	1	1	1	0.39555	1	0.6	0	21	60	61	1	
23-Apr-13	sub2327	2327	2	1	138	3	2	1	1	6	1	1	1	0.42532	1	0.6	0	21	60	61	1	
23-Apr-13	sub2327	2327	2	1	139	3	2	2	5	2	1	2	1	0.48749	1	0.6	0	22	60	61	1	
23-Apr-13	sub2327	2327	2	1	140	3	2	2	5	2	1	2	1	0.43	1	0.6	0	22	60	61	1	
23-Apr-13	sub2327	2327	2	1	141	3	2	6	6	3	1	2	1	0.47157	1	0.6	0	26	65	66	1	
23-Apr-13	sub2327	2327	2	1	142	3	2	3	3	1	1	1	1	0.44129	1	0.6	0	23	62	63	1	
23-Apr-13	sub2327	2327	2	1	143	3	2	4	2	6	0	2	0	0.51987	1	0.6	0	24	64	89	0	
23-Apr-13	sub2327	2327	2	1	144	3	2	1	1	6	1	1	1	0.40463	1	0.6	0	21	60	61	1	
23-Apr-13	sub2327	2327	2	1	145	3	2	6	6	3	0	1	1	0.4242	0	0.6	0	26	87	68	1	
23-Apr-13	sub2327	2327	2	1	146	3	2	1	1	6	1	1	1	0.46025	1	0.6	0	21	60	61	1	
23-Apr-13	sub2327	2327	2	1	147	3	2	1	1	6	1	1	1	0.38557	1	0.6	0	21	60	61	1	
23-Apr-13	sub2327	2327	2	1	148	3	2	4	2	6	1	2	1	0.36492	1	0.6	0	24	62	63	1	
23-Apr-13	sub2327	2327	2	1	149	3	2	6	6	3	0	2	0	0.40216	1	0.6	0	26	67	88	1	
23-Apr-13	sub2327	2327	2	1	150	3	2	4	2	6	1	2	1	0.4329	1	0.6	0	24	62	63	1	
23-Apr-13	sub2327	2327	2	1	1	4	1	3	1	5	0	1	0	0.26226	1	0.6	0	13	34	49	1	
23-Apr-13	sub2327	2327	2	1	2	4	1	6	6	6	1	1	0	0.28309	0	0.3	0	16	45	46	1	
23-Apr-13	sub2327	2327	2	1	3	4	1	1	3	5	1	1	1	0.29244	1	0.3	0	11	30	31	1	
23-Apr-13	sub2327	2327	2	1	4	4	1	6	6	6	1	1	0	0.59429	0	0.3	1	16	45	51	0	
23-Apr-13	sub2327	2327	2	1	5	4	1	4	2	5	0	1	1	0.21981	0	0.9	0	14	44	39	1	
23-Apr-13	sub2327	2327	2	1	6	4	1	5	5	6	1	1	1	0.24922	1	0.9	0	15	35	36	1	
23-Apr-13	sub2327	2327	2	1	7	4	1	4	2	5	0	1	1	0.39084	0	0.9	0	14	44	39	1	
23-Apr-13	sub2327	2327	2	1	8	4	1	2	4	6	1	2	1	0.45915	1	0.9	0	12	30	31	1	
23-Apr-13	sub2327	2327	2	1	9	4	1	4	2	5	1	2	1	0.38198	1	0.9	0	14	32	33	1	
23-Apr-13	sub2327	2327	2	1	10	4	1	3	1	5	1	1	1	0.46453	1	0.9	0	13	32	33	1	
23-Apr-13	sub2327	2327	2	1	11	4	1	1	3	5	1	1	1	0.61596	1	0.9	0	11	30	31	0	
23-Apr-13	sub2327	2327	2	1	12	4	1	3	1	5	0	1	0	0.40491	1	0.9	0	13	34	49	1	
23-Apr-13	sub2327	2327	2	1	13	4	1	4	2	5	1	1	0	0.53155	0	0.9	0	14	42	43	0	
23-Apr-13	sub2327	2327	2	1	14	4	1	6	6	6	1	2	1	0.66039	1	0.9	0	16	35	36	0	
23-Apr-13	sub2327	2327	2	1	15	4	1	3	1	5	0	1	0	0.36892	1	0.9	0	13	34	49	1	
23-Apr-13	sub2327	2327	2	1	16	4	1	2	4	6	1	2	1	0.53665	1	0.8	0	12	30	31	0	
23-Apr-13	sub2327	2327	2	1	17	4	1	2	4	6	1	2	1	0.5745	1	0.8	0	12	30	31	0	
23-Apr-13	sub2327	2327	2	1	18	4	1	2	4	6	1	2	1	0.43702	1	0.7	0	12	30	31	1	
23-Apr-13	sub2327	2327	2	1	19	4	1	5	5	6	0	1	0	0.46074	1	0.7	0	15	37	48	1	
23-Apr-13	sub2327	2327	2	1	20	4	1	1	3	5	1	1	1	0.51304	1	0.7	0	11	30	31	0	
23-Apr-13	sub2327	2327	2	1	21	4	1	2	4	6	1	2	1	0.4986	1	0.6	0	12	30	31	1	
23-Apr-13	sub2327	2327	2	1	22	4	1	3	1	5	1	1	1	0.52011	1	0.6	0	13	32	33	0	
23-Apr-13	sub2327	2327	2	1	23	4	1	4	2	5	1	2	1	0.56187	1	0.6	0	14	32	33	0	
23-Apr-13	sub2327	2327	2	1	24	4	1	6	6	6	1	1	0	0.36932	0	0.6	0	16	45	46	1	
23-Apr-13	sub2327	2327	2	1	25	4	1	5	5	6	1	1	1	0.41559	1	0.6	0	15	35	36	1	
23-Apr-13	sub2327	2327	2	1	26	4	1	3	1	5	1	1	1	0.397	1	0.5	0	13	32	33	1	
23-Apr-13	sub2327	2327	2	1	27	4	1	2	4	6	1	2	1	0.47479	1	0.5	0	12	30	31	1	
23-Apr-13	sub2327	2327	2	1	28	4	1	4	2	5	1	2	1	0.49808	1	0.5	0	14	32	33	1	
23-Apr-13	sub2327	2327	2	1	29	4	1	6	6	6	1	2	1	0.52124	1	0.5	1	16	35	51	0	
23-Apr-13	sub2327	2327	2	1	30	4	1	3	1	5	1	1	1	0.50897	1	0.8	0	13	32	33	0	
23-Apr-13	sub2327	2327	2	1	31	4	1	2	4	6	1	2	1	0.50695	1	0.8	0	12	30	31	0	
23-Apr-13	sub2327	2327	2	1	32	4	1	1	3	5	1	1	1	0.45089	1	0.8	0	11	30	31	1	
23-Apr-13	sub2327	2327	2	1	33	4	1	1	3	5	1	1	1	0.44656	1	0.8	0	11	30	31	1	
23-Apr-13	sub2327	2327	2	1	34	4	1	2	4	6	1	2	1	0.47665	1	0.8	0	12	30	31	1	
23-Apr-13	sub2327	2327	2	1	35	4	1	2	4	6	1	2	1	0.4109	1	0.7	0	12	30	31	1	
23-Apr-13	sub2327	2327	2	1	36	4	1	4	2	5	1	2	1	0.55503	1	0.7	0	14	32	33	0	
23-Apr-13	sub2327	2327	2	1	37	4	1	5	5	6	1	2	0	0.39719	0	0.7	0	15	45	46	1	
23-Apr-13	sub2327	2327	2	1	38	4	1	1	3	5	1	1	1	0.37713	1	0.7	0	11	30	31	1	
23-Apr-13	sub2327	2327	2	1	39	4	1	3	1	5	1	1	1	0.3804	1	0.7	0	13	32	33	1	
23-Apr-13	sub2327	2327	2	1	40	4	1	1	3	5	1	1	1	0.40628	1	0.7	0	11	30	31	1	
23-Apr-13	sub2327	2327	2	1	41	4	1	5	5	6	0	1	0	0.31026	1	0.6	0	15	37	48	1	
23-Apr-13	sub2327	2327	2	1	42	4	1	5	5	6	0	1	0	0.38248	1	0.6	0	15	37	48	1	
23-Apr-13	sub2327	2327	2	1	43	4	1	1	3	5	1	1	1	0.3219	1	0.6	0	11	30	31	1	
23-Apr-13	sub2327	2327	2	1	44	4	1	4	2	5	1	2	1	0.47236	1	0.6	0	14	32	33	1	
23-Apr-13	sub2327	2327	2	1	45	4	1	6	6	6	0	2	0	0.49528	1	0.6	0	16	37	48	1	
23-Apr-13	sub2327	2327	2	1	46	4	1	3	1	5	1	2	0	0.39084	0	0.6	0	13	42	43	1	
23-Apr-13	sub2327	2327	2	1	47	4	1	1	3	5	1	1	1	0.48574	1	0.6	0	11	30	31	1	
23-Apr-13	sub2327	2327	2	1	48	4	1	6	6	6	0	1	1	0.45375	0	0.6	0	16	47	38	1	
23-Apr-13	sub2327	2327	2	1	49	4	1	4	2	5	1	2	1	0.44123	1	0.6	0	14	32	33	1	
23-Apr-13	sub2327	2327	2	1	50	4	1	6	6	6	0	2	0	0.4281	1	0.6	0	16	37	48	1	
23-Apr-13	sub2327	2327	2	1	51	4	1	3	1	5	1	1	1	0.36277	1	0.5	0	13	32	33	1	
23-Apr-13	sub2327	2327	2	1	52	4	1	5	5	6	1	2	0	0.73719	0	0.5	1	15	45	51	0	
23-Apr-13	sub2327	2327	2	1	53	4	1	2	4	6	1	2	1	0.45843	1	0.7	0	12	30	31	1	
23-Apr-13	sub2327	2327	2	1	54	4	1	4	2	5	1	2	1	0.50283	1	0.7	0	14	32	33	0	
23-Apr-13	sub2327	2327	2	1	55	4	1	1	3	5	1	1	1	0.37004	1	0.7	0	11	30	31	1	
23-Apr-13	sub2327	2327	2	1	56	4	1	6	6	6	0	1	1	0.53995	0	0.7	0	16	47	38	0	
23-Apr-13	sub2327	2327	2	1	57	4	1	2	4	6	1	2	1	0.37502	1	0.7	0	12	30	31	1	
23-Apr-13	sub2327	2327	2	1	58	4	1	3	1	5	1	1	1	0.42351	1	0.7	0	13	32	33	1	
23-Apr-13	sub2327	2327	2	1	59	4	1	5	5	6	0	2	1	0.31885	0	0.7	0	15	47	38	1	
23-Apr-13	sub2327	2327	2	1	60	4	1	6	6	6	0	1	1	0.55817	0	0.7	0	16	47	38	0	
23-Apr-13	sub2327	2327	2	1	61	4	1	6	6	6	1	1	0	0.3567	0	0.6	0	16	45	46	1	
23-Apr-13	sub2327	2327	2	1	62	4	1	2	4	6	1	2	1	0.47823	1	0.6	0	12	30	31	1	
23-Apr-13	sub2327	2327	2	1	63	4	1	5	5	6	0	1	0	0.47082	1	0.6	0	15	37	48	1	
23-Apr-13	sub2327	2327	2	1	64	4	1	1	3	5	1	1	1	0.33022	1	0.6	0	11	30	31	1	
23-Apr-13	sub2327	2327	2	1	65	4	1	5	5	6	1	2	0	0.3937	0	0.6	0	15	45	46	1	
23-Apr-13	sub2327	2327	2	1	66	4	1	1	3	5	1	1	1	0.41986	1	0.6	0	11	30	31	1	
23-Apr-13	sub2327	2327	2	1	67	4	1	6	6	6	1	1	0	0.53226	0	0.6	0	16	45	46	0	
23-Apr-13	sub2327	2327	2	1	68	4	1	5	5	6	1	1	1	0.50603	1	0.6	0	15	35	36	0	
23-Apr-13	sub2327	2327	2	1	69	4	1	5	5	6	0	1	0	0.36218	1	0.6	0	15	37	48	1	
23-Apr-13	sub2327	2327	2	1	70	4	1	4	2	5	1	2	1	0.60001	1	0.6	1	14	32	51	0	
23-Apr-13	sub2327	2327	2	1	71	4	1	4	2	5	1	2	1	0.50612	1	0.7	0	14	32	33	0	
23-Apr-13	sub2327	2327	2	1	72	4	1	3	1	5	1	1	1	0.46299	1	0.7	0	13	32	33	1	
23-Apr-13	sub2327	2327	2	1	73	4	1	6	6	6	0	1	1	0.51572	0	0.7	0	16	47	38	0	
23-Apr-13	sub2327	2327	2	1	74	4	1	3	1	5	1	1	1	0.38386	1	0.7	0	13	32	33	1	
23-Apr-13	sub2327	2327	2	1	75	4	1	2	4	6	1	2	1	0.49146	1	0.7	0	12	30	31	1	
23-Apr-13	sub2327	2327	2	1	76	4	2	3	1	5	1	1	1	0.49474	1	0.7	0	23	62	63	1	
23-Apr-13	sub2327	2327	2	1	77	4	2	5	5	6	0	2	1	0.60754	0	0.7	0	25	87	68	0	
23-Apr-13	sub2327	2327	2	1	78	4	2	5	5	6	0	2	1	0.4038	0	0.7	0	25	87	68	1	
23-Apr-13	sub2327	2327	2	1	79	4	2	6	6	6	0	1	1	0.40334	0	0.7	0	26	87	68	1	
23-Apr-13	sub2327	2327	2	1	80	4	2	1	3	5	1	1	1	0.47402	1	0.7	0	21	60	61	1	
23-Apr-13	sub2327	2327	2	1	81	4	2	1	3	5	1	1	1	0.50137	1	0.6	0	21	60	61	0	
23-Apr-13	sub2327	2327	2	1	82	4	2	6	6	6	0	1	1	0.58023	0	0.6	0	26	87	68	0	
23-Apr-13	sub2327	2327	2	1	83	4	2	1	3	5	1	1	1	0.46874	1	0.6	0	21	60	61	1	
23-Apr-13	sub2327	2327	2	1	84	4	2	5	5	6	0	2	1	0.37523	0	0.6	0	25	87	68	1	
23-Apr-13	sub2327	2327	2	1	85	4	2	3	1	5	1	1	1	0.42233	1	0.6	0	23	62	63	1	
23-Apr-13	sub2327	2327	2	1	86	4	2	5	5	6	0	2	1	0.7897	0	0.6	1	25	87	51	0	
23-Apr-13	sub2327	2327	2	1	87	4	2	4	2	5	1	2	1	0.59091	1	0.7	0	24	62	63	0	
23-Apr-13	sub2327	2327	2	1	88	4	2	6	6	6	0	1	1	0.51314	0	0.7	0	26	87	68	0	
23-Apr-13	sub2327	2327	2	1	89	4	2	6	6	6	1	1	0	0.42099	0	0.7	0	26	85	86	1	
23-Apr-13	sub2327	2327	2	1	90	4	2	5	5	6	0	2	1	0.53639	0	0.7	0	25	87	68	0	
23-Apr-13	sub2327	2327	2	1	91	4	2	6	6	6	0	1	1	0.61393	0	0.7	0	26	87	68	0	
23-Apr-13	sub2327	2327	2	1	92	4	2	2	4	6	1	2	1	0.41147	1	0.7	0	22	60	61	1	
23-Apr-13	sub2327	2327	2	1	93	4	2	3	1	5	0	1	0	0.40816	1	0.7	0	23	64	89	1	
23-Apr-13	sub2327	2327	2	1	94	4	2	5	5	6	0	2	1	0.34975	0	0.7	0	25	87	68	1	
23-Apr-13	sub2327	2327	2	1	95	4	2	5	5	6	0	2	1	0.40266	0	0.7	0	25	87	68	1	
23-Apr-13	sub2327	2327	2	1	96	4	2	4	2	5	0	2	0	0.57673	1	0.7	0	24	64	89	0	
23-Apr-13	sub2327	2327	2	1	97	4	2	4	2	5	1	2	1	0.48727	1	0.7	0	24	62	63	1	
23-Apr-13	sub2327	2327	2	1	98	4	2	6	6	6	1	1	0	0.39713	0	0.7	0	26	85	86	1	
23-Apr-13	sub2327	2327	2	1	99	4	2	1	3	5	1	1	1	0.3689	1	0.7	0	21	60	61	1	
23-Apr-13	sub2327	2327	2	1	100	4	2	6	6	6	0	1	1	0.40112	0	0.7	0	26	87	68	1	
23-Apr-13	sub2327	2327	2	1	101	4	2	1	3	5	1	1	1	0.42126	1	0.6	0	21	60	61	1	
23-Apr-13	sub2327	2327	2	1	102	4	2	4	2	5	1	2	1	0.46089	1	0.6	0	24	62	63	1	
23-Apr-13	sub2327	2327	2	1	103	4	2	5	5	6	0	2	1	0.55555	0	0.6	0	25	87	68	0	
23-Apr-13	sub2327	2327	2	1	104	4	2	1	3	5	1	1	1	0.53611	1	0.6	0	21	60	61	0	
23-Apr-13	sub2327	2327	2	1	105	4	2	2	4	6	1	2	1	0.4946	1	0.6	0	22	60	61	1	
23-Apr-13	sub2327	2327	2	1	106	4	2	1	3	5	1	1	1	0.42683	1	0.6	0	21	60	61	1	
23-Apr-13	sub2327	2327	2	1	107	4	2	2	4	6	1	2	1	0.38204	1	0.6	0	22	60	61	1	
23-Apr-13	sub2327	2327	2	1	108	4	2	3	1	5	1	1	1	0.44291	1	0.6	0	23	62	63	1	
23-Apr-13	sub2327	2327	2	1	109	4	2	4	2	5	1	2	1	0.44464	1	0.6	0	24	62	63	1	
23-Apr-13	sub2327	2327	2	1	110	4	2	2	4	6	1	2	1	0.44517	1	0.6	0	22	60	61	1	
23-Apr-13	sub2327	2327	2	1	111	4	2	3	1	5	1	1	1	0.39822	1	0.6	0	23	62	63	1	
23-Apr-13	sub2327	2327	2	1	112	4	2	3	1	5	1	1	1	0.50929	1	0.6	0	23	62	63	0	
23-Apr-13	sub2327	2327	2	1	113	4	2	5	5	6	0	2	1	0.51678	0	0.6	0	25	87	68	0	
23-Apr-13	sub2327	2327	2	1	114	4	2	4	2	5	1	2	1	0.52061	1	0.6	0	24	62	63	0	
23-Apr-13	sub2327	2327	2	1	115	4	2	1	3	5	1	1	1	0.39445	1	0.6	0	21	60	61	1	
23-Apr-13	sub2327	2327	2	1	116	4	2	4	2	5	0	2	0	0.36237	1	0.6	0	24	64	89	1	
23-Apr-13	sub2327	2327	2	1	117	4	2	6	6	6	1	1	0	0.56171	0	0.6	0	26	85	86	0	
23-Apr-13	sub2327	2327	2	1	118	4	2	3	1	5	1	1	1	0.35296	1	0.6	0	23	62	63	1	
23-Apr-13	sub2327	2327	2	1	119	4	2	4	2	5	1	2	1	0.39702	1	0.6	0	24	62	63	1	
23-Apr-13	sub2327	2327	2	1	120	4	2	2	4	6	1	2	1	0.46005	1	0.6	0	22	60	61	1	
23-Apr-13	sub2327	2327	2	1	121	4	2	6	6	6	0	1	1	0.45658	0	0.6	0	26	87	68	1	
23-Apr-13	sub2327	2327	2	1	122	4	2	5	5	6	0	2	1	0.35057	0	0.6	0	25	87	68	1	
23-Apr-13	sub2327	2327	2	1	123	4	2	4	2	5	0	1	1	0.40957	0	0.6	0	24	84	69	1	
23-Apr-13	sub2327	2327	2	1	124	4	2	1	3	5	1	1	1	0.37698	1	0.6	0	21	60	61	1	
23-Apr-13	sub2327	2327	2	1	125	4	2	2	4	6	1	2	1	0.3644	1	0.6	0	22	60	61	1	
23-Apr-13	sub2327	2327	2	1	126	4	2	2	4	6	1	2	1	0.50766	1	0.5	1	22	60	51	0	
23-Apr-13	sub2327	2327	2	1	127	4	2	1	3	5	1	1	1	0.51463	1	0.6	0	21	60	61	0	
23-Apr-13	sub2327	2327	2	1	128	4	2	3	1	5	1	1	1	0.41697	1	0.6	0	23	62	63	1	
23-Apr-13	sub2327	2327	2	1	129	4	2	6	6	6	1	2	1	0.4362	1	0.6	0	26	65	66	1	
23-Apr-13	sub2327	2327	2	1	130	4	2	1	3	5	1	1	1	0.49132	1	0.6	0	21	60	61	1	
23-Apr-13	sub2327	2327	2	1	131	4	2	6	6	6	1	1	0	0.42383	0	0.6	0	26	85	86	1	
23-Apr-13	sub2327	2327	2	1	132	4	2	1	3	5	1	1	1	0.4359	1	0.6	0	21	60	61	1	
23-Apr-13	sub2327	2327	2	1	133	4	2	3	1	5	1	2	0	0.47534	0	0.6	0	23	82	83	1	
23-Apr-13	sub2327	2327	2	1	134	4	2	3	1	5	1	1	1	0.38406	1	0.6	0	23	62	63	1	
23-Apr-13	sub2327	2327	2	1	135	4	2	3	1	5	0	1	0	0.41031	1	0.6	0	23	64	89	1	
23-Apr-13	sub2327	2327	2	1	136	4	2	5	5	6	0	2	1	0.51754	0	0.6	0	25	87	68	0	
23-Apr-13	sub2327	2327	2	1	137	4	2	4	2	5	1	2	1	0.50384	1	0.6	0	24	62	63	0	
23-Apr-13	sub2327	2327	2	1	138	4	2	4	2	5	1	2	1	0.43819	1	0.6	0	24	62	63	1	
23-Apr-13	sub2327	2327	2	1	139	4	2	4	2	5	1	2	1	0.3959	1	0.6	0	24	62	63	1	
23-Apr-13	sub2327	2327	2	1	140	4	2	2	4	6	1	2	1	0.46962	1	0.6	0	22	60	61	1	
23-Apr-13	sub2327	2327	2	1	141	4	2	2	4	6	1	2	1	0.38552	1	0.6	0	22	60	61	1	
23-Apr-13	sub2327	2327	2	1	142	4	2	2	4	6	1	2	1	0.40623	1	0.6	0	22	60	61	1	
23-Apr-13	sub2327	2327	2	1	143	4	2	5	5	6	0	2	1	0.47022	0	0.6	0	25	87	68	1	
23-Apr-13	sub2327	2327	2	1	144	4	2	2	4	6	1	2	1	0.39695	1	0.6	0	22	60	61	1	
23-Apr-13	sub2327	2327	2	1	145	4	2	3	1	5	1	1	1	0.51106	1	0.6	0	23	62	63	0	
23-Apr-13	sub2327	2327	2	1	146	4	2	6	6	6	1	2	1	0.40218	1	0.6	0	26	65	66	1	
23-Apr-13	sub2327	2327	2	1	147	4	2	4	2	5	1	2	1	0.54762	1	0.6	0	24	62	63	0	
23-Apr-13	sub2327	2327	2	1	148	4	2	2	4	6	1	2	1	0.43719	1	0.6	0	22	60	61	1	
23-Apr-13	sub2327	2327	2	1	149	4	2	5	5	6	0	2	1	0.45471	0	0.6	0	25	87	68	1	
23-Apr-13	sub2327	2327	2	1	150	4	2	1	3	5	1	1	1	0.47224	1	0.6	0	21	60	61	1	
23-Apr-13	sub2327	2327	2	1	1	5	1	3	4	1	1	1	1	0.2981	1	0.6	0	13	32	33	1	
23-Apr-13	sub2327	2327	2	1	2	5	1	6	3	2	1	1	0	0.32922	0	0.3	1	16	45	51	1	
23-Apr-13	sub2327	2327	2	1	3	5	1	1	1	1	1	1	1	0.3132	1	0.9	0	11	30	31	1	
23-Apr-13	sub2327	2327	2	1	4	5	1	1	1	1	1	1	1	0.2953	1	0.9	0	11	30	31	1	
23-Apr-13	sub2327	2327	2	1	5	5	1	4	6	4	1	1	0	0.24082	0	0.9	0	14	42	43	1	
23-Apr-13	sub2327	2327	2	1	6	5	1	1	1	1	1	1	1	0.2961	1	0.9	0	11	30	31	1	
23-Apr-13	sub2327	2327	2	1	7	5	1	4	6	4	1	1	0	0.36375	0	0.9	0	14	42	43	1	
23-Apr-13	sub2327	2327	2	1	8	5	1	3	4	1	1	1	1	0.42619	1	0.9	0	13	32	33	1	
23-Apr-13	sub2327	2327	2	1	9	5	1	1	1	1	1	1	1	0.45194	1	0.9	0	11	30	31	1	
23-Apr-13	sub2327	2327	2	1	10	5	1	2	5	1	1	1	0	0.33908	0	0.9	0	12	40	41	1	
23-Apr-13	sub2327	2327	2	1	11	5	1	5	2	1	1	1	1	0.43073	1	0.9	0	15	35	36	1	
23-Apr-13	sub2327	2327	2	1	12	5	1	2	5	1	1	2	1	0.48596	1	0.9	0	12	30	31	1	
23-Apr-13	sub2327	2327	2	1	13	5	1	1	1	1	1	2	0	0.42417	0	0.9	0	11	40	41	1	
23-Apr-13	sub2327	2327	2	1	14	5	1	4	6	4	1	2	1	0.58226	1	0.9	0	14	32	33	0	
23-Apr-13	sub2327	2327	2	1	15	5	1	3	4	1	1	2	0	0.47538	0	0.9	0	13	42	43	1	
23-Apr-13	sub2327	2327	2	1	16	5	1	4	6	4	1	1	0	0.42814	0	0.8	0	14	42	43	1	
23-Apr-13	sub2327	2327	2	1	17	5	1	5	2	1	0	2	1	0.51631	0	0.8	0	15	47	38	0	
23-Apr-13	sub2327	2327	2	1	18	5	1	6	3	2	0	1	1	0.53804	0	0.7	0	16	47	38	0	
23-Apr-13	sub2327	2327	2	1	19	5	1	4	6	4	0	2	0	0.51958	1	0.7	0	14	34	49	0	
23-Apr-13	sub2327	2327	2	1	20	5	1	2	5	1	1	2	1	0.80925	1	0.7	1	12	30	51	0	
23-Apr-13	sub2327	2327	2	1	21	5	1	6	3	2	1	2	1	0.59345	1	0.9	0	16	35	36	0	
23-Apr-13	sub2327	2327	2	1	22	5	1	2	5	1	1	2	1	0.4766	1	0.9	0	12	30	31	1	
23-Apr-13	sub2327	2327	2	1	23	5	1	1	1	1	1	1	1	0.41651	1	0.9	0	11	30	31	1	
23-Apr-13	sub2327	2327	2	1	24	5	1	5	2	1	1	2	0	0.44022	0	0.9	0	15	45	46	1	
23-Apr-13	sub2327	2327	2	1	25	5	1	5	2	1	1	2	0	0.40165	0	0.9	0	15	45	46	1	
23-Apr-13	sub2327	2327	2	1	26	5	1	3	4	1	0	2	1	0.47396	0	0.9	0	13	44	39	1	
23-Apr-13	sub2327	2327	2	1	27	5	1	5	2	1	1	2	0	0.63418	0	0.9	0	15	45	46	0	
23-Apr-13	sub2327	2327	2	1	28	5	1	2	5	1	1	2	1	0.51311	1	0.9	0	12	30	31	0	
23-Apr-13	sub2327	2327	2	1	29	5	1	5	2	1	1	1	1	0.59276	1	0.9	0	15	35	36	0	
23-Apr-13	sub2327	2327	2	1	30	5	1	3	4	1	0	1	0	0.47164	1	0.8	0	13	34	49	1	
23-Apr-13	sub2327	2327	2	1	31	5	1	6	3	2	0	2	0	0.47161	1	0.8	0	16	37	48	1	
23-Apr-13	sub2327	2327	2	1	32	5	1	5	2	1	1	2	0	0.54563	0	0.8	0	15	45	46	0	
23-Apr-13	sub2327	2327	2	1	33	5	1	3	4	1	1	1	1	0.45552	1	0.8	0	13	32	33	1	
23-Apr-13	sub2327	2327	2	1	34	5	1	1	1	1	1	1	1	0.37103	1	0.8	0	11	30	31	1	
23-Apr-13	sub2327	2327	2	1	35	5	1	1	1	1	1	1	1	0.43903	1	0.7	0	11	30	31	1	
23-Apr-13	sub2327	2327	2	1	36	5	1	3	4	1	1	1	1	0.4243	1	0.7	0	13	32	33	1	
23-Apr-13	sub2327	2327	2	1	37	5	1	6	3	2	0	1	1	0.3465	0	0.7	0	16	47	38	1	
23-Apr-13	sub2327	2327	2	1	38	5	1	3	4	1	1	1	1	0.35309	1	0.7	0	13	32	33	1	
23-Apr-13	sub2327	2327	2	1	39	5	1	4	6	4	1	1	0	0.59609	0	0.7	0	14	42	43	0	
23-Apr-13	sub2327	2327	2	1	40	5	1	1	1	1	1	1	1	0.39835	1	0.7	0	11	30	31	1	
23-Apr-13	sub2327	2327	2	1	41	5	1	1	1	1	1	1	1	0.42306	1	0.6	0	11	30	31	1	
23-Apr-13	sub2327	2327	2	1	42	5	1	6	3	2	0	1	1	0.37577	0	0.6	0	16	47	38	1	
23-Apr-13	sub2327	2327	2	1	43	5	1	4	6	4	1	1	0	0.54289	0	0.6	0	14	42	43	0	
23-Apr-13	sub2327	2327	2	1	44	5	1	5	2	1	0	1	0	0.53391	1	0.6	0	15	37	48	0	
23-Apr-13	sub2327	2327	2	1	45	5	1	1	1	1	1	1	1	0.35484	1	0.6	0	11	30	31	1	
23-Apr-13	sub2327	2327	2	1	46	5	1	1	1	1	1	1	1	0.37812	1	0.6	0	11	30	31	1	
23-Apr-13	sub2327	2327	2	1	47	5	1	2	5	1	1	2	1	0.44018	1	0.6	0	12	30	31	1	
23-Apr-13	sub2327	2327	2	1	48	5	1	3	4	1	1	1	1	0.44134	1	0.6	0	13	32	33	1	
23-Apr-13	sub2327	2327	2	1	49	5	1	4	6	4	1	1	0	0.51415	0	0.6	0	14	42	43	0	
23-Apr-13	sub2327	2327	2	1	50	5	1	3	4	1	0	1	0	0.45145	1	0.6	0	13	34	49	1	
23-Apr-13	sub2327	2327	2	1	51	5	1	2	5	1	1	2	1	0.54853	1	0.5	1	12	30	51	0	
23-Apr-13	sub2327	2327	2	1	52	5	1	6	3	2	1	2	1	0.43926	1	0.7	0	16	35	36	1	
23-Apr-13	sub2327	2327	2	1	53	5	1	4	6	4	1	2	1	0.55777	1	0.7	0	14	32	33	0	
23-Apr-13	sub2327	2327	2	1	54	5	1	5	2	1	0	1	0	0.5119	1	0.7	0	15	37	48	0	
23-Apr-13	sub2327	2327	2	1	55	5	1	2	5	1	1	2	1	0.44654	1	0.7	0	12	30	31	1	
23-Apr-13	sub2327	2327	2	1	56	5	1	6	3	2	0	2	0	0.41133	1	0.7	0	16	37	48	1	
23-Apr-13	sub2327	2327	2	1	57	5	1	4	6	4	1	2	1	0.4861	1	0.7	0	14	32	33	1	
23-Apr-13	sub2327	2327	2	1	58	5	1	3	4	1	1	1	1	0.49358	1	0.7	0	13	32	33	1	
23-Apr-13	sub2327	2327	2	1	59	5	1	4	6	4	1	1	0	0.49319	0	0.7	0	14	42	43	1	
23-Apr-13	sub2327	2327	2	1	60	5	1	3	4	1	1	1	1	0.50405	1	0.7	0	13	32	33	0	
23-Apr-13	sub2327	2327	2	1	61	5	1	2	5	1	1	2	1	0.52417	1	0.6	0	12	30	31	0	
23-Apr-13	sub2327	2327	2	1	62	5	1	6	3	2	1	2	1	0.40402	1	0.6	0	16	35	36	1	
23-Apr-13	sub2327	2327	2	1	63	5	1	2	5	1	1	2	1	0.48499	1	0.6	0	12	30	31	1	
23-Apr-13	sub2327	2327	2	1	64	5	1	2	5	1	1	2	1	0.39792	1	0.6	0	12	30	31	1	
23-Apr-13	sub2327	2327	2	1	65	5	1	6	3	2	0	2	0	0.6074	1	0.6	1	16	37	51	0	
23-Apr-13	sub2327	2327	2	1	66	5	1	6	3	2	1	2	1	0.42275	1	0.8	0	16	35	36	1	
23-Apr-13	sub2327	2327	2	1	67	5	1	5	2	1	1	1	1	0.37865	1	0.8	0	15	35	36	1	
23-Apr-13	sub2327	2327	2	1	68	5	1	6	3	2	0	1	1	0.39472	0	0.7	0	16	47	38	1	
23-Apr-13	sub2327	2327	2	1	69	5	1	3	4	1	1	1	1	0.36931	1	0.7	0	13	32	33	1	
23-Apr-13	sub2327	2327	2	1	70	5	1	6	3	2	0	1	1	0.40312	0	0.7	0	16	47	38	1	
23-Apr-13	sub2327	2327	2	1	71	5	1	2	5	1	1	2	1	0.50908	1	0.7	0	12	30	31	0	
23-Apr-13	sub2327	2327	2	1	72	5	1	2	5	1	1	2	1	0.47126	1	0.7	0	12	30	31	1	
23-Apr-13	sub2327	2327	2	1	73	5	1	5	2	1	0	2	1	0.38363	0	0.7	0	15	47	38	1	
23-Apr-13	sub2327	2327	2	1	74	5	1	4	6	4	0	2	0	0.52039	1	0.7	0	14	34	49	0	
23-Apr-13	sub2327	2327	2	1	75	5	1	5	2	1	0	2	1	0.46549	0	0.7	0	15	47	38	1	
23-Apr-13	sub2327	2327	2	1	76	5	2	4	6	4	1	2	1	0.46764	1	0.7	0	24	62	63	1	
23-Apr-13	sub2327	2327	2	1	77	5	2	6	3	2	0	2	0	0.43783	1	0.7	0	26	67	88	1	
23-Apr-13	sub2327	2327	2	1	78	5	2	5	2	1	0	2	1	0.37574	0	0.7	0	25	87	68	1	
23-Apr-13	sub2327	2327	2	1	79	5	2	5	2	1	0	2	1	0.39957	0	0.7	0	25	87	68	1	
23-Apr-13	sub2327	2327	2	1	80	5	2	1	1	1	1	1	1	0.42556	1	0.7	0	21	60	61	1	
23-Apr-13	sub2327	2327	2	1	81	5	2	4	6	4	1	2	1	0.47635	1	0.6	0	24	62	63	1	
23-Apr-13	sub2327	2327	2	1	82	5	2	3	4	1	1	1	1	0.38407	1	0.6	0	23	62	63	1	
23-Apr-13	sub2327	2327	2	1	83	5	2	4	6	4	1	2	1	0.43674	1	0.6	0	24	62	63	1	
23-Apr-13	sub2327	2327	2	1	84	5	2	2	5	1	1	2	1	0.50992	1	0.6	0	22	60	61	0	
23-Apr-13	sub2327	2327	2	1	85	5	2	2	5	1	1	2	1	0.4353	1	0.6	0	22	60	61	1	
23-Apr-13	sub2327	2327	2	1	86	5	2	3	4	1	1	2	0	0.45421	0	0.6	0	23	82	83	1	
23-Apr-13	sub2327	2327	2	1	87	5	2	6	3	2	1	2	1	0.5448	1	0.6	0	26	65	66	0	
23-Apr-13	sub2327	2327	2	1	88	5	2	1	1	1	1	1	1	0.42381	1	0.6	0	21	60	61	1	
23-Apr-13	sub2327	2327	2	1	89	5	2	3	4	1	1	1	1	0.44167	1	0.6	0	23	62	63	1	
23-Apr-13	sub2327	2327	2	1	90	5	2	2	5	1	1	2	1	0.45679	1	0.6	0	22	60	61	1	
23-Apr-13	sub2327	2327	2	1	91	5	2	3	4	1	0	1	0	0.4751	1	0.6	0	23	64	89	1	
23-Apr-13	sub2327	2327	2	1	92	5	2	6	3	2	1	2	1	0.53015	1	0.6	0	26	65	66	0	
23-Apr-13	sub2327	2327	2	1	93	5	2	5	2	1	0	2	1	0.55829	0	0.6	0	25	87	68	0	
23-Apr-13	sub2327	2327	2	1	94	5	2	4	6	4	1	2	1	0.46805	1	0.6	0	24	62	63	1	
23-Apr-13	sub2327	2327	2	1	95	5	2	2	5	1	1	2	1	0.46805	1	0.6	0	22	60	61	1	
23-Apr-13	sub2327	2327	2	1	96	5	2	5	2	1	0	2	1	0.60039	0	0.6	1	25	87	51	0	
23-Apr-13	sub2327	2327	2	1	97	5	2	4	6	4	0	2	0	0.43101	1	0.7	0	24	64	89	1	
23-Apr-13	sub2327	2327	2	1	98	5	2	3	4	1	1	1	1	0.54552	1	0.7	0	23	62	63	0	
23-Apr-13	sub2327	2327	2	1	99	5	2	4	6	4	1	2	1	0.46767	1	0.7	0	24	62	63	1	
23-Apr-13	sub2327	2327	2	1	100	5	2	2	5	1	1	2	1	0.46285	1	0.7	0	22	60	61	1	
23-Apr-13	sub2327	2327	2	1	101	5	2	3	4	1	1	2	0	0.43732	0	0.6	0	23	82	83	1	
23-Apr-13	sub2327	2327	2	1	102	5	2	5	2	1	0	2	1	0.52884	0	0.6	0	25	87	68	0	
23-Apr-13	sub2327	2327	2	1	103	5	2	1	1	1	1	1	1	0.40508	1	0.6	0	21	60	61	1	
23-Apr-13	sub2327	2327	2	1	104	5	2	4	6	4	1	2	1	0.33974	1	0.6	0	24	62	63	1	
23-Apr-13	sub2327	2327	2	1	105	5	2	2	5	1	1	2	1	0.48359	1	0.6	0	22	60	61	1	
23-Apr-13	sub2327	2327	2	1	106	5	2	1	1	1	1	1	1	0.46076	1	0.6	0	21	60	61	1	
23-Apr-13	sub2327	2327	2	1	107	5	2	6	3	2	0	2	0	0.3826	1	0.6	0	26	67	88	1	
23-Apr-13	sub2327	2327	2	1	108	5	2	2	5	1	1	2	1	0.48932	1	0.6	0	22	60	61	1	
23-Apr-13	sub2327	2327	2	1	109	5	2	1	1	1	1	1	1	0.50812	1	0.6	0	21	60	61	0	
23-Apr-13	sub2327	2327	2	1	110	5	2	3	4	1	0	1	0	0.48785	1	0.6	0	23	64	89	1	
23-Apr-13	sub2327	2327	2	1	111	5	2	6	3	2	0	1	1	0.35685	0	0.6	0	26	87	68	1	
23-Apr-13	sub2327	2327	2	1	112	5	2	6	3	2	0	1	1	0.39994	0	0.6	0	26	87	68	1	
23-Apr-13	sub2327	2327	2	1	113	5	2	6	3	2	0	1	1	0.37918	0	0.6	0	26	87	68	1	
23-Apr-13	sub2327	2327	2	1	114	5	2	3	4	1	1	1	1	0.36404	1	0.6	0	23	62	63	1	
23-Apr-13	sub2327	2327	2	1	115	5	2	6	3	2	1	1	0	0.35261	0	0.6	0	26	85	86	1	
23-Apr-13	sub2327	2327	2	1	116	5	2	6	3	2	1	1	0	0.3841	0	0.6	0	26	85	86	1	
23-Apr-13	sub2327	2327	2	1	117	5	2	5	2	1	0	2	1	0.52706	0	0.6	0	25	87	68	0	
23-Apr-13	sub2327	2327	2	1	118	5	2	4	6	4	1	2	1	0.50429	1	0.6	0	24	62	63	0	
23-Apr-13	sub2327	2327	2	1	119	5	2	6	3	2	1	1	0	0.44161	0	0.6	0	26	85	86	1	
23-Apr-13	sub2327	2327	2	1	120	5	2	3	4	1	1	1	1	0.40583	1	0.6	0	23	62	63	1	
23-Apr-13	sub2327	2327	2	1	121	5	2	4	6	4	1	2	1	0.48047	1	0.6	0	24	62	63	1	
23-Apr-13	sub2327	2327	2	1	122	5	2	4	6	4	0	2	0	0.47684	1	0.6	0	24	64	89	1	
23-Apr-13	sub2327	2327	2	1	123	5	2	2	5	1	1	2	1	0.5434	1	0.6	0	22	60	61	0	
23-Apr-13	sub2327	2327	2	1	124	5	2	2	5	1	1	2	1	0.47206	1	0.6	0	22	60	61	1	
23-Apr-13	sub2327	2327	2	1	125	5	2	1	1	1	1	1	1	0.39409	1	0.6	0	21	60	61	1	
23-Apr-13	sub2327	2327	2	1	126	5	2	4	6	4	1	2	1	0.50234	1	0.5	1	24	62	51	0	
23-Apr-13	sub2327	2327	2	1	127	5	2	1	1	1	1	2	0	0.40226	0	0.6	0	21	80	81	1	
23-Apr-13	sub2327	2327	2	1	128	5	2	3	4	1	1	1	1	0.4152	1	0.6	0	23	62	63	1	
23-Apr-13	sub2327	2327	2	1	129	5	2	3	4	1	1	2	0	0.40053	0	0.6	0	23	82	83	1	
23-Apr-13	sub2327	2327	2	1	130	5	2	4	6	4	0	2	0	0.47204	1	0.6	0	24	64	89	1	
23-Apr-13	sub2327	2327	2	1	131	5	2	5	2	1	0	2	1	0.54887	0	0.6	0	25	87	68	0	
23-Apr-13	sub2327	2327	2	1	132	5	2	4	6	4	1	2	1	0.41832	1	0.6	0	24	62	63	1	
23-Apr-13	sub2327	2327	2	1	133	5	2	2	5	1	1	2	1	0.54899	1	0.6	0	22	60	61	0	
23-Apr-13	sub2327	2327	2	1	134	5	2	1	1	1	1	1	1	0.45822	1	0.6	0	21	60	61	1	
23-Apr-13	sub2327	2327	2	1	135	5	2	5	2	1	0	2	1	0.54919	0	0.6	0	25	87	68	0	
23-Apr-13	sub2327	2327	2	1	136	5	2	1	1	1	1	1	1	0.3335	1	0.6	0	21	60	61	1	
23-Apr-13	sub2327	2327	2	1	137	5	2	5	2	1	0	2	1	0.37892	0	0.6	0	25	87	68	1	
23-Apr-13	sub2327	2327	2	1	138	5	2	1	1	1	1	1	1	0.48575	1	0.6	0	21	60	61	1	
23-Apr-13	sub2327	2327	2	1	139	5	2	5	2	1	0	2	1	0.39311	0	0.6	0	25	87	68	1	
23-Apr-13	sub2327	2327	2	1	140	5	2	6	3	2	0	1	1	0.47622	0	0.6	0	26	87	68	1	
23-Apr-13	sub2327	2327	2	1	141	5	2	1	1	1	1	1	1	0.35337	1	0.6	0	21	60	61	1	
23-Apr-13	sub2327	2327	2	1	142	5	2	6	3	2	1	1	0	0.37122	0	0.6	0	26	85	86	1	
23-Apr-13	sub2327	2327	2	1	143	5	2	3	4	1	1	1	1	0.40441	1	0.6	0	23	62	63	1	
23-Apr-13	sub2327	2327	2	1	144	5	2	5	2	1	0	2	1	0.45076	0	0.6	0	25	87	68	1	
23-Apr-13	sub2327	2327	2	1	145	5	2	1	1	1	1	1	1	0.50801	1	0.6	0	21	60	61	0	
23-Apr-13	sub2327	2327	2	1	146	5	2	2	5	1	1	2	1	0.48762	1	0.6	0	22	60	61	1	
23-Apr-13	sub2327	2327	2	1	147	5	2	2	5	1	1	2	1	0.45232	1	0.6	0	22	60	61	1	
23-Apr-13	sub2327	2327	2	1	148	5	2	1	1	1	1	1	1	0.47373	1	0.6	0	21	60	61	1	
23-Apr-13	sub2327	2327	2	1	149	5	2	5	2	1	0	2	1	0.42026	0	0.6	0	25	87	68	1	
23-Apr-13	sub2327	2327	2	1	150	5	2	5	2	1	0	2	1	0.45056	0	0.6	0	25	87	68	1	
23-Apr-13	sub2327	2327	2	1	1	6	1	6	3	4	0	1	1	0.30203	0	0.6	0	16	47	38	1	
23-Apr-13	sub2327	2327	2	1	2	6	1	4	4	4	1	1	0	0.3108	0	0.3	1	14	42	51	1	
23-Apr-13	sub2327	2327	2	1	3	6	1	2	6	2	1	1	0	0.40016	0	0.9	0	12	40	41	1	
23-Apr-13	sub2327	2327	2	1	4	6	1	6	3	4	0	1	1	0.38948	0	0.9	0	16	47	38	1	
23-Apr-13	sub2327	2327	2	1	5	6	1	6	3	4	0	1	1	0.44112	0	0.9	0	16	47	38	1	
23-Apr-13	sub2327	2327	2	1	6	6	1	2	6	2	1	1	0	0.34811	0	0.9	0	12	40	41	1	
23-Apr-13	sub2327	2327	2	1	7	6	1	4	4	4	0	1	1	0.52766	0	0.9	0	14	44	39	0	
23-Apr-13	sub2327	2327	2	1	8	6	1	4	4	4	0	1	1	0.4311	0	0.9	0	14	44	39	1	
23-Apr-13	sub2327	2327	2	1	9	6	1	4	4	4	1	1	0	0.40867	0	0.9	0	14	42	43	1	
23-Apr-13	sub2327	2327	2	1	10	6	1	2	6	2	1	2	1	0.42108	1	0.9	0	12	30	31	1	
23-Apr-13	sub2327	2327	2	1	11	6	1	1	5	4	1	1	1	0.48186	1	0.9	0	11	30	31	1	
23-Apr-13	sub2327	2327	2	1	12	6	1	3	2	3	1	2	0	0.58521	0	0.9	0	13	42	43	0	
23-Apr-13	sub2327	2327	2	1	13	6	1	6	3	4	0	1	1	0.45163	0	0.9	0	16	47	38	1	
23-Apr-13	sub2327	2327	2	1	14	6	1	4	4	4	1	1	0	0.3893	0	0.9	0	14	42	43	1	
23-Apr-13	sub2327	2327	2	1	15	6	1	2	6	2	1	1	0	0.45508	0	0.9	0	12	40	41	1	
23-Apr-13	sub2327	2327	2	1	16	6	1	3	2	3	0	1	0	0.36294	1	0.8	0	13	34	49	1	
23-Apr-13	sub2327	2327	2	1	17	6	1	1	5	4	1	2	0	0.51003	0	0.8	0	11	40	41	0	
23-Apr-13	sub2327	2327	2	1	18	6	1	2	6	2	1	2	1	0.57126	1	0.7	0	12	30	31	0	
23-Apr-13	sub2327	2327	2	1	19	6	1	6	3	4	1	1	0	0.295	0	0.7	0	16	45	46	1	
23-Apr-13	sub2327	2327	2	1	20	6	1	2	6	2	1	1	0	0.45779	0	0.7	0	12	40	41	1	
23-Apr-13	sub2327	2327	2	1	21	6	1	5	1	3	1	2	0	0.54975	0	0.6	0	15	45	46	0	
23-Apr-13	sub2327	2327	2	1	22	6	1	3	2	3	1	2	0	0.51232	0	0.6	0	13	42	43	0	
23-Apr-13	sub2327	2327	2	1	23	6	1	4	4	4	1	2	1	0.61635	1	0.6	1	14	32	51	0	
23-Apr-13	sub2327	2327	2	1	24	6	1	2	6	2	1	2	1	0.5829	1	0.9	0	12	30	31	0	
23-Apr-13	sub2327	2327	2	1	25	6	1	2	6	2	1	2	1	0.44591	1	0.9	0	12	30	31	1	
23-Apr-13	sub2327	2327	2	1	26	6	1	4	4	4	1	2	1	0.64918	1	0.9	0	14	32	33	0	
23-Apr-13	sub2327	2327	2	1	27	6	1	4	4	4	1	2	1	0.43584	1	0.9	0	14	32	33	1	
23-Apr-13	sub2327	2327	2	1	28	6	1	5	1	3	1	1	1	0.42125	1	0.9	0	15	35	36	1	
23-Apr-13	sub2327	2327	2	1	29	6	1	6	3	4	1	1	0	0.48757	0	0.9	0	16	45	46	1	
23-Apr-13	sub2327	2327	2	1	30	6	1	4	4	4	1	2	1	0.5707	1	0.8	0	14	32	33	0	
23-Apr-13	sub2327	2327	2	1	31	6	1	2	6	2	1	2	1	0.54422	1	0.8	0	12	30	31	0	
23-Apr-13	sub2327	2327	2	1	32	6	1	1	5	4	1	1	1	0.57939	1	0.8	0	11	30	31	0	
23-Apr-13	sub2327	2327	2	1	33	6	1	5	1	3	0	1	0	0.46882	1	0.8	0	15	37	48	1	
23-Apr-13	sub2327	2327	2	1	34	6	1	1	5	4	1	1	1	0.45942	1	0.8	0	11	30	31	1	
23-Apr-13	sub2327	2327	2	1	35	6	1	4	4	4	1	2	1	0.55159	1	0.7	0	14	32	33	0	
23-Apr-13	sub2327	2327	2	1	36	6	1	3	2	3	0	2	1	0.6394	0	0.7	0	13	44	39	0	
23-Apr-13	sub2327	2327	2	1	37	6	1	1	5	4	1	1	1	0.56205	1	0.7	0	11	30	31	0	
23-Apr-13	sub2327	2327	2	1	38	6	1	6	3	4	1	1	0	0.40001	0	0.7	0	16	45	46	1	
23-Apr-13	sub2327	2327	2	1	39	6	1	1	5	4	1	1	1	0.47087	1	0.7	0	11	30	31	1	
23-Apr-13	sub2327	2327	2	1	40	6	1	3	2	3	1	1	1	0.42964	1	0.7	0	13	32	33	1	
23-Apr-13	sub2327	2327	2	1	41	6	1	5	1	3	0	2	1	0.43019	0	0.6	0	15	47	38	1	
23-Apr-13	sub2327	2327	2	1	42	6	1	3	2	3	1	2	0	0.45847	0	0.6	0	13	42	43	1	
23-Apr-13	sub2327	2327	2	1	43	6	1	5	1	3	1	1	1	0.50742	1	0.6	0	15	35	36	0	
23-Apr-13	sub2327	2327	2	1	44	6	1	6	3	4	1	1	0	0.32544	0	0.6	0	16	45	46	1	
23-Apr-13	sub2327	2327	2	1	45	6	1	5	1	3	0	1	0	0.42981	1	0.6	0	15	37	48	1	
23-Apr-13	sub2327	2327	2	1	46	6	1	3	2	3	1	1	1	0.50926	1	0.6	0	13	32	33	0	
23-Apr-13	sub2327	2327	2	1	47	6	1	1	5	4	1	1	1	0.41653	1	0.6	0	11	30	31	1	
23-Apr-13	sub2327	2327	2	1	48	6	1	1	5	4	1	2	0	0.39871	0	0.6	0	11	40	41	1	
23-Apr-13	sub2327	2327	2	1	49	6	1	6	3	4	0	1	1	0.35548	0	0.6	0	16	47	38	1	
23-Apr-13	sub2327	2327	2	1	50	6	1	6	3	4	0	1	1	0.3579	0	0.6	0	16	47	38	1	
23-Apr-13	sub2327	2327	2	1	51	6	1	1	5	4	1	1	1	0.34997	1	0.5	0	11	30	31	1	
23-Apr-13	sub2327	2327	2	1	52	6	1	5	1	3	1	1	1	0.40587	1	0.5	0	15	35	36	1	
23-Apr-13	sub2327	2327	2	1	53	6	1	6	3	4	1	1	0	0.41922	0	0.5	0	16	45	46	1	
23-Apr-13	sub2327	2327	2	1	54	6	1	5	1	3	0	1	0	0.35645	1	0.5	0	15	37	48	1	
23-Apr-13	sub2327	2327	2	1	55	6	1	3	2	3	1	1	1	0.31315	1	0.5	0	13	32	33	1	
23-Apr-13	sub2327	2327	2	1	56	6	1	5	1	3	1	1	1	0.37528	1	0.5	0	15	35	36	1	
23-Apr-13	sub2327	2327	2	1	57	6	1	5	1	3	1	1	1	0.37073	1	0.5	0	15	35	36	1	
23-Apr-13	sub2327	2327	2	1	58	6	1	6	3	4	0	1	1	0.37149	0	0.5	0	16	47	38	1	
23-Apr-13	sub2327	2327	2	1	59	6	1	2	6	2	1	2	1	0.47233	1	0.5	0	12	30	31	1	
23-Apr-13	sub2327	2327	2	1	60	6	1	1	5	4	1	1	1	0.43897	1	0.5	0	11	30	31	1	
23-Apr-13	sub2327	2327	2	1	61	6	1	1	5	4	1	1	1	0.42463	1	0.5	0	11	30	31	1	
23-Apr-13	sub2327	2327	2	1	62	6	1	3	2	3	1	1	1	0.49104	1	0.5	0	13	32	33	1	
23-Apr-13	sub2327	2327	2	1	63	6	1	2	6	2	1	2	1	0.54955	1	0.5	1	12	30	51	0	
23-Apr-13	sub2327	2327	2	1	64	6	1	1	5	4	1	1	1	0.46317	1	0.6	0	11	30	31	1	
23-Apr-13	sub2327	2327	2	1	65	6	1	2	6	2	1	2	1	0.60565	1	0.6	1	12	30	51	0	
23-Apr-13	sub2327	2327	2	1	66	6	1	5	1	3	0	1	0	0.46599	1	0.8	0	15	37	48	1	
23-Apr-13	sub2327	2327	2	1	67	6	1	3	2	3	1	1	1	0.33172	1	0.8	0	13	32	33	1	
23-Apr-13	sub2327	2327	2	1	68	6	1	4	4	4	1	2	1	0.50493	1	0.7	0	14	32	33	0	
23-Apr-13	sub2327	2327	2	1	69	6	1	3	2	3	1	1	1	0.64004	1	0.7	0	13	32	33	0	
23-Apr-13	sub2327	2327	2	1	70	6	1	5	1	3	1	1	1	0.36302	1	0.7	0	15	35	36	1	
23-Apr-13	sub2327	2327	2	1	71	6	1	3	2	3	1	1	1	0.49232	1	0.7	0	13	32	33	1	
23-Apr-13	sub2327	2327	2	1	72	6	1	3	2	3	0	1	0	0.40096	1	0.7	0	13	34	49	1	
23-Apr-13	sub2327	2327	2	1	73	6	1	2	6	2	1	2	1	0.51756	1	0.7	0	12	30	31	0	
23-Apr-13	sub2327	2327	2	1	74	6	1	4	4	4	1	2	1	0.5863	1	0.7	0	14	32	33	0	
23-Apr-13	sub2327	2327	2	1	75	6	1	6	3	4	1	1	0	0.44184	0	0.7	0	16	45	46	1	
23-Apr-13	sub2327	2327	2	1	76	6	2	4	4	4	1	1	0	0.42032	0	0.7	0	24	82	83	1	
23-Apr-13	sub2327	2327	2	1	77	6	2	6	3	4	0	1	1	0.47849	0	0.7	0	26	87	68	1	
23-Apr-13	sub2327	2327	2	1	78	6	2	6	3	4	1	1	0	0.39498	0	0.7	0	26	85	86	1	
23-Apr-13	sub2327	2327	2	1	79	6	2	1	5	4	1	1	1	0.49086	1	0.7	0	21	60	61	1	
23-Apr-13	sub2327	2327	2	1	80	6	2	5	1	3	0	1	0	0.39908	1	0.7	0	25	67	88	1	
23-Apr-13	sub2327	2327	2	1	81	6	2	5	1	3	0	1	0	0.5547	1	0.6	0	25	67	88	0	
23-Apr-13	sub2327	2327	2	1	82	6	2	2	6	2	1	2	1	0.48152	1	0.6	0	22	60	61	1	
23-Apr-13	sub2327	2327	2	1	83	6	2	4	4	4	0	2	0	0.57654	1	0.6	0	24	64	89	0	
23-Apr-13	sub2327	2327	2	1	84	6	2	1	5	4	1	2	0	0.46115	0	0.6	0	21	80	81	1	
23-Apr-13	sub2327	2327	2	1	85	6	2	4	4	4	1	2	1	0.52585	1	0.6	0	24	62	63	0	
23-Apr-13	sub2327	2327	2	1	86	6	2	5	1	3	0	1	0	0.45143	1	0.6	0	25	67	88	1	
23-Apr-13	sub2327	2327	2	1	87	6	2	1	5	4	1	1	1	0.40423	1	0.6	0	21	60	61	1	
23-Apr-13	sub2327	2327	2	1	88	6	2	3	2	3	1	1	1	0.36941	1	0.6	0	23	62	63	1	
23-Apr-13	sub2327	2327	2	1	89	6	2	5	1	3	0	2	1	0.51807	0	0.6	0	25	87	68	0	
23-Apr-13	sub2327	2327	2	1	90	6	2	1	5	4	1	1	1	0.51705	1	0.6	0	21	60	61	0	
23-Apr-13	sub2327	2327	2	1	91	6	2	1	5	4	1	1	1	0.42906	1	0.6	0	21	60	61	1	
23-Apr-13	sub2327	2327	2	1	92	6	2	2	6	2	1	2	1	0.50018	1	0.6	0	22	60	61	1	
23-Apr-13	sub2327	2327	2	1	93	6	2	4	4	4	1	1	0	0.44808	0	0.6	0	24	82	83	1	
23-Apr-13	sub2327	2327	2	1	94	6	2	3	2	3	1	1	1	0.53906	1	0.6	0	23	62	63	0	
23-Apr-13	sub2327	2327	2	1	95	6	2	1	5	4	1	1	1	0.39653	1	0.6	0	21	60	61	1	
23-Apr-13	sub2327	2327	2	1	96	6	2	4	4	4	0	2	0	0.56806	1	0.6	0	24	64	89	0	
23-Apr-13	sub2327	2327	2	1	97	6	2	6	3	4	1	1	0	0.52117	0	0.6	0	26	85	86	0	
23-Apr-13	sub2327	2327	2	1	98	6	2	1	5	4	1	1	1	0.55877	1	0.6	0	21	60	61	0	
23-Apr-13	sub2327	2327	2	1	99	6	2	2	6	2	1	2	1	0.55537	1	0.6	0	22	60	61	0	
23-Apr-13	sub2327	2327	2	1	100	6	2	2	6	2	1	2	1	0.43477	1	0.6	0	22	60	61	1	
23-Apr-13	sub2327	2327	2	1	101	6	2	1	5	4	1	1	1	0.51367	1	0.5	1	21	60	51	0	
23-Apr-13	sub2327	2327	2	1	102	6	2	3	2	3	1	1	1	0.41178	1	0.6	0	23	62	63	1	
23-Apr-13	sub2327	2327	2	1	103	6	2	6	3	4	0	1	1	0.4532	0	0.6	0	26	87	68	1	
23-Apr-13	sub2327	2327	2	1	104	6	2	1	5	4	1	1	1	0.38764	1	0.6	0	21	60	61	1	
23-Apr-13	sub2327	2327	2	1	105	6	2	4	4	4	1	2	1	0.49307	1	0.6	0	24	62	63	1	
23-Apr-13	sub2327	2327	2	1	106	6	2	1	5	4	1	1	1	0.43462	1	0.6	0	21	60	61	1	
23-Apr-13	sub2327	2327	2	1	107	6	2	5	1	3	0	2	1	0.36208	0	0.6	0	25	87	68	1	
23-Apr-13	sub2327	2327	2	1	108	6	2	1	5	4	1	2	0	0.48363	0	0.6	0	21	80	81	1	
23-Apr-13	sub2327	2327	2	1	109	6	2	2	6	2	1	2	1	0.43943	1	0.6	0	22	60	61	1	
23-Apr-13	sub2327	2327	2	1	110	6	2	3	2	3	1	1	1	0.41997	1	0.6	0	23	62	63	1	
23-Apr-13	sub2327	2327	2	1	111	6	2	3	2	3	1	1	1	0.463	1	0.6	0	23	62	63	1	
23-Apr-13	sub2327	2327	2	1	112	6	2	5	1	3	0	2	1	0.54385	0	0.6	0	25	87	68	0	
23-Apr-13	sub2327	2327	2	1	113	6	2	3	2	3	1	1	1	0.35408	1	0.6	0	23	62	63	1	
23-Apr-13	sub2327	2327	2	1	114	6	2	5	1	3	0	2	1	0.38378	0	0.6	0	25	87	68	1	
23-Apr-13	sub2327	2327	2	1	115	6	2	5	1	3	0	2	1	0.40316	0	0.6	0	25	87	68	1	
23-Apr-13	sub2327	2327	2	1	116	6	2	3	2	3	1	1	1	0.41752	1	0.6	0	23	62	63	1	
23-Apr-13	sub2327	2327	2	1	117	6	2	3	2	3	1	1	1	0.41118	1	0.6	0	23	62	63	1	
23-Apr-13	sub2327	2327	2	1	118	6	2	6	3	4	0	1	1	0.3675	0	0.6	0	26	87	68	1	
23-Apr-13	sub2327	2327	2	1	119	6	2	4	4	4	1	2	1	0.40909	1	0.6	0	24	62	63	1	
23-Apr-13	sub2327	2327	2	1	120	6	2	4	4	4	1	1	0	0.34698	0	0.6	0	24	82	83	1	
23-Apr-13	sub2327	2327	2	1	121	6	2	5	1	3	0	1	0	0.32641	1	0.6	0	25	67	88	1	
23-Apr-13	sub2327	2327	2	1	122	6	2	2	6	2	1	2	1	0.49955	1	0.6	0	22	60	61	1	
23-Apr-13	sub2327	2327	2	1	123	6	2	2	6	2	1	2	1	0.42478	1	0.6	0	22	60	61	1	
23-Apr-13	sub2327	2327	2	1	124	6	2	3	2	3	1	1	1	0.50631	1	0.6	0	23	62	63	0	
23-Apr-13	sub2327	2327	2	1	125	6	2	4	4	4	1	2	1	0.44683	1	0.6	0	24	62	63	1	
23-Apr-13	sub2327	2327	2	1	126	6	2	1	5	4	1	1	1	0.40086	1	0.5	0	21	60	61	1	
23-Apr-13	sub2327	2327	2	1	127	6	2	3	2	3	0	1	0	0.50891	1	0.5	1	23	64	51	0	
23-Apr-13	sub2327	2327	2	1	128	6	2	6	3	4	0	1	1	0.51324	0	0.6	0	26	87	68	0	
23-Apr-13	sub2327	2327	2	1	129	6	2	5	1	3	0	2	1	0.43716	0	0.6	0	25	87	68	1	
23-Apr-13	sub2327	2327	2	1	130	6	2	6	3	4	0	2	0	0.39932	1	0.6	0	26	67	88	1	
23-Apr-13	sub2327	2327	2	1	131	6	2	5	1	3	0	2	1	0.48816	0	0.6	0	25	87	68	1	
23-Apr-13	sub2327	2327	2	1	132	6	2	2	6	2	1	2	1	0.51085	1	0.6	0	22	60	61	0	
23-Apr-13	sub2327	2327	2	1	133	6	2	4	4	4	1	2	1	0.51717	1	0.6	0	24	62	63	0	
23-Apr-13	sub2327	2327	2	1	134	6	2	6	3	4	1	2	1	0.39117	1	0.6	0	26	65	66	1	
23-Apr-13	sub2327	2327	2	1	135	6	2	2	6	2	1	2	1	0.48524	1	0.6	0	22	60	61	1	
23-Apr-13	sub2327	2327	2	1	136	6	2	2	6	2	1	2	1	0.40395	1	0.6	0	22	60	61	1	
23-Apr-13	sub2327	2327	2	1	137	6	2	3	2	3	1	2	0	0.45876	0	0.6	0	23	82	83	1	
23-Apr-13	sub2327	2327	2	1	138	6	2	6	3	4	0	1	1	0.62398	0	0.6	1	26	87	51	0	
23-Apr-13	sub2327	2327	2	1	139	6	2	2	6	2	1	2	1	0.47427	1	0.7	0	22	60	61	1	
23-Apr-13	sub2327	2327	2	1	140	6	2	6	3	4	1	1	0	0.39471	0	0.7	0	26	85	86	1	
23-Apr-13	sub2327	2327	2	1	141	6	2	4	4	4	0	2	0	0.48512	1	0.6	0	24	64	89	1	
23-Apr-13	sub2327	2327	2	1	142	6	2	6	3	4	1	1	0	0.58904	0	0.6	0	26	85	86	0	
23-Apr-13	sub2327	2327	2	1	143	6	2	4	4	4	1	2	1	0.51883	1	0.6	0	24	62	63	0	
23-Apr-13	sub2327	2327	2	1	144	6	2	4	4	4	1	2	1	0.43384	1	0.6	0	24	62	63	1	
23-Apr-13	sub2327	2327	2	1	145	6	2	2	6	2	1	1	0	0.33753	0	0.6	0	22	80	81	1	
23-Apr-13	sub2327	2327	2	1	146	6	2	6	3	4	1	1	0	0.45492	0	0.6	0	26	85	86	1	
23-Apr-13	sub2327	2327	2	1	147	6	2	3	2	3	0	1	0	0.46967	1	0.6	0	23	64	89	1	
23-Apr-13	sub2327	2327	2	1	148	6	2	1	5	4	1	2	0	0.38846	0	0.6	0	21	80	81	1	
23-Apr-13	sub2327	2327	2	1	149	6	2	5	1	3	0	2	1	0.54085	0	0.6	0	25	87	68	0	
23-Apr-13	sub2327	2327	2	1	150	6	2	5	1	3	0	2	1	0.40423	0	0.6	0	25	87	68	1	
