Date 	 Name 	 ID 	 Gender 	 Appearance 	 Trial 	 Block 	 Bin 	 Condition 	 Category 	 Number 	 Valid 	 Keypress 	 Correct 	 RT 	 Realcorrect 	 Deadline 	 Timeout 	 Stimtrigger 	 Resptrigger 	 Fedtrigger 	 WithinTime 	 
24-Apr-2013	sub2328	2328	  1	  1	  1	  1	  1	  6	  5	  6	  0	  1	  1	1.15252	  0	0.60000	  1	 16	 47	 51	  0	
24-Apr-2013	sub2328	2328	  1	  1	  2	  1	  1	  1	  4	  6	  1	  1	  1	0.63296	  1	0.90000	  0	 11	 30	 31	  0	
24-Apr-2013	sub2328	2328	  1	  1	  3	  1	  1	  3	  6	  4	  1	  1	  1	0.70946	  1	0.90000	  0	 13	 32	 33	  0	
24-Apr-2013	sub2328	2328	  1	  1	  4	  1	  1	  4	  3	  6	  1	  1	  0	0.72041	  0	0.90000	  0	 14	 42	 43	  0	
24-Apr-2013	sub2328	2328	  1	  1	  5	  1	  1	  5	  2	  1	  1	  1	  1	1.22509	  1	0.90000	  1	 15	 35	 51	  0	
24-Apr-2013	sub2328	2328	  1	  1	  6	  1	  1	  1	  4	  6	  1	  2	  0	0.33797	  0	0.90000	  0	 11	 40	 41	  1	
24-Apr-2013	sub2328	2328	  1	  1	  7	  1	  1	  2	  1	  2	  1	  1	  0	0.60464	  0	0.90000	  0	 12	 40	 41	  0	
24-Apr-2013	sub2328	2328	  1	  1	  8	  1	  1	  4	  3	  6	  0	  2	  0	0.84075	  1	0.90000	  0	 14	 34	 49	  0	
24-Apr-2013	sub2328	2328	  1	  1	  9	  1	  1	  5	  2	  1	  1	  2	  0	0.73237	  0	0.90000	  0	 15	 45	 46	  0	
24-Apr-2013	sub2328	2328	  1	  1	 10	  1	  1	  6	  5	  6	  0	  1	  1	0.61283	  0	0.90000	  0	 16	 47	 38	  0	
24-Apr-2013	sub2328	2328	  1	  1	 11	  1	  1	  3	  6	  4	  0	  2	  1	1.04063	  0	0.90000	  1	 13	 44	 51	  0	
24-Apr-2013	sub2328	2328	  1	  1	 12	  1	  1	  6	  5	  6	  1	  1	  0	0.51117	  0	0.90000	  0	 16	 45	 46	  0	
24-Apr-2013	sub2328	2328	  1	  1	 13	  1	  1	  3	  6	  4	  0	  2	  1	0.62797	  0	0.90000	  0	 13	 44	 39	  0	
24-Apr-2013	sub2328	2328	  1	  1	 14	  1	  1	  6	  5	  6	  0	  1	  1	0.44907	  0	0.90000	  0	 16	 47	 38	  1	
24-Apr-2013	sub2328	2328	  1	  1	 15	  1	  1	  4	  3	  6	  1	  1	  0	0.66276	  0	0.90000	  0	 14	 42	 43	  0	
24-Apr-2013	sub2328	2328	  1	  1	 16	  1	  1	  4	  3	  6	  1	  1	  0	0.61748	  0	0.90000	  0	 14	 42	 43	  0	
24-Apr-2013	sub2328	2328	  1	  1	 17	  1	  1	  5	  2	  1	  0	  2	  1	0.79702	  0	0.90000	  0	 15	 47	 38	  0	
24-Apr-2013	sub2328	2328	  1	  1	 18	  1	  1	  4	  3	  6	  1	  1	  0	0.50455	  0	0.90000	  0	 14	 42	 43	  0	
24-Apr-2013	sub2328	2328	  1	  1	 19	  1	  1	  5	  2	  1	  0	  2	  1	0.37940	  0	0.90000	  0	 15	 47	 38	  1	
24-Apr-2013	sub2328	2328	  1	  1	 20	  1	  1	  3	  6	  4	  0	  2	  1	0.54898	  0	0.90000	  0	 13	 44	 39	  0	
24-Apr-2013	sub2328	2328	  1	  1	 21	  1	  1	  1	  4	  6	  1	  1	  1	0.60576	  1	0.90000	  0	 11	 30	 31	  0	
24-Apr-2013	sub2328	2328	  1	  1	 22	  1	  1	  2	  1	  2	  1	  2	  1	0.50674	  1	0.90000	  0	 12	 30	 31	  0	
24-Apr-2013	sub2328	2328	  1	  1	 23	  1	  1	  1	  4	  6	  1	  1	  1	0.46292	  1	0.90000	  0	 11	 30	 31	  1	
24-Apr-2013	sub2328	2328	  1	  1	 24	  1	  1	  2	  1	  2	  1	  2	  1	0.56428	  1	0.90000	  0	 12	 30	 31	  0	
24-Apr-2013	sub2328	2328	  1	  1	 25	  1	  1	  2	  1	  2	  1	  2	  1	0.52867	  1	0.90000	  0	 12	 30	 31	  0	
24-Apr-2013	sub2328	2328	  1	  1	 26	  1	  1	  4	  3	  6	  0	  1	  1	0.49718	  0	0.90000	  0	 14	 44	 39	  1	
24-Apr-2013	sub2328	2328	  1	  1	 27	  1	  1	  6	  5	  6	  1	  2	  1	0.32384	  1	0.90000	  0	 16	 35	 36	  1	
24-Apr-2013	sub2328	2328	  1	  1	 28	  1	  1	  3	  6	  4	  1	  1	  1	0.42775	  1	0.90000	  0	 13	 32	 33	  1	
24-Apr-2013	sub2328	2328	  1	  1	 29	  1	  1	  2	  1	  2	  1	  1	  0	0.54202	  0	0.90000	  0	 12	 40	 41	  0	
24-Apr-2013	sub2328	2328	  1	  1	 30	  1	  1	  4	  3	  6	  1	  2	  1	0.40469	  1	0.90000	  0	 14	 32	 33	  1	
24-Apr-2013	sub2328	2328	  1	  1	 31	  1	  1	  2	  1	  2	  1	  1	  0	0.29674	  0	0.90000	  0	 12	 40	 41	  1	
24-Apr-2013	sub2328	2328	  1	  1	 32	  1	  1	  4	  3	  6	  1	  2	  1	0.26170	  1	0.90000	  0	 14	 32	 33	  1	
24-Apr-2013	sub2328	2328	  1	  1	 33	  1	  1	  1	  4	  6	  1	  2	  0	0.42400	  0	0.90000	  0	 11	 40	 41	  1	
24-Apr-2013	sub2328	2328	  1	  1	 34	  1	  1	  6	  5	  6	  0	  1	  1	0.30444	  0	0.90000	  0	 16	 47	 38	  1	
24-Apr-2013	sub2328	2328	  1	  1	 35	  1	  1	  6	  5	  6	  1	  1	  0	0.36941	  0	0.90000	  0	 16	 45	 46	  1	
24-Apr-2013	sub2328	2328	  1	  1	 36	  1	  1	  1	  4	  6	  1	  1	  1	0.36370	  1	0.90000	  0	 11	 30	 31	  1	
24-Apr-2013	sub2328	2328	  1	  1	 37	  1	  1	  4	  3	  6	  1	  1	  0	0.34279	  0	0.90000	  0	 14	 42	 43	  1	
24-Apr-2013	sub2328	2328	  1	  1	 38	  1	  1	  2	  1	  2	  1	  2	  1	0.19409	  1	0.90000	  0	 12	 30	 31	  1	
24-Apr-2013	sub2328	2328	  1	  1	 39	  1	  1	  5	  2	  1	  0	  1	  0	0.28169	  1	0.90000	  0	 15	 37	 48	  1	
24-Apr-2013	sub2328	2328	  1	  1	 40	  1	  1	  2	  1	  2	  1	  2	  1	0.31229	  1	0.90000	  0	 12	 30	 31	  1	
24-Apr-2013	sub2328	2328	  1	  1	 41	  1	  1	  6	  5	  6	  1	  1	  0	0.38936	  0	0.90000	  0	 16	 45	 46	  1	
24-Apr-2013	sub2328	2328	  1	  1	 42	  1	  1	  5	  2	  1	  1	  2	  0	0.24965	  0	0.90000	  0	 15	 45	 46	  1	
24-Apr-2013	sub2328	2328	  1	  1	 43	  1	  1	  6	  5	  6	  0	  2	  0	0.24098	  1	0.90000	  0	 16	 37	 48	  1	
24-Apr-2013	sub2328	2328	  1	  1	 44	  1	  1	  6	  5	  6	  1	  1	  0	0.37982	  0	0.80000	  0	 16	 45	 46	  1	
24-Apr-2013	sub2328	2328	  1	  1	 45	  1	  1	  4	  3	  6	  1	  2	  1	0.55061	  1	0.80000	  0	 14	 32	 33	  0	
24-Apr-2013	sub2328	2328	  1	  1	 46	  1	  1	  3	  6	  4	  1	  2	  0	0.41727	  0	0.80000	  0	 13	 42	 43	  1	
24-Apr-2013	sub2328	2328	  1	  1	 47	  1	  1	  4	  3	  6	  1	  1	  0	0.27172	  0	0.80000	  0	 14	 42	 43	  1	
24-Apr-2013	sub2328	2328	  1	  1	 48	  1	  1	  2	  1	  2	  1	  2	  1	0.27954	  1	0.80000	  0	 12	 30	 31	  1	
24-Apr-2013	sub2328	2328	  1	  1	 49	  1	  1	  6	  5	  6	  1	  1	  0	0.27715	  0	0.80000	  0	 16	 45	 46	  1	
24-Apr-2013	sub2328	2328	  1	  1	 50	  1	  1	  1	  4	  6	  1	  2	  0	0.25403	  0	0.80000	  0	 11	 40	 41	  1	
24-Apr-2013	sub2328	2328	  1	  1	 51	  1	  1	  3	  6	  4	  1	  2	  0	0.73886	  0	0.70000	  1	 13	 42	 51	  0	
24-Apr-2013	sub2328	2328	  1	  1	 52	  1	  1	  2	  1	  2	  1	  1	  0	0.36579	  0	0.90000	  0	 12	 40	 41	  1	
24-Apr-2013	sub2328	2328	  1	  1	 53	  1	  1	  3	  6	  4	  1	  2	  0	0.29039	  0	0.90000	  0	 13	 42	 43	  1	
24-Apr-2013	sub2328	2328	  1	  1	 54	  1	  1	  3	  6	  4	  1	  1	  1	0.27886	  1	0.90000	  0	 13	 32	 33	  1	
24-Apr-2013	sub2328	2328	  1	  1	 55	  1	  1	  5	  2	  1	  0	  1	  0	0.54841	  1	0.90000	  0	 15	 37	 48	  0	
24-Apr-2013	sub2328	2328	  1	  1	 56	  1	  1	  3	  6	  4	  1	  1	  1	0.40510	  1	0.90000	  0	 13	 32	 33	  1	
24-Apr-2013	sub2328	2328	  1	  1	 57	  1	  1	  3	  6	  4	  1	  1	  1	0.62215	  1	0.90000	  0	 13	 32	 33	  0	
24-Apr-2013	sub2328	2328	  1	  1	 58	  1	  1	  6	  5	  6	  0	  1	  1	0.36018	  0	0.90000	  0	 16	 47	 38	  1	
24-Apr-2013	sub2328	2328	  1	  1	 59	  1	  1	  2	  1	  2	  1	  1	  0	0.35547	  0	0.80000	  0	 12	 40	 41	  1	
24-Apr-2013	sub2328	2328	  1	  1	 60	  1	  1	  4	  3	  6	  1	  1	  0	0.60666	  0	0.80000	  0	 14	 42	 43	  0	
24-Apr-2013	sub2328	2328	  1	  1	 61	  1	  1	  1	  4	  6	  1	  1	  1	0.60319	  1	0.80000	  0	 11	 30	 31	  0	
24-Apr-2013	sub2328	2328	  1	  1	 62	  1	  1	  1	  4	  6	  1	  1	  1	0.53166	  1	0.80000	  0	 11	 30	 31	  0	
24-Apr-2013	sub2328	2328	  1	  1	 63	  1	  1	  5	  2	  1	  1	  1	  1	0.70649	  1	0.80000	  0	 15	 35	 36	  0	
24-Apr-2013	sub2328	2328	  1	  1	 64	  1	  1	  5	  2	  1	  1	  1	  1	0.47153	  1	0.80000	  0	 15	 35	 36	  1	
24-Apr-2013	sub2328	2328	  1	  1	 65	  1	  1	  5	  2	  1	  0	  1	  0	0.46808	  1	0.80000	  0	 15	 37	 48	  1	
24-Apr-2013	sub2328	2328	  1	  1	 66	  1	  1	  3	  6	  4	  1	  2	  0	0.52852	  0	0.80000	  0	 13	 42	 43	  0	
24-Apr-2013	sub2328	2328	  1	  1	 67	  1	  1	  2	  1	  2	  1	  1	  0	0.47555	  0	0.80000	  0	 12	 40	 41	  1	
24-Apr-2013	sub2328	2328	  1	  1	 68	  1	  1	  1	  4	  6	  1	  2	  0	0.27746	  0	0.70000	  0	 11	 40	 41	  1	
24-Apr-2013	sub2328	2328	  1	  1	 69	  1	  1	  5	  2	  1	  0	  2	  1	0.33252	  0	0.70000	  0	 15	 47	 38	  1	
24-Apr-2013	sub2328	2328	  1	  1	 70	  1	  1	  3	  6	  4	  1	  2	  0	0.41019	  0	0.70000	  0	 13	 42	 43	  1	
24-Apr-2013	sub2328	2328	  1	  1	 71	  1	  1	  2	  1	  2	  1	  2	  1	0.54381	  1	0.70000	  0	 12	 30	 31	  0	
24-Apr-2013	sub2328	2328	  1	  1	 72	  1	  1	  6	  5	  6	  0	  2	  0	0.43069	  1	0.70000	  0	 16	 37	 48	  1	
24-Apr-2013	sub2328	2328	  1	  1	 73	  1	  1	  1	  4	  6	  1	  1	  1	0.36194	  1	0.70000	  0	 11	 30	 31	  1	
24-Apr-2013	sub2328	2328	  1	  1	 74	  1	  1	  1	  4	  6	  1	  1	  1	0.35678	  1	0.70000	  0	 11	 30	 31	  1	
24-Apr-2013	sub2328	2328	  1	  1	 75	  1	  1	  5	  2	  1	  1	  1	  1	0.42237	  1	0.70000	  0	 15	 35	 36	  1	
24-Apr-2013	sub2328	2328	  1	  1	  1	  2	  1	  1	  4	  1	  1	  1	  1	0.52404	  1	0.60000	  0	 11	 30	 31	  0	
24-Apr-2013	sub2328	2328	  1	  1	  2	  2	  1	  4	  1	  5	  1	  1	  0	0.85745	  0	0.30000	  1	 14	 42	 51	  0	
24-Apr-2013	sub2328	2328	  1	  1	  3	  2	  1	  2	  2	  4	  1	  1	  0	0.61080	  0	0.90000	  0	 12	 40	 41	  0	
24-Apr-2013	sub2328	2328	  1	  1	  4	  2	  1	  6	  6	  5	  1	  2	  1	1.12305	  1	0.90000	  1	 16	 35	 51	  0	
24-Apr-2013	sub2328	2328	  1	  1	  5	  2	  1	  6	  6	  5	  0	  2	  0	0.54030	  1	0.90000	  0	 16	 37	 48	  0	
24-Apr-2013	sub2328	2328	  1	  1	  6	  2	  1	  6	  6	  5	  1	  1	  0	0.50765	  0	0.90000	  0	 16	 45	 46	  0	
24-Apr-2013	sub2328	2328	  1	  1	  7	  2	  1	  2	  2	  4	  1	  1	  0	0.58407	  0	0.90000	  0	 12	 40	 41	  0	
24-Apr-2013	sub2328	2328	  1	  1	  8	  2	  1	  6	  6	  5	  1	  2	  1	0.47275	  1	0.90000	  0	 16	 35	 36	  1	
24-Apr-2013	sub2328	2328	  1	  1	  9	  2	  1	  3	  3	  4	  1	  2	  0	0.52952	  0	0.90000	  0	 13	 42	 43	  0	
24-Apr-2013	sub2328	2328	  1	  1	 10	  2	  1	  4	  1	  5	  0	  1	  1	0.56626	  0	0.90000	  0	 14	 44	 39	  0	
24-Apr-2013	sub2328	2328	  1	  1	 11	  2	  1	  2	  2	  4	  1	  1	  0	0.67992	  0	0.90000	  0	 12	 40	 41	  0	
24-Apr-2013	sub2328	2328	  1	  1	 12	  2	  1	  5	  5	  1	  0	  1	  0	0.65535	  1	0.90000	  0	 15	 37	 48	  0	
24-Apr-2013	sub2328	2328	  1	  1	 13	  2	  1	  4	  1	  5	  1	  2	  1	0.59256	  1	0.90000	  0	 14	 32	 33	  0	
24-Apr-2013	sub2328	2328	  1	  1	 14	  2	  1	  4	  1	  5	  1	  2	  1	0.44807	  1	0.90000	  0	 14	 32	 33	  1	
24-Apr-2013	sub2328	2328	  1	  1	 15	  2	  1	  3	  3	  4	  1	  2	  0	0.57615	  0	0.90000	  0	 13	 42	 43	  0	
24-Apr-2013	sub2328	2328	  1	  1	 16	  2	  1	  6	  6	  5	  1	  2	  1	0.60169	  1	0.90000	  0	 16	 35	 36	  0	
24-Apr-2013	sub2328	2328	  1	  1	 17	  2	  1	  5	  5	  1	  0	  1	  0	0.60806	  1	0.90000	  0	 15	 37	 48	  0	
24-Apr-2013	sub2328	2328	  1	  1	 18	  2	  1	  3	  3	  4	  1	  2	  0	0.68406	  0	0.90000	  0	 13	 42	 43	  0	
24-Apr-2013	sub2328	2328	  1	  1	 19	  2	  1	  5	  5	  1	  0	  1	  0	0.90512	  1	0.90000	  1	 15	 37	 51	  0	
24-Apr-2013	sub2328	2328	  1	  1	 20	  2	  1	  6	  6	  5	  1	  2	  1	0.56568	  1	0.90000	  0	 16	 35	 36	  0	
24-Apr-2013	sub2328	2328	  1	  1	 21	  2	  1	  3	  3	  4	  0	  1	  0	0.48257	  1	0.90000	  0	 13	 34	 49	  1	
24-Apr-2013	sub2328	2328	  1	  1	 22	  2	  1	  4	  1	  5	  1	  2	  1	0.48568	  1	0.90000	  0	 14	 32	 33	  1	
24-Apr-2013	sub2328	2328	  1	  1	 23	  2	  1	  1	  4	  1	  1	  1	  1	0.76079	  1	0.90000	  0	 11	 30	 31	  0	
24-Apr-2013	sub2328	2328	  1	  1	 24	  2	  1	  2	  2	  4	  1	  1	  0	0.54403	  0	0.90000	  0	 12	 40	 41	  0	
24-Apr-2013	sub2328	2328	  1	  1	 25	  2	  1	  2	  2	  4	  1	  1	  0	0.46707	  0	0.90000	  0	 12	 40	 41	  1	
24-Apr-2013	sub2328	2328	  1	  1	 26	  2	  1	  5	  5	  1	  1	  2	  0	0.47919	  0	0.90000	  0	 15	 45	 46	  1	
24-Apr-2013	sub2328	2328	  1	  1	 27	  2	  1	  3	  3	  4	  0	  1	  0	0.48245	  1	0.90000	  0	 13	 34	 49	  1	
24-Apr-2013	sub2328	2328	  1	  1	 28	  2	  1	  5	  5	  1	  0	  1	  0	0.57534	  1	0.90000	  0	 15	 37	 48	  0	
24-Apr-2013	sub2328	2328	  1	  1	 29	  2	  1	  3	  3	  4	  1	  2	  0	0.75102	  0	0.90000	  0	 13	 42	 43	  0	
24-Apr-2013	sub2328	2328	  1	  1	 30	  2	  1	  1	  4	  1	  1	  1	  1	0.48617	  1	0.90000	  0	 11	 30	 31	  1	
24-Apr-2013	sub2328	2328	  1	  1	 31	  2	  1	  1	  4	  1	  1	  1	  1	0.67159	  1	0.90000	  0	 11	 30	 31	  0	
24-Apr-2013	sub2328	2328	  1	  1	 32	  2	  1	  3	  3	  4	  0	  2	  1	0.55367	  0	0.90000	  0	 13	 44	 39	  0	
24-Apr-2013	sub2328	2328	  1	  1	 33	  2	  1	  1	  4	  1	  1	  1	  1	0.75579	  1	0.90000	  0	 11	 30	 31	  0	
24-Apr-2013	sub2328	2328	  1	  1	 34	  2	  1	  4	  1	  5	  1	  2	  1	0.75921	  1	0.90000	  0	 14	 32	 33	  0	
24-Apr-2013	sub2328	2328	  1	  1	 35	  2	  1	  1	  4	  1	  1	  1	  1	0.62147	  1	0.90000	  0	 11	 30	 31	  0	
24-Apr-2013	sub2328	2328	  1	  1	 36	  2	  1	  6	  6	  5	  0	  2	  0	0.66233	  1	0.90000	  0	 16	 37	 48	  0	
24-Apr-2013	sub2328	2328	  1	  1	 37	  2	  1	  6	  6	  5	  0	  1	  1	0.46693	  0	0.90000	  0	 16	 47	 38	  1	
24-Apr-2013	sub2328	2328	  1	  1	 38	  2	  1	  6	  6	  5	  0	  1	  1	0.74481	  0	0.90000	  0	 16	 47	 38	  0	
24-Apr-2013	sub2328	2328	  1	  1	 39	  2	  1	  5	  5	  1	  0	  2	  1	0.50008	  0	0.90000	  0	 15	 47	 38	  1	
24-Apr-2013	sub2328	2328	  1	  1	 40	  2	  1	  5	  5	  1	  1	  2	  0	0.42416	  0	0.90000	  0	 15	 45	 46	  1	
24-Apr-2013	sub2328	2328	  1	  1	 41	  2	  1	  1	  4	  1	  1	  1	  1	0.60037	  1	0.90000	  0	 11	 30	 31	  0	
24-Apr-2013	sub2328	2328	  1	  1	 42	  2	  1	  2	  2	  4	  1	  2	  1	0.86116	  1	0.90000	  0	 12	 30	 31	  0	
24-Apr-2013	sub2328	2328	  1	  1	 43	  2	  1	  1	  4	  1	  1	  1	  1	0.64243	  1	0.90000	  0	 11	 30	 31	  0	
24-Apr-2013	sub2328	2328	  1	  1	 44	  2	  1	  5	  5	  1	  1	  2	  0	0.60327	  0	0.80000	  0	 15	 45	 46	  0	
24-Apr-2013	sub2328	2328	  1	  1	 45	  2	  1	  4	  1	  5	  1	  2	  1	0.75604	  1	0.80000	  0	 14	 32	 33	  0	
24-Apr-2013	sub2328	2328	  1	  1	 46	  2	  1	  2	  2	  4	  1	  2	  1	0.76751	  1	0.80000	  0	 12	 30	 31	  0	
24-Apr-2013	sub2328	2328	  1	  1	 47	  2	  1	  6	  6	  5	  0	  1	  1	0.97784	  0	0.80000	  1	 16	 47	 51	  0	
24-Apr-2013	sub2328	2328	  1	  1	 48	  2	  1	  1	  4	  1	  1	  1	  1	0.60728	  1	0.90000	  0	 11	 30	 31	  0	
24-Apr-2013	sub2328	2328	  1	  1	 49	  2	  1	  3	  3	  4	  1	  2	  0	0.73666	  0	0.90000	  0	 13	 42	 43	  0	
24-Apr-2013	sub2328	2328	  1	  1	 50	  2	  1	  4	  1	  5	  1	  1	  0	0.97201	  0	0.90000	  1	 14	 42	 51	  0	
24-Apr-2013	sub2328	2328	  1	  1	 51	  2	  1	  3	  3	  4	  1	  2	  0	0.76548	  0	0.90000	  0	 13	 42	 43	  0	
24-Apr-2013	sub2328	2328	  1	  1	 52	  2	  1	  3	  3	  4	  1	  1	  1	0.61166	  1	0.90000	  0	 13	 32	 33	  0	
24-Apr-2013	sub2328	2328	  1	  1	 53	  2	  1	  5	  5	  1	  1	  1	  1	1.08654	  1	0.90000	  1	 15	 35	 51	  0	
24-Apr-2013	sub2328	2328	  1	  1	 54	  2	  1	  2	  2	  4	  1	  1	  0	0.83357	  0	0.90000	  0	 12	 40	 41	  0	
24-Apr-2013	sub2328	2328	  1	  1	 55	  2	  1	  3	  3	  4	  1	  2	  0	0.77975	  0	0.90000	  0	 13	 42	 43	  0	
24-Apr-2013	sub2328	2328	  1	  1	 56	  2	  1	  2	  2	  4	  1	  1	  0	0.62448	  0	0.90000	  0	 12	 40	 41	  0	
24-Apr-2013	sub2328	2328	  1	  1	 57	  2	  1	  3	  3	  4	  1	  2	  0	0.49876	  0	0.90000	  0	 13	 42	 43	  1	
24-Apr-2013	sub2328	2328	  1	  1	 58	  2	  1	  2	  2	  4	  1	  1	  0	0.62600	  0	0.90000	  0	 12	 40	 41	  0	
24-Apr-2013	sub2328	2328	  1	  1	 59	  2	  1	  5	  5	  1	  1	  2	  0	0.81115	  0	0.90000	  0	 15	 45	 46	  0	
24-Apr-2013	sub2328	2328	  1	  1	 60	  2	  1	  4	  1	  5	  0	  1	  1	0.80585	  0	0.90000	  0	 14	 44	 39	  0	
24-Apr-2013	sub2328	2328	  1	  1	 61	  2	  1	  3	  3	  4	  1	  2	  0	0.96343	  0	0.90000	  1	 13	 42	 51	  0	
24-Apr-2013	sub2328	2328	  1	  1	 62	  2	  1	  2	  2	  4	  1	  1	  0	0.67965	  0	0.90000	  0	 12	 40	 41	  0	
24-Apr-2013	sub2328	2328	  1	  1	 63	  2	  1	  6	  6	  5	  0	  2	  0	0.60673	  1	0.90000	  0	 16	 37	 48	  0	
24-Apr-2013	sub2328	2328	  1	  1	 64	  2	  1	  4	  1	  5	  1	  2	  1	0.70717	  1	0.90000	  0	 14	 32	 33	  0	
24-Apr-2013	sub2328	2328	  1	  1	 65	  2	  1	  1	  4	  1	  1	  1	  1	0.61780	  1	0.90000	  0	 11	 30	 31	  0	
24-Apr-2013	sub2328	2328	  1	  1	 66	  2	  1	  1	  4	  1	  1	  1	  1	0.68202	  1	0.90000	  0	 11	 30	 31	  0	
24-Apr-2013	sub2328	2328	  1	  1	 67	  2	  1	  4	  1	  5	  1	  2	  1	0.78430	  1	0.90000	  0	 14	 32	 33	  0	
24-Apr-2013	sub2328	2328	  1	  1	 68	  2	  1	  1	  4	  1	  1	  1	  1	0.62609	  1	0.90000	  0	 11	 30	 31	  0	
24-Apr-2013	sub2328	2328	  1	  1	 69	  2	  1	  6	  6	  5	  1	  2	  1	0.80042	  1	0.90000	  0	 16	 35	 36	  0	
24-Apr-2013	sub2328	2328	  1	  1	 70	  2	  1	  5	  5	  1	  1	  2	  0	0.89812	  0	0.90000	  0	 15	 45	 46	  0	
24-Apr-2013	sub2328	2328	  1	  1	 71	  2	  1	  6	  6	  5	  0	  1	  1	0.72484	  0	0.90000	  0	 16	 47	 38	  0	
24-Apr-2013	sub2328	2328	  1	  1	 72	  2	  1	  4	  1	  5	  1	  2	  1	0.73945	  1	0.90000	  0	 14	 32	 33	  0	
24-Apr-2013	sub2328	2328	  1	  1	 73	  2	  1	  5	  5	  1	  0	  1	  0	0.65247	  1	0.90000	  0	 15	 37	 48	  0	
24-Apr-2013	sub2328	2328	  1	  1	 74	  2	  1	  2	  2	  4	  1	  2	  1	0.68714	  1	0.90000	  0	 12	 30	 31	  0	
24-Apr-2013	sub2328	2328	  1	  1	 75	  2	  1	  2	  2	  4	  1	  2	  1	0.52674	  1	0.90000	  0	 12	 30	 31	  0	
24-Apr-2013	sub2328	2328	  1	  1	 76	  2	  2	  4	  1	  5	  1	  2	  1	0.67893	  1	0.90000	  0	 24	 62	 63	  0	
24-Apr-2013	sub2328	2328	  1	  1	 77	  2	  2	  6	  6	  5	  0	  1	  1	0.61771	  0	0.90000	  0	 26	 87	 68	  0	
24-Apr-2013	sub2328	2328	  1	  1	 78	  2	  2	  5	  5	  1	  0	  2	  1	0.65918	  0	0.90000	  0	 25	 87	 68	  0	
24-Apr-2013	sub2328	2328	  1	  1	 79	  2	  2	  6	  6	  5	  1	  1	  0	0.91141	  0	0.90000	  1	 26	 85	 51	  0	
24-Apr-2013	sub2328	2328	  1	  1	 80	  2	  2	  5	  5	  1	  0	  2	  1	0.57130	  0	0.90000	  0	 25	 87	 68	  0	
24-Apr-2013	sub2328	2328	  1	  1	 81	  2	  2	  4	  1	  5	  1	  2	  1	0.59942	  1	0.90000	  0	 24	 62	 63	  0	
24-Apr-2013	sub2328	2328	  1	  1	 82	  2	  2	  1	  4	  1	  1	  1	  1	0.60275	  1	0.90000	  0	 21	 60	 61	  0	
24-Apr-2013	sub2328	2328	  1	  1	 83	  2	  2	  5	  5	  1	  0	  1	  0	0.78150	  1	0.90000	  0	 25	 67	 88	  0	
24-Apr-2013	sub2328	2328	  1	  1	 84	  2	  2	  5	  5	  1	  0	  2	  1	0.40498	  0	0.90000	  0	 25	 87	 68	  1	
24-Apr-2013	sub2328	2328	  1	  1	 85	  2	  2	  4	  1	  5	  1	  2	  1	0.66531	  1	0.90000	  0	 24	 62	 63	  0	
24-Apr-2013	sub2328	2328	  1	  1	 86	  2	  2	  1	  4	  1	  1	  1	  1	0.78702	  1	0.90000	  0	 21	 60	 61	  0	
24-Apr-2013	sub2328	2328	  1	  1	 87	  2	  2	  3	  3	  4	  1	  2	  0	0.74541	  0	0.90000	  0	 23	 82	 83	  0	
24-Apr-2013	sub2328	2328	  1	  1	 88	  2	  2	  2	  2	  4	  1	  2	  1	0.85160	  1	0.90000	  0	 22	 60	 61	  0	
24-Apr-2013	sub2328	2328	  1	  1	 89	  2	  2	  4	  1	  5	  1	  2	  1	0.82477	  1	0.90000	  0	 24	 62	 63	  0	
24-Apr-2013	sub2328	2328	  1	  1	 90	  2	  2	  5	  5	  1	  0	  1	  0	0.75018	  1	0.90000	  0	 25	 67	 88	  0	
24-Apr-2013	sub2328	2328	  1	  1	 91	  2	  2	  3	  3	  4	  1	  1	  1	0.87785	  1	0.90000	  0	 23	 62	 63	  0	
24-Apr-2013	sub2328	2328	  1	  1	 92	  2	  2	  4	  1	  5	  1	  2	  1	0.73296	  1	0.90000	  0	 24	 62	 63	  0	
24-Apr-2013	sub2328	2328	  1	  1	 93	  2	  2	  3	  3	  4	  1	  2	  0	0.96687	  0	0.90000	  1	 23	 82	 51	  0	
24-Apr-2013	sub2328	2328	  1	  1	 94	  2	  2	  4	  1	  5	  1	  2	  1	0.86909	  1	0.90000	  0	 24	 62	 63	  0	
24-Apr-2013	sub2328	2328	  1	  1	 95	  2	  2	  3	  3	  4	  1	  1	  1	0.80740	  1	0.90000	  0	 23	 62	 63	  0	
24-Apr-2013	sub2328	2328	  1	  1	 96	  2	  2	  1	  4	  1	  1	  1	  1	0.70898	  1	0.90000	  0	 21	 60	 61	  0	
24-Apr-2013	sub2328	2328	  1	  1	 97	  2	  2	  3	  3	  4	  1	  1	  1	0.52206	  1	0.90000	  0	 23	 62	 63	  0	
24-Apr-2013	sub2328	2328	  1	  1	 98	  2	  2	  2	  2	  4	  1	  2	  1	0.57318	  1	0.90000	  0	 22	 60	 61	  0	
24-Apr-2013	sub2328	2328	  1	  1	 99	  2	  2	  6	  6	  5	  1	  2	  1	0.82054	  1	0.90000	  0	 26	 65	 66	  0	
24-Apr-2013	sub2328	2328	  1	  1	100	  2	  2	  4	  1	  5	  0	  2	  0	0.79877	  1	0.90000	  0	 24	 64	 89	  0	
24-Apr-2013	sub2328	2328	  1	  1	101	  2	  2	  3	  3	  4	  1	  1	  1	0.69738	  1	0.90000	  0	 23	 62	 63	  0	
24-Apr-2013	sub2328	2328	  1	  1	102	  2	  2	  5	  5	  1	  0	  2	  1	0.67772	  0	0.90000	  0	 25	 87	 68	  0	
24-Apr-2013	sub2328	2328	  1	  1	103	  2	  2	  4	  1	  5	  1	  2	  1	0.94382	  1	0.90000	  1	 24	 62	 51	  0	
24-Apr-2013	sub2328	2328	  1	  1	104	  2	  2	  4	  1	  5	  0	  2	  0	0.45724	  1	0.90000	  0	 24	 64	 89	  1	
24-Apr-2013	sub2328	2328	  1	  1	105	  2	  2	  4	  1	  5	  1	  2	  1	0.56540	  1	0.90000	  0	 24	 62	 63	  0	
24-Apr-2013	sub2328	2328	  1	  1	106	  2	  2	  6	  6	  5	  1	  2	  1	0.86038	  1	0.90000	  0	 26	 65	 66	  0	
24-Apr-2013	sub2328	2328	  1	  1	107	  2	  2	  1	  4	  1	  1	  1	  1	0.67987	  1	0.90000	  0	 21	 60	 61	  0	
24-Apr-2013	sub2328	2328	  1	  1	108	  2	  2	  2	  2	  4	  1	  2	  1	0.76881	  1	0.90000	  0	 22	 60	 61	  0	
24-Apr-2013	sub2328	2328	  1	  1	109	  2	  2	  4	  1	  5	  1	  2	  1	0.57606	  1	0.90000	  0	 24	 62	 63	  0	
24-Apr-2013	sub2328	2328	  1	  1	110	  2	  2	  3	  3	  4	  1	  1	  1	0.84879	  1	0.90000	  0	 23	 62	 63	  0	
24-Apr-2013	sub2328	2328	  1	  1	111	  2	  2	  5	  5	  1	  0	  2	  1	0.76211	  0	0.90000	  0	 25	 87	 68	  0	
24-Apr-2013	sub2328	2328	  1	  1	112	  2	  2	  1	  4	  1	  1	  1	  1	0.68479	  1	0.90000	  0	 21	 60	 61	  0	
24-Apr-2013	sub2328	2328	  1	  1	113	  2	  2	  1	  4	  1	  1	  1	  1	0.71496	  1	0.90000	  0	 21	 60	 61	  0	
24-Apr-2013	sub2328	2328	  1	  1	114	  2	  2	  4	  1	  5	  0	  2	  0	0.65037	  1	0.90000	  0	 24	 64	 89	  0	
24-Apr-2013	sub2328	2328	  1	  1	115	  2	  2	  1	  4	  1	  1	  2	  0	0.42663	  0	0.90000	  0	 21	 80	 81	  1	
24-Apr-2013	sub2328	2328	  1	  1	116	  2	  2	  1	  4	  1	  1	  1	  1	0.38902	  1	0.90000	  0	 21	 60	 61	  1	
24-Apr-2013	sub2328	2328	  1	  1	117	  2	  2	  2	  2	  4	  1	  2	  1	0.58757	  1	0.90000	  0	 22	 60	 61	  0	
24-Apr-2013	sub2328	2328	  1	  1	118	  2	  2	  6	  6	  5	  1	  2	  1	0.71767	  1	0.90000	  0	 26	 65	 66	  0	
24-Apr-2013	sub2328	2328	  1	  1	119	  2	  2	  6	  6	  5	  0	  2	  0	0.50278	  1	0.90000	  0	 26	 67	 88	  0	
24-Apr-2013	sub2328	2328	  1	  1	120	  2	  2	  5	  5	  1	  0	  2	  1	0.77170	  0	0.90000	  0	 25	 87	 68	  0	
24-Apr-2013	sub2328	2328	  1	  1	121	  2	  2	  3	  3	  4	  1	  1	  1	0.57007	  1	0.90000	  0	 23	 62	 63	  0	
24-Apr-2013	sub2328	2328	  1	  1	122	  2	  2	  2	  2	  4	  1	  2	  1	0.59686	  1	0.90000	  0	 22	 60	 61	  0	
24-Apr-2013	sub2328	2328	  1	  1	123	  2	  2	  1	  4	  1	  1	  1	  1	0.61686	  1	0.90000	  0	 21	 60	 61	  0	
24-Apr-2013	sub2328	2328	  1	  1	124	  2	  2	  5	  5	  1	  0	  2	  1	0.74871	  0	0.90000	  0	 25	 87	 68	  0	
24-Apr-2013	sub2328	2328	  1	  1	125	  2	  2	  3	  3	  4	  1	  1	  1	0.56282	  1	0.90000	  0	 23	 62	 63	  0	
24-Apr-2013	sub2328	2328	  1	  1	126	  2	  2	  6	  6	  5	  0	  2	  0	0.66300	  1	0.90000	  0	 26	 67	 88	  0	
24-Apr-2013	sub2328	2328	  1	  1	127	  2	  2	  2	  2	  4	  1	  2	  1	0.63468	  1	0.90000	  0	 22	 60	 61	  0	
24-Apr-2013	sub2328	2328	  1	  1	128	  2	  2	  6	  6	  5	  1	  2	  1	0.51158	  1	0.90000	  0	 26	 65	 66	  0	
24-Apr-2013	sub2328	2328	  1	  1	129	  2	  2	  3	  3	  4	  0	  1	  0	0.55760	  1	0.90000	  0	 23	 64	 89	  0	
24-Apr-2013	sub2328	2328	  1	  1	130	  2	  2	  5	  5	  1	  0	  2	  1	0.84119	  0	0.90000	  0	 25	 87	 68	  0	
24-Apr-2013	sub2328	2328	  1	  1	131	  2	  2	  2	  2	  4	  1	  2	  1	0.49926	  1	0.90000	  0	 22	 60	 61	  1	
24-Apr-2013	sub2328	2328	  1	  1	132	  2	  2	  2	  2	  4	  1	  2	  1	0.58480	  1	0.90000	  0	 22	 60	 61	  0	
24-Apr-2013	sub2328	2328	  1	  1	133	  2	  2	  6	  6	  5	  0	  2	  0	0.66971	  1	0.90000	  0	 26	 67	 88	  0	
24-Apr-2013	sub2328	2328	  1	  1	134	  2	  2	  2	  2	  4	  1	  2	  1	0.51083	  1	0.90000	  0	 22	 60	 61	  0	
24-Apr-2013	sub2328	2328	  1	  1	135	  2	  2	  3	  3	  4	  0	  1	  0	0.55618	  1	0.90000	  0	 23	 64	 89	  0	
24-Apr-2013	sub2328	2328	  1	  1	136	  2	  2	  6	  6	  5	  0	  2	  0	0.60093	  1	0.90000	  0	 26	 67	 88	  0	
24-Apr-2013	sub2328	2328	  1	  1	137	  2	  2	  1	  4	  1	  1	  1	  1	0.61234	  1	0.90000	  0	 21	 60	 61	  0	
24-Apr-2013	sub2328	2328	  1	  1	138	  2	  2	  2	  2	  4	  1	  1	  0	0.54956	  0	0.90000	  0	 22	 80	 81	  0	
24-Apr-2013	sub2328	2328	  1	  1	139	  2	  2	  6	  6	  5	  0	  2	  0	0.61350	  1	0.90000	  0	 26	 67	 88	  0	
24-Apr-2013	sub2328	2328	  1	  1	140	  2	  2	  5	  5	  1	  0	  2	  1	0.54760	  0	0.90000	  0	 25	 87	 68	  0	
24-Apr-2013	sub2328	2328	  1	  1	141	  2	  2	  5	  5	  1	  0	  2	  1	0.52719	  0	0.90000	  0	 25	 87	 68	  0	
24-Apr-2013	sub2328	2328	  1	  1	142	  2	  2	  2	  2	  4	  1	  2	  1	0.55443	  1	0.90000	  0	 22	 60	 61	  0	
24-Apr-2013	sub2328	2328	  1	  1	143	  2	  2	  3	  3	  4	  1	  2	  0	0.53968	  0	0.90000	  0	 23	 82	 83	  0	
24-Apr-2013	sub2328	2328	  1	  1	144	  2	  2	  1	  4	  1	  1	  1	  1	0.46698	  1	0.80000	  0	 21	 60	 61	  1	
24-Apr-2013	sub2328	2328	  1	  1	145	  2	  2	  4	  1	  5	  1	  2	  1	0.67387	  1	0.80000	  0	 24	 62	 63	  0	
24-Apr-2013	sub2328	2328	  1	  1	146	  2	  2	  6	  6	  5	  1	  2	  1	0.67988	  1	0.80000	  0	 26	 65	 66	  0	
24-Apr-2013	sub2328	2328	  1	  1	147	  2	  2	  5	  5	  1	  0	  2	  1	0.67333	  0	0.80000	  0	 25	 87	 68	  0	
24-Apr-2013	sub2328	2328	  1	  1	148	  2	  2	  2	  2	  4	  1	  2	  1	0.55048	  1	0.80000	  0	 22	 60	 61	  0	
24-Apr-2013	sub2328	2328	  1	  1	149	  2	  2	  1	  4	  1	  1	  1	  1	0.63999	  1	0.80000	  0	 21	 60	 61	  0	
24-Apr-2013	sub2328	2328	  1	  1	150	  2	  2	  1	  4	  1	  1	  1	  1	0.54903	  1	0.80000	  0	 21	 60	 61	  0	
24-Apr-2013	sub2328	2328	  1	  1	  1	  3	  1	  1	  6	  3	  1	  1	  1	0.72677	  1	0.60000	  1	 11	 30	 51	  0	
24-Apr-2013	sub2328	2328	  1	  1	  2	  3	  1	  2	  3	  1	  1	  1	  0	0.56700	  0	0.90000	  0	 12	 40	 41	  0	
24-Apr-2013	sub2328	2328	  1	  1	  3	  3	  1	  1	  6	  3	  1	  1	  1	0.59006	  1	0.90000	  0	 11	 30	 31	  0	
24-Apr-2013	sub2328	2328	  1	  1	  4	  3	  1	  2	  3	  1	  1	  1	  0	0.59433	  0	0.90000	  0	 12	 40	 41	  0	
24-Apr-2013	sub2328	2328	  1	  1	  5	  3	  1	  4	  1	  3	  1	  2	  1	0.79907	  1	0.90000	  0	 14	 32	 33	  0	
24-Apr-2013	sub2328	2328	  1	  1	  6	  3	  1	  1	  6	  3	  1	  1	  1	0.94109	  1	0.90000	  1	 11	 30	 51	  0	
24-Apr-2013	sub2328	2328	  1	  1	  7	  3	  1	  5	  2	  5	  1	  2	  0	0.74101	  0	0.90000	  0	 15	 45	 46	  0	
24-Apr-2013	sub2328	2328	  1	  1	  8	  3	  1	  3	  4	  4	  1	  2	  0	0.82402	  0	0.90000	  0	 13	 42	 43	  0	
24-Apr-2013	sub2328	2328	  1	  1	  9	  3	  1	  6	  5	  4	  1	  1	  0	0.64033	  0	0.90000	  0	 16	 45	 46	  0	
24-Apr-2013	sub2328	2328	  1	  1	 10	  3	  1	  4	  1	  3	  1	  1	  0	1.10032	  0	0.90000	  1	 14	 42	 51	  0	
24-Apr-2013	sub2328	2328	  1	  1	 11	  3	  1	  5	  2	  5	  0	  2	  1	0.64589	  0	0.90000	  0	 15	 47	 38	  0	
24-Apr-2013	sub2328	2328	  1	  1	 12	  3	  1	  4	  1	  3	  1	  2	  1	0.61546	  1	0.90000	  0	 14	 32	 33	  0	
24-Apr-2013	sub2328	2328	  1	  1	 13	  3	  1	  5	  2	  5	  0	  2	  1	0.74669	  0	0.90000	  0	 15	 47	 38	  0	
24-Apr-2013	sub2328	2328	  1	  1	 14	  3	  1	  5	  2	  5	  0	  2	  1	0.51762	  0	0.90000	  0	 15	 47	 38	  0	
24-Apr-2013	sub2328	2328	  1	  1	 15	  3	  1	  1	  6	  3	  1	  1	  1	0.68039	  1	0.90000	  0	 11	 30	 31	  0	
24-Apr-2013	sub2328	2328	  1	  1	 16	  3	  1	  5	  2	  5	  1	  2	  0	0.68079	  0	0.90000	  0	 15	 45	 46	  0	
24-Apr-2013	sub2328	2328	  1	  1	 17	  3	  1	  3	  4	  4	  0	  1	  0	0.71050	  1	0.90000	  0	 13	 34	 49	  0	
24-Apr-2013	sub2328	2328	  1	  1	 18	  3	  1	  2	  3	  1	  1	  2	  1	0.99139	  1	0.90000	  1	 12	 30	 51	  0	
24-Apr-2013	sub2328	2328	  1	  1	 19	  3	  1	  5	  2	  5	  0	  2	  1	0.50144	  0	0.90000	  0	 15	 47	 38	  0	
24-Apr-2013	sub2328	2328	  1	  1	 20	  3	  1	  3	  4	  4	  1	  2	  0	0.82575	  0	0.90000	  0	 13	 42	 43	  0	
24-Apr-2013	sub2328	2328	  1	  1	 21	  3	  1	  5	  2	  5	  0	  2	  1	0.65589	  0	0.90000	  0	 15	 47	 38	  0	
24-Apr-2013	sub2328	2328	  1	  1	 22	  3	  1	  6	  5	  4	  1	  1	  0	0.74136	  0	0.90000	  0	 16	 45	 46	  0	
24-Apr-2013	sub2328	2328	  1	  1	 23	  3	  1	  1	  6	  3	  1	  2	  0	0.80959	  0	0.90000	  0	 11	 40	 41	  0	
24-Apr-2013	sub2328	2328	  1	  1	 24	  3	  1	  6	  5	  4	  1	  2	  1	0.83696	  1	0.90000	  0	 16	 35	 36	  0	
24-Apr-2013	sub2328	2328	  1	  1	 25	  3	  1	  3	  4	  4	  1	  2	  0	0.75486	  0	0.90000	  0	 13	 42	 43	  0	
24-Apr-2013	sub2328	2328	  1	  1	 26	  3	  1	  3	  4	  4	  0	  1	  0	0.75819	  1	0.90000	  0	 13	 34	 49	  0	
24-Apr-2013	sub2328	2328	  1	  1	 27	  3	  1	  1	  6	  3	  1	  2	  0	0.81239	  0	0.90000	  0	 11	 40	 41	  0	
24-Apr-2013	sub2328	2328	  1	  1	 28	  3	  1	  2	  3	  1	  1	  2	  1	0.99220	  1	0.90000	  1	 12	 30	 51	  0	
24-Apr-2013	sub2328	2328	  1	  1	 29	  3	  1	  5	  2	  5	  1	  2	  0	0.58871	  0	0.90000	  0	 15	 45	 46	  0	
24-Apr-2013	sub2328	2328	  1	  1	 30	  3	  1	  3	  4	  4	  1	  1	  1	0.88714	  1	0.90000	  0	 13	 32	 33	  0	
24-Apr-2013	sub2328	2328	  1	  1	 31	  3	  1	  6	  5	  4	  0	  2	  0	0.85648	  1	0.90000	  0	 16	 37	 48	  0	
24-Apr-2013	sub2328	2328	  1	  1	 32	  3	  1	  1	  6	  3	  1	  2	  0	0.80462	  0	0.90000	  0	 11	 40	 41	  0	
24-Apr-2013	sub2328	2328	  1	  1	 33	  3	  1	  1	  6	  3	  1	  1	  1	0.53487	  1	0.90000	  0	 11	 30	 31	  0	
24-Apr-2013	sub2328	2328	  1	  1	 34	  3	  1	  6	  5	  4	  0	  2	  0	0.78243	  1	0.90000	  0	 16	 37	 48	  0	
24-Apr-2013	sub2328	2328	  1	  1	 35	  3	  1	  4	  1	  3	  1	  2	  1	0.80323	  1	0.90000	  0	 14	 32	 33	  0	
24-Apr-2013	sub2328	2328	  1	  1	 36	  3	  1	  4	  1	  3	  0	  2	  0	0.59305	  1	0.90000	  0	 14	 34	 49	  0	
24-Apr-2013	sub2328	2328	  1	  1	 37	  3	  1	  3	  4	  4	  1	  1	  1	0.82612	  1	0.90000	  0	 13	 32	 33	  0	
24-Apr-2013	sub2328	2328	  1	  1	 38	  3	  1	  3	  4	  4	  0	  1	  0	0.60032	  1	0.90000	  0	 13	 34	 49	  0	
24-Apr-2013	sub2328	2328	  1	  1	 39	  3	  1	  3	  4	  4	  1	  1	  1	0.59673	  1	0.90000	  0	 13	 32	 33	  0	
24-Apr-2013	sub2328	2328	  1	  1	 40	  3	  1	  6	  5	  4	  0	  1	  1	0.98729	  0	0.90000	  1	 16	 47	 51	  0	
24-Apr-2013	sub2328	2328	  1	  1	 41	  3	  1	  4	  1	  3	  1	  1	  0	0.78361	  0	0.90000	  0	 14	 42	 43	  0	
24-Apr-2013	sub2328	2328	  1	  1	 42	  3	  1	  1	  6	  3	  1	  2	  0	0.93475	  0	0.90000	  1	 11	 40	 51	  0	
24-Apr-2013	sub2328	2328	  1	  1	 43	  3	  1	  3	  4	  4	  1	  1	  1	0.62774	  1	0.90000	  0	 13	 32	 33	  0	
24-Apr-2013	sub2328	2328	  1	  1	 44	  3	  1	  2	  3	  1	  1	  1	  0	0.78363	  0	0.90000	  0	 12	 40	 41	  0	
24-Apr-2013	sub2328	2328	  1	  1	 45	  3	  1	  4	  1	  3	  1	  2	  1	0.57974	  1	0.90000	  0	 14	 32	 33	  0	
24-Apr-2013	sub2328	2328	  1	  1	 46	  3	  1	  1	  6	  3	  1	  1	  1	0.75184	  1	0.90000	  0	 11	 30	 31	  0	
24-Apr-2013	sub2328	2328	  1	  1	 47	  3	  1	  2	  3	  1	  1	  1	  0	0.81671	  0	0.90000	  0	 12	 40	 41	  0	
24-Apr-2013	sub2328	2328	  1	  1	 48	  3	  1	  2	  3	  1	  1	  1	  0	0.57504	  0	0.90000	  0	 12	 40	 41	  0	
24-Apr-2013	sub2328	2328	  1	  1	 49	  3	  1	  4	  1	  3	  0	  2	  0	0.58445	  1	0.90000	  0	 14	 34	 49	  0	
24-Apr-2013	sub2328	2328	  1	  1	 50	  3	  1	  4	  1	  3	  1	  2	  1	0.47811	  1	0.90000	  0	 14	 32	 33	  1	
24-Apr-2013	sub2328	2328	  1	  1	 51	  3	  1	  2	  3	  1	  1	  1	  0	0.66357	  0	0.90000	  0	 12	 40	 41	  0	
24-Apr-2013	sub2328	2328	  1	  1	 52	  3	  1	  5	  2	  5	  1	  2	  0	0.51162	  0	0.90000	  0	 15	 45	 46	  0	
24-Apr-2013	sub2328	2328	  1	  1	 53	  3	  1	  2	  3	  1	  1	  2	  1	0.84606	  1	0.90000	  0	 12	 30	 31	  0	
24-Apr-2013	sub2328	2328	  1	  1	 54	  3	  1	  2	  3	  1	  1	  2	  1	0.54238	  1	0.90000	  0	 12	 30	 31	  0	
24-Apr-2013	sub2328	2328	  1	  1	 55	  3	  1	  2	  3	  1	  1	  2	  1	0.56428	  1	0.90000	  0	 12	 30	 31	  0	
24-Apr-2013	sub2328	2328	  1	  1	 56	  3	  1	  6	  5	  4	  0	  1	  1	1.14499	  0	0.90000	  1	 16	 47	 51	  0	
24-Apr-2013	sub2328	2328	  1	  1	 57	  3	  1	  6	  5	  4	  0	  1	  1	0.65297	  0	0.90000	  0	 16	 47	 38	  0	
24-Apr-2013	sub2328	2328	  1	  1	 58	  3	  1	  2	  3	  1	  1	  1	  0	1.03630	  0	0.90000	  1	 12	 40	 51	  0	
24-Apr-2013	sub2328	2328	  1	  1	 59	  3	  1	  5	  2	  5	  1	  2	  0	0.51323	  0	0.90000	  0	 15	 45	 46	  0	
24-Apr-2013	sub2328	2328	  1	  1	 60	  3	  1	  4	  1	  3	  1	  2	  1	0.64256	  1	0.90000	  0	 14	 32	 33	  0	
24-Apr-2013	sub2328	2328	  1	  1	 61	  3	  1	  6	  5	  4	  1	  2	  1	0.71172	  1	0.90000	  0	 16	 35	 36	  0	
24-Apr-2013	sub2328	2328	  1	  1	 62	  3	  1	  4	  1	  3	  1	  2	  1	0.65105	  1	0.90000	  0	 14	 32	 33	  0	
24-Apr-2013	sub2328	2328	  1	  1	 63	  3	  1	  6	  5	  4	  1	  2	  1	0.53348	  1	0.90000	  0	 16	 35	 36	  0	
24-Apr-2013	sub2328	2328	  1	  1	 64	  3	  1	  6	  5	  4	  1	  2	  1	0.51266	  1	0.90000	  0	 16	 35	 36	  0	
24-Apr-2013	sub2328	2328	  1	  1	 65	  3	  1	  3	  4	  4	  1	  1	  1	0.72649	  1	0.90000	  0	 13	 32	 33	  0	
24-Apr-2013	sub2328	2328	  1	  1	 66	  3	  1	  6	  5	  4	  0	  2	  0	0.66928	  1	0.90000	  0	 16	 37	 48	  0	
24-Apr-2013	sub2328	2328	  1	  1	 67	  3	  1	  3	  4	  4	  1	  1	  1	1.13419	  1	0.90000	  1	 13	 32	 51	  0	
24-Apr-2013	sub2328	2328	  1	  1	 68	  3	  1	  6	  5	  4	  0	  1	  1	0.82783	  0	0.90000	  0	 16	 47	 38	  0	
24-Apr-2013	sub2328	2328	  1	  1	 69	  3	  1	  5	  2	  5	  0	  2	  1	0.54529	  0	0.90000	  0	 15	 47	 38	  0	
24-Apr-2013	sub2328	2328	  1	  1	 70	  3	  1	  1	  6	  3	  1	  1	  1	0.70002	  1	0.90000	  0	 11	 30	 31	  0	
24-Apr-2013	sub2328	2328	  1	  1	 71	  3	  1	  2	  3	  1	  1	  1	  0	0.66377	  0	0.90000	  0	 12	 40	 41	  0	
24-Apr-2013	sub2328	2328	  1	  1	 72	  3	  1	  5	  2	  5	  1	  2	  0	0.55585	  0	0.90000	  0	 15	 45	 46	  0	
24-Apr-2013	sub2328	2328	  1	  1	 73	  3	  1	  4	  1	  3	  1	  2	  1	0.59305	  1	0.90000	  0	 14	 32	 33	  0	
24-Apr-2013	sub2328	2328	  1	  1	 74	  3	  1	  1	  6	  3	  1	  1	  1	0.56824	  1	0.90000	  0	 11	 30	 31	  0	
24-Apr-2013	sub2328	2328	  1	  1	 75	  3	  1	  3	  4	  4	  1	  2	  0	0.65928	  0	0.90000	  0	 13	 42	 43	  0	
24-Apr-2013	sub2328	2328	  1	  1	 76	  3	  2	  1	  6	  3	  1	  1	  1	0.66426	  1	0.90000	  0	 21	 60	 61	  0	
24-Apr-2013	sub2328	2328	  1	  1	 77	  3	  2	  4	  1	  3	  1	  2	  1	0.52878	  1	0.90000	  0	 24	 62	 63	  0	
24-Apr-2013	sub2328	2328	  1	  1	 78	  3	  2	  5	  2	  5	  0	  2	  1	0.55039	  0	0.90000	  0	 25	 87	 68	  0	
24-Apr-2013	sub2328	2328	  1	  1	 79	  3	  2	  5	  2	  5	  0	  2	  1	0.55865	  0	0.90000	  0	 25	 87	 68	  0	
24-Apr-2013	sub2328	2328	  1	  1	 80	  3	  2	  4	  1	  3	  1	  2	  1	0.60026	  1	0.90000	  0	 24	 62	 63	  0	
24-Apr-2013	sub2328	2328	  1	  1	 81	  3	  2	  3	  4	  4	  0	  1	  0	0.65429	  1	0.90000	  0	 23	 64	 89	  0	
24-Apr-2013	sub2328	2328	  1	  1	 82	  3	  2	  3	  4	  4	  0	  2	  1	0.33309	  0	0.90000	  0	 23	 84	 69	  1	
24-Apr-2013	sub2328	2328	  1	  1	 83	  3	  2	  5	  2	  5	  0	  2	  1	0.49557	  0	0.90000	  0	 25	 87	 68	  1	
24-Apr-2013	sub2328	2328	  1	  1	 84	  3	  2	  3	  4	  4	  1	  2	  0	0.46460	  0	0.90000	  0	 23	 82	 83	  1	
24-Apr-2013	sub2328	2328	  1	  1	 85	  3	  2	  2	  3	  1	  1	  2	  1	0.48300	  1	0.90000	  0	 22	 60	 61	  1	
24-Apr-2013	sub2328	2328	  1	  1	 86	  3	  2	  4	  1	  3	  1	  2	  1	0.60352	  1	0.90000	  0	 24	 62	 63	  0	
24-Apr-2013	sub2328	2328	  1	  1	 87	  3	  2	  1	  6	  3	  1	  1	  1	0.56187	  1	0.90000	  0	 21	 60	 61	  0	
24-Apr-2013	sub2328	2328	  1	  1	 88	  3	  2	  5	  2	  5	  0	  2	  1	0.54440	  0	0.90000	  0	 25	 87	 68	  0	
24-Apr-2013	sub2328	2328	  1	  1	 89	  3	  2	  4	  1	  3	  1	  2	  1	0.60041	  1	0.90000	  0	 24	 62	 63	  0	
24-Apr-2013	sub2328	2328	  1	  1	 90	  3	  2	  2	  3	  1	  1	  2	  1	0.76527	  1	0.90000	  0	 22	 60	 61	  0	
24-Apr-2013	sub2328	2328	  1	  1	 91	  3	  2	  3	  4	  4	  1	  1	  1	0.65906	  1	0.90000	  0	 23	 62	 63	  0	
24-Apr-2013	sub2328	2328	  1	  1	 92	  3	  2	  2	  3	  1	  1	  1	  0	0.65725	  0	0.90000	  0	 22	 80	 81	  0	
24-Apr-2013	sub2328	2328	  1	  1	 93	  3	  2	  6	  5	  4	  0	  2	  0	0.50151	  1	0.90000	  0	 26	 67	 88	  0	
24-Apr-2013	sub2328	2328	  1	  1	 94	  3	  2	  3	  4	  4	  1	  2	  0	0.44769	  0	0.90000	  0	 23	 82	 83	  1	
24-Apr-2013	sub2328	2328	  1	  1	 95	  3	  2	  5	  2	  5	  0	  2	  1	0.63313	  0	0.90000	  0	 25	 87	 68	  0	
24-Apr-2013	sub2328	2328	  1	  1	 96	  3	  2	  6	  5	  4	  1	  2	  1	0.66118	  1	0.90000	  0	 26	 65	 66	  0	
24-Apr-2013	sub2328	2328	  1	  1	 97	  3	  2	  1	  6	  3	  1	  1	  1	0.61708	  1	0.90000	  0	 21	 60	 61	  0	
24-Apr-2013	sub2328	2328	  1	  1	 98	  3	  2	  1	  6	  3	  1	  1	  1	0.62388	  1	0.90000	  0	 21	 60	 61	  0	
24-Apr-2013	sub2328	2328	  1	  1	 99	  3	  2	  1	  6	  3	  1	  1	  1	0.52691	  1	0.90000	  0	 21	 60	 61	  0	
24-Apr-2013	sub2328	2328	  1	  1	100	  3	  2	  5	  2	  5	  0	  2	  1	0.75674	  0	0.90000	  0	 25	 87	 68	  0	
24-Apr-2013	sub2328	2328	  1	  1	101	  3	  2	  4	  1	  3	  1	  2	  1	0.52852	  1	0.90000	  0	 24	 62	 63	  0	
24-Apr-2013	sub2328	2328	  1	  1	102	  3	  2	  2	  3	  1	  1	  1	  0	0.54303	  0	0.90000	  0	 22	 80	 81	  0	
24-Apr-2013	sub2328	2328	  1	  1	103	  3	  2	  5	  2	  5	  0	  2	  1	0.50342	  0	0.90000	  0	 25	 87	 68	  0	
24-Apr-2013	sub2328	2328	  1	  1	104	  3	  2	  1	  6	  3	  1	  1	  1	0.56936	  1	0.90000	  0	 21	 60	 61	  0	
24-Apr-2013	sub2328	2328	  1	  1	105	  3	  2	  3	  4	  4	  1	  2	  0	0.49798	  0	0.90000	  0	 23	 82	 83	  1	
24-Apr-2013	sub2328	2328	  1	  1	106	  3	  2	  5	  2	  5	  0	  2	  1	0.71370	  0	0.90000	  0	 25	 87	 68	  0	
24-Apr-2013	sub2328	2328	  1	  1	107	  3	  2	  2	  3	  1	  1	  1	  0	0.62882	  0	0.90000	  0	 22	 80	 81	  0	
24-Apr-2013	sub2328	2328	  1	  1	108	  3	  2	  4	  1	  3	  0	  2	  0	0.57245	  1	0.90000	  0	 24	 64	 89	  0	
24-Apr-2013	sub2328	2328	  1	  1	109	  3	  2	  1	  6	  3	  1	  1	  1	0.64423	  1	0.90000	  0	 21	 60	 61	  0	
24-Apr-2013	sub2328	2328	  1	  1	110	  3	  2	  4	  1	  3	  1	  2	  1	0.50813	  1	0.90000	  0	 24	 62	 63	  0	
24-Apr-2013	sub2328	2328	  1	  1	111	  3	  2	  4	  1	  3	  1	  2	  1	0.49689	  1	0.90000	  0	 24	 62	 63	  1	
24-Apr-2013	sub2328	2328	  1	  1	112	  3	  2	  6	  5	  4	  0	  2	  0	0.64327	  1	0.90000	  0	 26	 67	 88	  0	
24-Apr-2013	sub2328	2328	  1	  1	113	  3	  2	  2	  3	  1	  1	  1	  0	0.61374	  0	0.90000	  0	 22	 80	 81	  0	
24-Apr-2013	sub2328	2328	  1	  1	114	  3	  2	  3	  4	  4	  1	  2	  0	0.55933	  0	0.90000	  0	 23	 82	 83	  0	
24-Apr-2013	sub2328	2328	  1	  1	115	  3	  2	  4	  1	  3	  1	  2	  1	0.53317	  1	0.90000	  0	 24	 62	 63	  0	
24-Apr-2013	sub2328	2328	  1	  1	116	  3	  2	  5	  2	  5	  0	  2	  1	0.58247	  0	0.90000	  0	 25	 87	 68	  0	
24-Apr-2013	sub2328	2328	  1	  1	117	  3	  2	  5	  2	  5	  0	  2	  1	0.60757	  0	0.90000	  0	 25	 87	 68	  0	
24-Apr-2013	sub2328	2328	  1	  1	118	  3	  2	  1	  6	  3	  1	  1	  1	0.60059	  1	0.90000	  0	 21	 60	 61	  0	
24-Apr-2013	sub2328	2328	  1	  1	119	  3	  2	  3	  4	  4	  1	  1	  1	0.70006	  1	0.90000	  0	 23	 62	 63	  0	
24-Apr-2013	sub2328	2328	  1	  1	120	  3	  2	  6	  5	  4	  0	  2	  0	0.42838	  1	0.90000	  0	 26	 67	 88	  1	
24-Apr-2013	sub2328	2328	  1	  1	121	  3	  2	  5	  2	  5	  0	  2	  1	0.54751	  0	0.90000	  0	 25	 87	 68	  0	
24-Apr-2013	sub2328	2328	  1	  1	122	  3	  2	  2	  3	  1	  1	  1	  0	0.59945	  0	0.90000	  0	 22	 80	 81	  0	
24-Apr-2013	sub2328	2328	  1	  1	123	  3	  2	  5	  2	  5	  0	  2	  1	0.63722	  0	0.90000	  0	 25	 87	 68	  0	
24-Apr-2013	sub2328	2328	  1	  1	124	  3	  2	  6	  5	  4	  1	  1	  0	0.79192	  0	0.90000	  0	 26	 85	 86	  0	
24-Apr-2013	sub2328	2328	  1	  1	125	  3	  2	  1	  6	  3	  1	  1	  1	0.64607	  1	0.90000	  0	 21	 60	 61	  0	
24-Apr-2013	sub2328	2328	  1	  1	126	  3	  2	  6	  5	  4	  1	  2	  1	0.57201	  1	0.90000	  0	 26	 65	 66	  0	
24-Apr-2013	sub2328	2328	  1	  1	127	  3	  2	  1	  6	  3	  1	  1	  1	0.63345	  1	0.90000	  0	 21	 60	 61	  0	
24-Apr-2013	sub2328	2328	  1	  1	128	  3	  2	  6	  5	  4	  1	  2	  1	0.66126	  1	0.90000	  0	 26	 65	 66	  0	
24-Apr-2013	sub2328	2328	  1	  1	129	  3	  2	  1	  6	  3	  1	  1	  1	0.53351	  1	0.90000	  0	 21	 60	 61	  0	
24-Apr-2013	sub2328	2328	  1	  1	130	  3	  2	  6	  5	  4	  0	  2	  0	0.54147	  1	0.90000	  0	 26	 67	 88	  0	
24-Apr-2013	sub2328	2328	  1	  1	131	  3	  2	  4	  1	  3	  0	  2	  0	0.55006	  1	0.90000	  0	 24	 64	 89	  0	
24-Apr-2013	sub2328	2328	  1	  1	132	  3	  2	  3	  4	  4	  1	  1	  1	0.53491	  1	0.90000	  0	 23	 62	 63	  0	
24-Apr-2013	sub2328	2328	  1	  1	133	  3	  2	  2	  3	  1	  1	  1	  0	0.70031	  0	0.90000	  0	 22	 80	 81	  0	
24-Apr-2013	sub2328	2328	  1	  1	134	  3	  2	  4	  1	  3	  1	  2	  1	0.50910	  1	0.90000	  0	 24	 62	 63	  0	
24-Apr-2013	sub2328	2328	  1	  1	135	  3	  2	  4	  1	  3	  1	  2	  1	0.49000	  1	0.90000	  0	 24	 62	 63	  1	
24-Apr-2013	sub2328	2328	  1	  1	136	  3	  2	  6	  5	  4	  0	  2	  0	0.64929	  1	0.90000	  0	 26	 67	 88	  0	
24-Apr-2013	sub2328	2328	  1	  1	137	  3	  2	  2	  3	  1	  1	  1	  0	0.56825	  0	0.90000	  0	 22	 80	 81	  0	
24-Apr-2013	sub2328	2328	  1	  1	138	  3	  2	  5	  2	  5	  0	  2	  1	0.55180	  0	0.90000	  0	 25	 87	 68	  0	
24-Apr-2013	sub2328	2328	  1	  1	139	  3	  2	  3	  4	  4	  1	  1	  1	0.76005	  1	0.90000	  0	 23	 62	 63	  0	
24-Apr-2013	sub2328	2328	  1	  1	140	  3	  2	  3	  4	  4	  1	  1	  1	0.77404	  1	0.90000	  0	 23	 62	 63	  0	
24-Apr-2013	sub2328	2328	  1	  1	141	  3	  2	  6	  5	  4	  1	  2	  1	0.56480	  1	0.90000	  0	 26	 65	 66	  0	
24-Apr-2013	sub2328	2328	  1	  1	142	  3	  2	  1	  6	  3	  1	  1	  1	0.61541	  1	0.90000	  0	 21	 60	 61	  0	
24-Apr-2013	sub2328	2328	  1	  1	143	  3	  2	  4	  1	  3	  0	  2	  0	0.53858	  1	0.90000	  0	 24	 64	 89	  0	
24-Apr-2013	sub2328	2328	  1	  1	144	  3	  2	  3	  4	  4	  1	  1	  1	0.56064	  1	0.80000	  0	 23	 62	 63	  0	
24-Apr-2013	sub2328	2328	  1	  1	145	  3	  2	  2	  3	  1	  1	  1	  0	0.62830	  0	0.80000	  0	 22	 80	 81	  0	
24-Apr-2013	sub2328	2328	  1	  1	146	  3	  2	  6	  5	  4	  0	  2	  0	0.57585	  1	0.80000	  0	 26	 67	 88	  0	
24-Apr-2013	sub2328	2328	  1	  1	147	  3	  2	  2	  3	  1	  1	  1	  0	0.60675	  0	0.80000	  0	 22	 80	 81	  0	
24-Apr-2013	sub2328	2328	  1	  1	148	  3	  2	  1	  6	  3	  1	  1	  1	0.63143	  1	0.80000	  0	 21	 60	 61	  0	
24-Apr-2013	sub2328	2328	  1	  1	149	  3	  2	  2	  3	  1	  1	  1	  0	0.68082	  0	0.80000	  0	 22	 80	 81	  0	
24-Apr-2013	sub2328	2328	  1	  1	150	  3	  2	  6	  5	  4	  1	  2	  1	0.55142	  1	0.80000	  0	 26	 65	 66	  0	
24-Apr-2013	sub2328	2328	  1	  1	  1	  4	  1	  5	  5	  5	  0	  2	  1	0.73597	  0	0.60000	  1	 15	 47	 51	  0	
24-Apr-2013	sub2328	2328	  1	  1	  2	  4	  1	  5	  5	  5	  0	  1	  0	0.45898	  1	0.90000	  0	 15	 37	 48	  1	
24-Apr-2013	sub2328	2328	  1	  1	  3	  4	  1	  1	  3	  3	  1	  1	  1	0.64966	  1	0.90000	  0	 11	 30	 31	  0	
24-Apr-2013	sub2328	2328	  1	  1	  4	  4	  1	  1	  3	  3	  1	  1	  1	0.68524	  1	0.90000	  0	 11	 30	 31	  0	
24-Apr-2013	sub2328	2328	  1	  1	  5	  4	  1	  1	  3	  3	  1	  1	  1	0.47637	  1	0.90000	  0	 11	 30	 31	  1	
24-Apr-2013	sub2328	2328	  1	  1	  6	  4	  1	  2	  6	  2	  1	  2	  1	0.66344	  1	0.90000	  0	 12	 30	 31	  0	
24-Apr-2013	sub2328	2328	  1	  1	  7	  4	  1	  2	  6	  2	  1	  1	  0	0.65653	  0	0.90000	  0	 12	 40	 41	  0	
24-Apr-2013	sub2328	2328	  1	  1	  8	  4	  1	  4	  1	  4	  1	  1	  0	0.75946	  0	0.90000	  0	 14	 42	 43	  0	
24-Apr-2013	sub2328	2328	  1	  1	  9	  4	  1	  6	  4	  5	  0	  1	  1	0.68593	  0	0.90000	  0	 16	 47	 38	  0	
24-Apr-2013	sub2328	2328	  1	  1	 10	  4	  1	  4	  1	  4	  1	  2	  1	1.05711	  1	0.90000	  1	 14	 32	 51	  0	
24-Apr-2013	sub2328	2328	  1	  1	 11	  4	  1	  6	  4	  5	  1	  1	  0	1.00290	  0	0.90000	  1	 16	 45	 51	  0	
24-Apr-2013	sub2328	2328	  1	  1	 12	  4	  1	  5	  5	  5	  1	  2	  0	0.70266	  0	0.90000	  0	 15	 45	 46	  0	
24-Apr-2013	sub2328	2328	  1	  1	 13	  4	  1	  6	  4	  5	  1	  2	  1	0.90940	  1	0.90000	  1	 16	 35	 51	  0	
24-Apr-2013	sub2328	2328	  1	  1	 14	  4	  1	  2	  6	  2	  1	  1	  0	0.55183	  0	0.90000	  0	 12	 40	 41	  0	
24-Apr-2013	sub2328	2328	  1	  1	 15	  4	  1	  6	  4	  5	  1	  1	  0	0.66956	  0	0.90000	  0	 16	 45	 46	  0	
24-Apr-2013	sub2328	2328	  1	  1	 16	  4	  1	  4	  1	  4	  1	  2	  1	0.62323	  1	0.90000	  0	 14	 32	 33	  0	
24-Apr-2013	sub2328	2328	  1	  1	 17	  4	  1	  3	  2	  3	  1	  2	  0	0.60233	  0	0.90000	  0	 13	 42	 43	  0	
24-Apr-2013	sub2328	2328	  1	  1	 18	  4	  1	  2	  6	  2	  1	  1	  0	0.72162	  0	0.90000	  0	 12	 40	 41	  0	
24-Apr-2013	sub2328	2328	  1	  1	 19	  4	  1	  2	  6	  2	  1	  2	  1	0.59947	  1	0.90000	  0	 12	 30	 31	  0	
24-Apr-2013	sub2328	2328	  1	  1	 20	  4	  1	  3	  2	  3	  1	  2	  0	0.53827	  0	0.90000	  0	 13	 42	 43	  0	
24-Apr-2013	sub2328	2328	  1	  1	 21	  4	  1	  4	  1	  4	  0	  2	  0	0.54414	  1	0.90000	  0	 14	 34	 49	  0	
24-Apr-2013	sub2328	2328	  1	  1	 22	  4	  1	  3	  2	  3	  1	  1	  1	0.81629	  1	0.90000	  0	 13	 32	 33	  0	
24-Apr-2013	sub2328	2328	  1	  1	 23	  4	  1	  1	  3	  3	  1	  1	  1	0.59698	  1	0.90000	  0	 11	 30	 31	  0	
24-Apr-2013	sub2328	2328	  1	  1	 24	  4	  1	  3	  2	  3	  0	  1	  0	0.75068	  1	0.90000	  0	 13	 34	 49	  0	
24-Apr-2013	sub2328	2328	  1	  1	 25	  4	  1	  2	  6	  2	  1	  1	  0	0.59360	  0	0.90000	  0	 12	 40	 41	  0	
24-Apr-2013	sub2328	2328	  1	  1	 26	  4	  1	  5	  5	  5	  1	  2	  0	0.60314	  0	0.90000	  0	 15	 45	 46	  0	
24-Apr-2013	sub2328	2328	  1	  1	 27	  4	  1	  4	  1	  4	  1	  2	  1	0.67684	  1	0.90000	  0	 14	 32	 33	  0	
24-Apr-2013	sub2328	2328	  1	  1	 28	  4	  1	  3	  2	  3	  1	  2	  0	0.54667	  0	0.90000	  0	 13	 42	 43	  0	
24-Apr-2013	sub2328	2328	  1	  1	 29	  4	  1	  6	  4	  5	  0	  1	  1	0.73287	  0	0.90000	  0	 16	 47	 38	  0	
24-Apr-2013	sub2328	2328	  1	  1	 30	  4	  1	  1	  3	  3	  1	  1	  1	0.70211	  1	0.90000	  0	 11	 30	 31	  0	
24-Apr-2013	sub2328	2328	  1	  1	 31	  4	  1	  6	  4	  5	  0	  2	  0	0.65097	  1	0.90000	  0	 16	 37	 48	  0	
24-Apr-2013	sub2328	2328	  1	  1	 32	  4	  1	  1	  3	  3	  1	  1	  1	0.64694	  1	0.90000	  0	 11	 30	 31	  0	
24-Apr-2013	sub2328	2328	  1	  1	 33	  4	  1	  3	  2	  3	  1	  1	  1	0.75160	  1	0.90000	  0	 13	 32	 33	  0	
24-Apr-2013	sub2328	2328	  1	  1	 34	  4	  1	  4	  1	  4	  0	  1	  1	0.71333	  0	0.90000	  0	 14	 44	 39	  0	
24-Apr-2013	sub2328	2328	  1	  1	 35	  4	  1	  1	  3	  3	  1	  1	  1	0.69046	  1	0.90000	  0	 11	 30	 31	  0	
24-Apr-2013	sub2328	2328	  1	  1	 36	  4	  1	  6	  4	  5	  0	  2	  0	0.75917	  1	0.90000	  0	 16	 37	 48	  0	
24-Apr-2013	sub2328	2328	  1	  1	 37	  4	  1	  2	  6	  2	  1	  2	  1	0.90527	  1	0.90000	  1	 12	 30	 51	  0	
24-Apr-2013	sub2328	2328	  1	  1	 38	  4	  1	  1	  3	  3	  1	  1	  1	0.86419	  1	0.90000	  0	 11	 30	 31	  0	
24-Apr-2013	sub2328	2328	  1	  1	 39	  4	  1	  5	  5	  5	  0	  2	  1	0.70827	  0	0.90000	  0	 15	 47	 38	  0	
24-Apr-2013	sub2328	2328	  1	  1	 40	  4	  1	  3	  2	  3	  1	  1	  1	0.76724	  1	0.90000	  0	 13	 32	 33	  0	
24-Apr-2013	sub2328	2328	  1	  1	 41	  4	  1	  2	  6	  2	  1	  2	  1	0.82403	  1	0.90000	  0	 12	 30	 31	  0	
24-Apr-2013	sub2328	2328	  1	  1	 42	  4	  1	  4	  1	  4	  1	  1	  0	0.71587	  0	0.90000	  0	 14	 42	 43	  0	
24-Apr-2013	sub2328	2328	  1	  1	 43	  4	  1	  5	  5	  5	  1	  1	  1	0.89127	  1	0.90000	  0	 15	 35	 36	  0	
24-Apr-2013	sub2328	2328	  1	  1	 44	  4	  1	  4	  1	  4	  1	  2	  1	0.65330	  1	0.90000	  0	 14	 32	 33	  0	
24-Apr-2013	sub2328	2328	  1	  1	 45	  4	  1	  3	  2	  3	  0	  1	  0	0.80171	  1	0.90000	  0	 13	 34	 49	  0	
24-Apr-2013	sub2328	2328	  1	  1	 46	  4	  1	  5	  5	  5	  0	  1	  0	0.87596	  1	0.90000	  0	 15	 37	 48	  0	
24-Apr-2013	sub2328	2328	  1	  1	 47	  4	  1	  1	  3	  3	  1	  2	  0	0.80257	  0	0.90000	  0	 11	 40	 41	  0	
24-Apr-2013	sub2328	2328	  1	  1	 48	  4	  1	  3	  2	  3	  0	  1	  0	0.77418	  1	0.90000	  0	 13	 34	 49	  0	
24-Apr-2013	sub2328	2328	  1	  1	 49	  4	  1	  2	  6	  2	  1	  2	  1	0.86974	  1	0.90000	  0	 12	 30	 31	  0	
24-Apr-2013	sub2328	2328	  1	  1	 50	  4	  1	  4	  1	  4	  1	  1	  0	0.90420	  0	0.90000	  1	 14	 42	 51	  0	
24-Apr-2013	sub2328	2328	  1	  1	 51	  4	  1	  5	  5	  5	  0	  1	  0	0.84035	  1	0.90000	  0	 15	 37	 48	  0	
24-Apr-2013	sub2328	2328	  1	  1	 52	  4	  1	  5	  5	  5	  1	  1	  1	0.55932	  1	0.90000	  0	 15	 35	 36	  0	
24-Apr-2013	sub2328	2328	  1	  1	 53	  4	  1	  2	  6	  2	  1	  2	  1	1.03420	  1	0.90000	  1	 12	 30	 51	  0	
24-Apr-2013	sub2328	2328	  1	  1	 54	  4	  1	  3	  2	  3	  1	  1	  1	0.79100	  1	0.90000	  0	 13	 32	 33	  0	
24-Apr-2013	sub2328	2328	  1	  1	 55	  4	  1	  6	  4	  5	  1	  2	  1	0.80918	  1	0.90000	  0	 16	 35	 36	  0	
24-Apr-2013	sub2328	2328	  1	  1	 56	  4	  1	  2	  6	  2	  1	  2	  1	0.82654	  1	0.90000	  0	 12	 30	 31	  0	
24-Apr-2013	sub2328	2328	  1	  1	 57	  4	  1	  3	  2	  3	  1	  1	  1	0.89457	  1	0.90000	  0	 13	 32	 33	  0	
24-Apr-2013	sub2328	2328	  1	  1	 58	  4	  1	  3	  2	  3	  1	  1	  1	0.65173	  1	0.90000	  0	 13	 32	 33	  0	
24-Apr-2013	sub2328	2328	  1	  1	 59	  4	  1	  3	  2	  3	  1	  1	  1	0.57030	  1	0.90000	  0	 13	 32	 33	  0	
24-Apr-2013	sub2328	2328	  1	  1	 60	  4	  1	  5	  5	  5	  1	  1	  1	0.84490	  1	0.90000	  0	 15	 35	 36	  0	
24-Apr-2013	sub2328	2328	  1	  1	 61	  4	  1	  1	  3	  3	  1	  1	  1	2.03224	  1	0.90000	  1	 11	 30	 51	  0	
24-Apr-2013	sub2328	2328	  1	  1	 62	  4	  1	  6	  4	  5	  1	  2	  1	0.81864	  1	0.90000	  0	 16	 35	 36	  0	
24-Apr-2013	sub2328	2328	  1	  1	 63	  4	  1	  1	  3	  3	  1	  1	  1	0.64015	  1	0.90000	  0	 11	 30	 31	  0	
24-Apr-2013	sub2328	2328	  1	  1	 64	  4	  1	  4	  1	  4	  1	  1	  0	0.66470	  0	0.90000	  0	 14	 42	 43	  0	
24-Apr-2013	sub2328	2328	  1	  1	 65	  4	  1	  4	  1	  4	  1	  2	  1	0.51642	  1	0.90000	  0	 14	 32	 33	  0	
24-Apr-2013	sub2328	2328	  1	  1	 66	  4	  1	  6	  4	  5	  0	  2	  0	0.77680	  1	0.90000	  0	 16	 37	 48	  0	
24-Apr-2013	sub2328	2328	  1	  1	 67	  4	  1	  5	  5	  5	  1	  1	  1	0.74824	  1	0.90000	  0	 15	 35	 36	  0	
24-Apr-2013	sub2328	2328	  1	  1	 68	  4	  1	  4	  1	  4	  1	  1	  0	0.76565	  0	0.90000	  0	 14	 42	 43	  0	
24-Apr-2013	sub2328	2328	  1	  1	 69	  4	  1	  2	  6	  2	  1	  1	  0	0.66616	  0	0.90000	  0	 12	 40	 41	  0	
24-Apr-2013	sub2328	2328	  1	  1	 70	  4	  1	  5	  5	  5	  1	  1	  1	0.85823	  1	0.90000	  0	 15	 35	 36	  0	
24-Apr-2013	sub2328	2328	  1	  1	 71	  4	  1	  1	  3	  3	  1	  2	  0	0.66644	  0	0.90000	  0	 11	 40	 41	  0	
24-Apr-2013	sub2328	2328	  1	  1	 72	  4	  1	  6	  4	  5	  0	  1	  1	0.80567	  0	0.90000	  0	 16	 47	 38	  0	
24-Apr-2013	sub2328	2328	  1	  1	 73	  4	  1	  6	  4	  5	  1	  1	  0	0.65440	  0	0.90000	  0	 16	 45	 46	  0	
24-Apr-2013	sub2328	2328	  1	  1	 74	  4	  1	  2	  6	  2	  1	  1	  0	0.85907	  0	0.90000	  0	 12	 40	 41	  0	
24-Apr-2013	sub2328	2328	  1	  1	 75	  4	  1	  6	  4	  5	  0	  1	  1	0.82285	  0	0.90000	  0	 16	 47	 38	  0	
24-Apr-2013	sub2328	2328	  1	  1	 76	  4	  2	  4	  1	  4	  1	  1	  0	0.76524	  0	0.90000	  0	 24	 82	 83	  0	
24-Apr-2013	sub2328	2328	  1	  1	 77	  4	  2	  1	  3	  3	  1	  2	  0	0.84423	  0	0.90000	  0	 21	 80	 81	  0	
24-Apr-2013	sub2328	2328	  1	  1	 78	  4	  2	  5	  5	  5	  0	  1	  0	0.77539	  1	0.90000	  0	 25	 67	 88	  0	
24-Apr-2013	sub2328	2328	  1	  1	 79	  4	  2	  4	  1	  4	  0	  1	  1	0.73060	  0	0.90000	  0	 24	 84	 69	  0	
24-Apr-2013	sub2328	2328	  1	  1	 80	  4	  2	  1	  3	  3	  1	  1	  1	0.96525	  1	0.90000	  1	 21	 60	 51	  0	
24-Apr-2013	sub2328	2328	  1	  1	 81	  4	  2	  2	  6	  2	  1	  2	  1	0.97863	  1	0.90000	  1	 22	 60	 51	  0	
24-Apr-2013	sub2328	2328	  1	  1	 82	  4	  2	  5	  5	  5	  0	  1	  0	0.76482	  1	0.90000	  0	 25	 67	 88	  0	
24-Apr-2013	sub2328	2328	  1	  1	 83	  4	  2	  2	  6	  2	  1	  2	  1	0.77201	  1	0.90000	  0	 22	 60	 61	  0	
24-Apr-2013	sub2328	2328	  1	  1	 84	  4	  2	  5	  5	  5	  0	  2	  1	1.29411	  0	0.90000	  1	 25	 87	 51	  0	
24-Apr-2013	sub2328	2328	  1	  1	 85	  4	  2	  6	  4	  5	  0	  2	  0	0.77031	  1	0.90000	  0	 26	 67	 88	  0	
24-Apr-2013	sub2328	2328	  1	  1	 86	  4	  2	  4	  1	  4	  1	  1	  0	0.71557	  0	0.90000	  0	 24	 82	 83	  0	
24-Apr-2013	sub2328	2328	  1	  1	 87	  4	  2	  3	  2	  3	  1	  1	  1	0.87955	  1	0.90000	  0	 23	 62	 63	  0	
24-Apr-2013	sub2328	2328	  1	  1	 88	  4	  2	  1	  3	  3	  1	  2	  0	0.72938	  0	0.90000	  0	 21	 80	 81	  0	
24-Apr-2013	sub2328	2328	  1	  1	 89	  4	  2	  1	  3	  3	  1	  1	  1	0.69621	  1	0.90000	  0	 21	 60	 61	  0	
24-Apr-2013	sub2328	2328	  1	  1	 90	  4	  2	  5	  5	  5	  0	  1	  0	0.93485	  1	0.90000	  1	 25	 67	 51	  0	
24-Apr-2013	sub2328	2328	  1	  1	 91	  4	  2	  1	  3	  3	  1	  1	  1	0.76379	  1	0.90000	  0	 21	 60	 61	  0	
24-Apr-2013	sub2328	2328	  1	  1	 92	  4	  2	  4	  1	  4	  0	  1	  1	0.73662	  0	0.90000	  0	 24	 84	 69	  0	
24-Apr-2013	sub2328	2328	  1	  1	 93	  4	  2	  1	  3	  3	  1	  1	  1	0.81973	  1	0.90000	  0	 21	 60	 61	  0	
24-Apr-2013	sub2328	2328	  1	  1	 94	  4	  2	  6	  4	  5	  1	  2	  1	0.67731	  1	0.90000	  0	 26	 65	 66	  0	
24-Apr-2013	sub2328	2328	  1	  1	 95	  4	  2	  3	  2	  3	  1	  1	  1	0.89532	  1	0.90000	  0	 23	 62	 63	  0	
24-Apr-2013	sub2328	2328	  1	  1	 96	  4	  2	  6	  4	  5	  0	  2	  0	0.64402	  1	0.90000	  0	 26	 67	 88	  0	
24-Apr-2013	sub2328	2328	  1	  1	 97	  4	  2	  4	  1	  4	  0	  1	  1	0.53163	  0	0.90000	  0	 24	 84	 69	  0	
24-Apr-2013	sub2328	2328	  1	  1	 98	  4	  2	  6	  4	  5	  0	  2	  0	0.56417	  1	0.90000	  0	 26	 67	 88	  0	
24-Apr-2013	sub2328	2328	  1	  1	 99	  4	  2	  3	  2	  3	  1	  1	  1	0.52459	  1	0.90000	  0	 23	 62	 63	  0	
24-Apr-2013	sub2328	2328	  1	  1	100	  4	  2	  4	  1	  4	  1	  2	  1	0.71706	  1	0.90000	  0	 24	 62	 63	  0	
24-Apr-2013	sub2328	2328	  1	  1	101	  4	  2	  4	  1	  4	  1	  1	  0	0.81543	  0	0.90000	  0	 24	 82	 83	  0	
24-Apr-2013	sub2328	2328	  1	  1	102	  4	  2	  3	  2	  3	  1	  2	  0	1.34617	  0	0.90000	  1	 23	 82	 51	  0	
24-Apr-2013	sub2328	2328	  1	  1	103	  4	  2	  5	  5	  5	  0	  1	  0	0.69359	  1	0.90000	  0	 25	 67	 88	  0	
24-Apr-2013	sub2328	2328	  1	  1	104	  4	  2	  1	  3	  3	  1	  1	  1	0.99325	  1	0.90000	  1	 21	 60	 51	  0	
24-Apr-2013	sub2328	2328	  1	  1	105	  4	  2	  6	  4	  5	  0	  1	  1	0.70182	  0	0.90000	  0	 26	 87	 68	  0	
24-Apr-2013	sub2328	2328	  1	  1	106	  4	  2	  3	  2	  3	  1	  2	  0	1.11184	  0	0.90000	  1	 23	 82	 51	  0	
24-Apr-2013	sub2328	2328	  1	  1	107	  4	  2	  2	  6	  2	  1	  1	  0	0.70787	  0	0.90000	  0	 22	 80	 81	  0	
24-Apr-2013	sub2328	2328	  1	  1	108	  4	  2	  2	  6	  2	  1	  1	  0	0.60555	  0	0.90000	  0	 22	 80	 81	  0	
24-Apr-2013	sub2328	2328	  1	  1	109	  4	  2	  6	  4	  5	  1	  2	  1	0.78028	  1	0.90000	  0	 26	 65	 66	  0	
24-Apr-2013	sub2328	2328	  1	  1	110	  4	  2	  1	  3	  3	  1	  2	  0	0.73381	  0	0.90000	  0	 21	 80	 81	  0	
24-Apr-2013	sub2328	2328	  1	  1	111	  4	  2	  4	  1	  4	  1	  1	  0	0.74445	  0	0.90000	  0	 24	 82	 83	  0	
24-Apr-2013	sub2328	2328	  1	  1	112	  4	  2	  1	  3	  3	  1	  1	  1	0.60777	  1	0.90000	  0	 21	 60	 61	  0	
24-Apr-2013	sub2328	2328	  1	  1	113	  4	  2	  2	  6	  2	  1	  1	  0	0.59928	  0	0.90000	  0	 22	 80	 81	  0	
24-Apr-2013	sub2328	2328	  1	  1	114	  4	  2	  6	  4	  5	  1	  2	  1	0.67048	  1	0.90000	  0	 26	 65	 66	  0	
24-Apr-2013	sub2328	2328	  1	  1	115	  4	  2	  2	  6	  2	  1	  1	  0	0.91926	  0	0.90000	  1	 22	 80	 51	  0	
24-Apr-2013	sub2328	2328	  1	  1	116	  4	  2	  6	  4	  5	  1	  2	  1	0.72087	  1	0.90000	  0	 26	 65	 66	  0	
24-Apr-2013	sub2328	2328	  1	  1	117	  4	  2	  3	  2	  3	  1	  2	  0	0.78026	  0	0.90000	  0	 23	 82	 83	  0	
24-Apr-2013	sub2328	2328	  1	  1	118	  4	  2	  4	  1	  4	  1	  1	  0	0.89632	  0	0.90000	  0	 24	 82	 83	  0	
24-Apr-2013	sub2328	2328	  1	  1	119	  4	  2	  5	  5	  5	  0	  1	  0	0.74310	  1	0.90000	  0	 25	 67	 88	  0	
24-Apr-2013	sub2328	2328	  1	  1	120	  4	  2	  1	  3	  3	  1	  2	  0	0.94634	  0	0.90000	  1	 21	 80	 51	  0	
24-Apr-2013	sub2328	2328	  1	  1	121	  4	  2	  3	  2	  3	  1	  1	  1	5.18617	  1	0.90000	  1	 23	 62	 51	  0	
24-Apr-2013	sub2328	2328	  1	  1	122	  4	  2	  2	  6	  2	  1	  2	  1	0.80868	  1	0.90000	  0	 22	 60	 61	  0	
24-Apr-2013	sub2328	2328	  1	  1	123	  4	  2	  3	  2	  3	  1	  1	  1	0.79066	  1	0.90000	  0	 23	 62	 63	  0	
24-Apr-2013	sub2328	2328	  1	  1	124	  4	  2	  3	  2	  3	  1	  1	  1	0.63119	  1	0.90000	  0	 23	 62	 63	  0	
24-Apr-2013	sub2328	2328	  1	  1	125	  4	  2	  4	  1	  4	  1	  1	  0	0.78622	  0	0.90000	  0	 24	 82	 83	  0	
24-Apr-2013	sub2328	2328	  1	  1	126	  4	  2	  2	  6	  2	  1	  1	  0	1.96667	  0	0.90000	  1	 22	 80	 51	  0	
24-Apr-2013	sub2328	2328	  1	  1	127	  4	  2	  2	  6	  2	  1	  2	  1	0.55044	  1	0.90000	  0	 22	 60	 61	  0	
24-Apr-2013	sub2328	2328	  1	  1	128	  4	  2	  1	  3	  3	  1	  2	  0	0.77952	  0	0.90000	  0	 21	 80	 81	  0	
24-Apr-2013	sub2328	2328	  1	  1	129	  4	  2	  1	  3	  3	  1	  1	  1	0.79904	  1	0.90000	  0	 21	 60	 61	  0	
24-Apr-2013	sub2328	2328	  1	  1	130	  4	  2	  2	  6	  2	  1	  1	  0	1.28589	  0	0.90000	  1	 22	 80	 51	  0	
24-Apr-2013	sub2328	2328	  1	  1	131	  4	  2	  6	  4	  5	  1	  2	  1	0.69031	  1	0.90000	  0	 26	 65	 66	  0	
24-Apr-2013	sub2328	2328	  1	  1	132	  4	  2	  6	  4	  5	  0	  1	  1	1.83828	  0	0.90000	  1	 26	 87	 51	  0	
24-Apr-2013	sub2328	2328	  1	  1	133	  4	  2	  4	  1	  4	  1	  1	  0	0.79101	  0	0.90000	  0	 24	 82	 83	  0	
24-Apr-2013	sub2328	2328	  1	  1	134	  4	  2	  3	  2	  3	  0	  1	  0	0.84263	  1	0.90000	  0	 23	 64	 89	  0	
24-Apr-2013	sub2328	2328	  1	  1	135	  4	  2	  1	  3	  3	  1	  2	  0	0.69616	  0	0.90000	  0	 21	 80	 81	  0	
24-Apr-2013	sub2328	2328	  1	  1	136	  4	  2	  5	  5	  5	  0	  1	  0	0.66555	  1	0.90000	  0	 25	 67	 88	  0	
24-Apr-2013	sub2328	2328	  1	  1	137	  4	  2	  2	  6	  2	  1	  2	  1	0.81219	  1	0.90000	  0	 22	 60	 61	  0	
24-Apr-2013	sub2328	2328	  1	  1	138	  4	  2	  5	  5	  5	  0	  2	  1	0.76185	  0	0.90000	  0	 25	 87	 68	  0	
24-Apr-2013	sub2328	2328	  1	  1	139	  4	  2	  3	  2	  3	  1	  1	  1	0.94980	  1	0.90000	  1	 23	 62	 51	  0	
24-Apr-2013	sub2328	2328	  1	  1	140	  4	  2	  5	  5	  5	  0	  1	  0	0.70942	  1	0.90000	  0	 25	 67	 88	  0	
24-Apr-2013	sub2328	2328	  1	  1	141	  4	  2	  6	  4	  5	  1	  2	  1	0.65127	  1	0.90000	  0	 26	 65	 66	  0	
24-Apr-2013	sub2328	2328	  1	  1	142	  4	  2	  5	  5	  5	  0	  2	  1	0.87572	  0	0.90000	  0	 25	 87	 68	  0	
24-Apr-2013	sub2328	2328	  1	  1	143	  4	  2	  2	  6	  2	  1	  1	  0	2.55892	  0	0.90000	  1	 22	 80	 51	  0	
24-Apr-2013	sub2328	2328	  1	  1	144	  4	  2	  4	  1	  4	  1	  1	  0	0.79656	  0	0.90000	  0	 24	 82	 83	  0	
24-Apr-2013	sub2328	2328	  1	  1	145	  4	  2	  5	  5	  5	  0	  1	  0	0.81780	  1	0.90000	  0	 25	 67	 88	  0	
24-Apr-2013	sub2328	2328	  1	  1	146	  4	  2	  5	  5	  5	  0	  1	  0	0.61887	  1	0.90000	  0	 25	 67	 88	  0	
24-Apr-2013	sub2328	2328	  1	  1	147	  4	  2	  5	  5	  5	  0	  2	  1	0.63018	  0	0.90000	  0	 25	 87	 68	  0	
24-Apr-2013	sub2328	2328	  1	  1	148	  4	  2	  6	  4	  5	  0	  2	  0	0.87891	  1	0.90000	  0	 26	 67	 88	  0	
24-Apr-2013	sub2328	2328	  1	  1	149	  4	  2	  3	  2	  3	  0	  1	  0	0.86090	  1	0.90000	  0	 23	 64	 89	  0	
24-Apr-2013	sub2328	2328	  1	  1	150	  4	  2	  4	  1	  4	  1	  2	  1	0.57111	  1	0.90000	  0	 24	 62	 63	  0	
24-Apr-2013	sub2328	2328	  1	  1	  1	  5	  1	  2	  6	  6	  1	  1	  0	0.42613	  0	0.60000	  0	 12	 40	 41	  1	
24-Apr-2013	sub2328	2328	  1	  1	  2	  5	  1	  4	  1	  6	  1	  2	  1	0.65293	  1	0.30000	  1	 14	 32	 51	  0	
24-Apr-2013	sub2328	2328	  1	  1	  3	  5	  1	  3	  3	  5	  1	  1	  1	0.58856	  1	0.90000	  0	 13	 32	 33	  0	
24-Apr-2013	sub2328	2328	  1	  1	  4	  5	  1	  6	  2	  6	  1	  2	  1	0.61495	  1	0.90000	  0	 16	 35	 36	  0	
24-Apr-2013	sub2328	2328	  1	  1	  5	  5	  1	  2	  6	  6	  1	  1	  0	0.61911	  0	0.90000	  0	 12	 40	 41	  0	
24-Apr-2013	sub2328	2328	  1	  1	  6	  5	  1	  1	  4	  2	  1	  2	  0	0.71425	  0	0.90000	  0	 11	 40	 41	  0	
24-Apr-2013	sub2328	2328	  1	  1	  7	  5	  1	  6	  2	  6	  0	  1	  1	0.64097	  0	0.90000	  0	 16	 47	 38	  0	
24-Apr-2013	sub2328	2328	  1	  1	  8	  5	  1	  3	  3	  5	  1	  2	  0	0.63575	  0	0.90000	  0	 13	 42	 43	  0	
24-Apr-2013	sub2328	2328	  1	  1	  9	  5	  1	  1	  4	  2	  1	  2	  0	0.61292	  0	0.90000	  0	 11	 40	 41	  0	
24-Apr-2013	sub2328	2328	  1	  1	 10	  5	  1	  6	  2	  6	  0	  2	  0	0.46331	  1	0.90000	  0	 16	 37	 48	  1	
24-Apr-2013	sub2328	2328	  1	  1	 11	  5	  1	  5	  5	  2	  1	  1	  1	0.48843	  1	0.90000	  0	 15	 35	 36	  1	
24-Apr-2013	sub2328	2328	  1	  1	 12	  5	  1	  3	  3	  5	  0	  2	  1	0.49503	  0	0.90000	  0	 13	 44	 39	  1	
24-Apr-2013	sub2328	2328	  1	  1	 13	  5	  1	  5	  5	  2	  0	  1	  0	0.73790	  1	0.90000	  0	 15	 37	 48	  0	
24-Apr-2013	sub2328	2328	  1	  1	 14	  5	  1	  1	  4	  2	  1	  2	  0	0.67718	  0	0.90000	  0	 11	 40	 41	  0	
24-Apr-2013	sub2328	2328	  1	  1	 15	  5	  1	  4	  1	  6	  1	  2	  1	0.61928	  1	0.90000	  0	 14	 32	 33	  0	
24-Apr-2013	sub2328	2328	  1	  1	 16	  5	  1	  6	  2	  6	  1	  2	  1	0.74038	  1	0.80000	  0	 16	 35	 36	  0	
24-Apr-2013	sub2328	2328	  1	  1	 17	  5	  1	  2	  6	  6	  1	  2	  1	0.70631	  1	0.80000	  0	 12	 30	 31	  0	
24-Apr-2013	sub2328	2328	  1	  1	 18	  5	  1	  3	  3	  5	  1	  2	  0	0.65277	  0	0.70000	  0	 13	 42	 43	  0	
24-Apr-2013	sub2328	2328	  1	  1	 19	  5	  1	  1	  4	  2	  1	  1	  1	0.57055	  1	0.70000	  0	 11	 30	 31	  0	
24-Apr-2013	sub2328	2328	  1	  1	 20	  5	  1	  6	  2	  6	  1	  2	  1	0.63988	  1	0.70000	  0	 16	 35	 36	  0	
24-Apr-2013	sub2328	2328	  1	  1	 21	  5	  1	  1	  4	  2	  1	  2	  0	0.55757	  0	0.60000	  0	 11	 40	 41	  0	
24-Apr-2013	sub2328	2328	  1	  1	 22	  5	  1	  5	  5	  2	  1	  2	  0	0.57826	  0	0.60000	  0	 15	 45	 46	  0	
24-Apr-2013	sub2328	2328	  1	  1	 23	  5	  1	  5	  5	  2	  1	  1	  1	0.48866	  1	0.60000	  0	 15	 35	 36	  1	
24-Apr-2013	sub2328	2328	  1	  1	 24	  5	  1	  2	  6	  6	  1	  2	  1	0.78514	  1	0.60000	  1	 12	 30	 51	  0	
24-Apr-2013	sub2328	2328	  1	  1	 25	  5	  1	  4	  1	  6	  1	  2	  1	0.57567	  1	0.90000	  0	 14	 32	 33	  0	
24-Apr-2013	sub2328	2328	  1	  1	 26	  5	  1	  4	  1	  6	  1	  2	  1	0.54770	  1	0.90000	  0	 14	 32	 33	  0	
24-Apr-2013	sub2328	2328	  1	  1	 27	  5	  1	  1	  4	  2	  1	  2	  0	0.65823	  0	0.90000	  0	 11	 40	 41	  0	
24-Apr-2013	sub2328	2328	  1	  1	 28	  5	  1	  1	  4	  2	  1	  1	  1	0.47870	  1	0.90000	  0	 11	 30	 31	  1	
24-Apr-2013	sub2328	2328	  1	  1	 29	  5	  1	  3	  3	  5	  1	  2	  0	0.89519	  0	0.90000	  0	 13	 42	 43	  0	
24-Apr-2013	sub2328	2328	  1	  1	 30	  5	  1	  3	  3	  5	  1	  1	  1	0.53225	  1	0.80000	  0	 13	 32	 33	  0	
24-Apr-2013	sub2328	2328	  1	  1	 31	  5	  1	  1	  4	  2	  1	  2	  0	0.62089	  0	0.80000	  0	 11	 40	 41	  0	
24-Apr-2013	sub2328	2328	  1	  1	 32	  5	  1	  6	  2	  6	  0	  1	  1	1.62527	  0	0.80000	  1	 16	 47	 51	  0	
24-Apr-2013	sub2328	2328	  1	  1	 33	  5	  1	  5	  5	  2	  1	  1	  1	0.70672	  1	0.90000	  0	 15	 35	 36	  0	
24-Apr-2013	sub2328	2328	  1	  1	 34	  5	  1	  4	  1	  6	  1	  1	  0	0.65048	  0	0.90000	  0	 14	 42	 43	  0	
24-Apr-2013	sub2328	2328	  1	  1	 35	  5	  1	  4	  1	  6	  1	  2	  1	0.47185	  1	0.90000	  0	 14	 32	 33	  1	
24-Apr-2013	sub2328	2328	  1	  1	 36	  5	  1	  2	  6	  6	  1	  2	  1	0.55302	  1	0.90000	  0	 12	 30	 31	  0	
24-Apr-2013	sub2328	2328	  1	  1	 37	  5	  1	  3	  3	  5	  0	  1	  0	0.63383	  1	0.90000	  0	 13	 34	 49	  0	
24-Apr-2013	sub2328	2328	  1	  1	 38	  5	  1	  6	  2	  6	  1	  2	  1	0.51633	  1	0.90000	  0	 16	 35	 36	  0	
24-Apr-2013	sub2328	2328	  1	  1	 39	  5	  1	  6	  2	  6	  0	  2	  0	0.46036	  1	0.90000	  0	 16	 37	 48	  1	
24-Apr-2013	sub2328	2328	  1	  1	 40	  5	  1	  6	  2	  6	  0	  2	  0	0.44633	  1	0.90000	  0	 16	 37	 48	  1	
24-Apr-2013	sub2328	2328	  1	  1	 41	  5	  1	  5	  5	  2	  1	  1	  1	0.61917	  1	0.90000	  0	 15	 35	 36	  0	
24-Apr-2013	sub2328	2328	  1	  1	 42	  5	  1	  2	  6	  6	  1	  1	  0	0.71350	  0	0.90000	  0	 12	 40	 41	  0	
24-Apr-2013	sub2328	2328	  1	  1	 43	  5	  1	  1	  4	  2	  1	  1	  1	0.28681	  1	0.90000	  0	 11	 30	 31	  1	
24-Apr-2013	sub2328	2328	  1	  1	 44	  5	  1	  6	  2	  6	  0	  1	  1	0.54479	  0	0.80000	  0	 16	 47	 38	  0	
24-Apr-2013	sub2328	2328	  1	  1	 45	  5	  1	  4	  1	  6	  1	  2	  1	0.54505	  1	0.80000	  0	 14	 32	 33	  0	
24-Apr-2013	sub2328	2328	  1	  1	 46	  5	  1	  4	  1	  6	  1	  2	  1	0.48827	  1	0.80000	  0	 14	 32	 33	  1	
24-Apr-2013	sub2328	2328	  1	  1	 47	  5	  1	  3	  3	  5	  1	  1	  1	0.51408	  1	0.80000	  0	 13	 32	 33	  0	
24-Apr-2013	sub2328	2328	  1	  1	 48	  5	  1	  1	  4	  2	  1	  2	  0	0.94494	  0	0.80000	  1	 11	 40	 51	  0	
24-Apr-2013	sub2328	2328	  1	  1	 49	  5	  1	  5	  5	  2	  0	  1	  0	0.60946	  1	0.90000	  0	 15	 37	 48	  0	
24-Apr-2013	sub2328	2328	  1	  1	 50	  5	  1	  3	  3	  5	  1	  1	  1	0.63428	  1	0.90000	  0	 13	 32	 33	  0	
24-Apr-2013	sub2328	2328	  1	  1	 51	  5	  1	  4	  1	  6	  0	  1	  1	0.54972	  0	0.90000	  0	 14	 44	 39	  0	
24-Apr-2013	sub2328	2328	  1	  1	 52	  5	  1	  3	  3	  5	  1	  1	  1	0.51770	  1	0.90000	  0	 13	 32	 33	  0	
24-Apr-2013	sub2328	2328	  1	  1	 53	  5	  1	  2	  6	  6	  1	  1	  0	0.51411	  0	0.90000	  0	 12	 40	 41	  0	
24-Apr-2013	sub2328	2328	  1	  1	 54	  5	  1	  5	  5	  2	  0	  1	  0	0.66583	  1	0.90000	  0	 15	 37	 48	  0	
24-Apr-2013	sub2328	2328	  1	  1	 55	  5	  1	  6	  2	  6	  1	  2	  1	0.59552	  1	0.90000	  0	 16	 35	 36	  0	
24-Apr-2013	sub2328	2328	  1	  1	 56	  5	  1	  4	  1	  6	  1	  2	  1	0.55557	  1	0.90000	  0	 14	 32	 33	  0	
24-Apr-2013	sub2328	2328	  1	  1	 57	  5	  1	  3	  3	  5	  1	  1	  1	0.71219	  1	0.90000	  0	 13	 32	 33	  0	
24-Apr-2013	sub2328	2328	  1	  1	 58	  5	  1	  2	  6	  6	  1	  1	  0	0.84096	  0	0.90000	  0	 12	 40	 41	  0	
24-Apr-2013	sub2328	2328	  1	  1	 59	  5	  1	  6	  2	  6	  1	  2	  1	0.41818	  1	0.80000	  0	 16	 35	 36	  1	
24-Apr-2013	sub2328	2328	  1	  1	 60	  5	  1	  2	  6	  6	  1	  2	  1	0.47357	  1	0.80000	  0	 12	 30	 31	  1	
24-Apr-2013	sub2328	2328	  1	  1	 61	  5	  1	  2	  6	  6	  1	  2	  1	0.49417	  1	0.80000	  0	 12	 30	 31	  1	
24-Apr-2013	sub2328	2328	  1	  1	 62	  5	  1	  3	  3	  5	  1	  2	  0	0.49710	  0	0.80000	  0	 13	 42	 43	  1	
24-Apr-2013	sub2328	2328	  1	  1	 63	  5	  1	  6	  2	  6	  1	  2	  1	0.59016	  1	0.80000	  0	 16	 35	 36	  0	
24-Apr-2013	sub2328	2328	  1	  1	 64	  5	  1	  5	  5	  2	  0	  1	  0	0.49987	  1	0.80000	  0	 15	 37	 48	  1	
24-Apr-2013	sub2328	2328	  1	  1	 65	  5	  1	  5	  5	  2	  0	  2	  1	0.67397	  0	0.80000	  0	 15	 47	 38	  0	
24-Apr-2013	sub2328	2328	  1	  1	 66	  5	  1	  2	  6	  6	  1	  2	  1	0.61786	  1	0.80000	  0	 12	 30	 31	  0	
24-Apr-2013	sub2328	2328	  1	  1	 67	  5	  1	  3	  3	  5	  0	  2	  1	0.45650	  0	0.80000	  0	 13	 44	 39	  1	
24-Apr-2013	sub2328	2328	  1	  1	 68	  5	  1	  1	  4	  2	  1	  1	  1	0.71731	  1	0.70000	  1	 11	 30	 51	  0	
24-Apr-2013	sub2328	2328	  1	  1	 69	  5	  1	  2	  6	  6	  1	  1	  0	0.64015	  0	0.90000	  0	 12	 40	 41	  0	
24-Apr-2013	sub2328	2328	  1	  1	 70	  5	  1	  4	  1	  6	  1	  2	  1	0.50398	  1	0.90000	  0	 14	 32	 33	  0	
24-Apr-2013	sub2328	2328	  1	  1	 71	  5	  1	  1	  4	  2	  1	  2	  0	0.59104	  0	0.90000	  0	 11	 40	 41	  0	
24-Apr-2013	sub2328	2328	  1	  1	 72	  5	  1	  4	  1	  6	  0	  2	  0	0.68467	  1	0.90000	  0	 14	 34	 49	  0	
24-Apr-2013	sub2328	2328	  1	  1	 73	  5	  1	  2	  6	  6	  1	  2	  1	0.78426	  1	0.80000	  0	 12	 30	 31	  0	
24-Apr-2013	sub2328	2328	  1	  1	 74	  5	  1	  5	  5	  2	  1	  1	  1	0.58638	  1	0.80000	  0	 15	 35	 36	  0	
24-Apr-2013	sub2328	2328	  1	  1	 75	  5	  1	  5	  5	  2	  0	  1	  0	0.68806	  1	0.80000	  0	 15	 37	 48	  0	
24-Apr-2013	sub2328	2328	  1	  1	 76	  5	  2	  3	  3	  5	  1	  2	  0	0.67776	  0	0.80000	  0	 23	 82	 83	  0	
24-Apr-2013	sub2328	2328	  1	  1	 77	  5	  2	  3	  3	  5	  1	  2	  0	0.46994	  0	0.80000	  0	 23	 82	 83	  1	
24-Apr-2013	sub2328	2328	  1	  1	 78	  5	  2	  5	  5	  2	  0	  1	  0	0.57281	  1	0.80000	  0	 25	 67	 88	  0	
24-Apr-2013	sub2328	2328	  1	  1	 79	  5	  2	  4	  1	  6	  1	  2	  1	0.67466	  1	0.80000	  0	 24	 62	 63	  0	
24-Apr-2013	sub2328	2328	  1	  1	 80	  5	  2	  1	  4	  2	  1	  2	  0	0.52971	  0	0.80000	  0	 21	 80	 81	  0	
24-Apr-2013	sub2328	2328	  1	  1	 81	  5	  2	  4	  1	  6	  1	  2	  1	0.77923	  1	0.80000	  0	 24	 62	 63	  0	
24-Apr-2013	sub2328	2328	  1	  1	 82	  5	  2	  6	  2	  6	  1	  2	  1	0.67405	  1	0.80000	  0	 26	 65	 66	  0	
24-Apr-2013	sub2328	2328	  1	  1	 83	  5	  2	  4	  1	  6	  1	  2	  1	0.65613	  1	0.80000	  0	 24	 62	 63	  0	
24-Apr-2013	sub2328	2328	  1	  1	 84	  5	  2	  5	  5	  2	  0	  2	  1	0.67511	  0	0.80000	  0	 25	 87	 68	  0	
24-Apr-2013	sub2328	2328	  1	  1	 85	  5	  2	  5	  5	  2	  0	  2	  1	0.65417	  0	0.70000	  0	 25	 87	 68	  0	
24-Apr-2013	sub2328	2328	  1	  1	 86	  5	  2	  2	  6	  6	  1	  2	  1	0.67993	  1	0.70000	  0	 22	 60	 61	  0	
24-Apr-2013	sub2328	2328	  1	  1	 87	  5	  2	  3	  3	  5	  1	  2	  0	0.63327	  0	0.70000	  0	 23	 82	 83	  0	
24-Apr-2013	sub2328	2328	  1	  1	 88	  5	  2	  4	  1	  6	  1	  2	  1	0.54480	  1	0.70000	  0	 24	 62	 63	  0	
24-Apr-2013	sub2328	2328	  1	  1	 89	  5	  2	  6	  2	  6	  1	  2	  1	0.72656	  1	0.70000	  1	 26	 65	 51	  0	
24-Apr-2013	sub2328	2328	  1	  1	 90	  5	  2	  5	  5	  2	  0	  1	  0	0.54568	  1	0.80000	  0	 25	 67	 88	  0	
24-Apr-2013	sub2328	2328	  1	  1	 91	  5	  2	  1	  4	  2	  1	  2	  0	0.69625	  0	0.80000	  0	 21	 80	 81	  0	
24-Apr-2013	sub2328	2328	  1	  1	 92	  5	  2	  1	  4	  2	  1	  2	  0	0.38376	  0	0.80000	  0	 21	 80	 81	  1	
24-Apr-2013	sub2328	2328	  1	  1	 93	  5	  2	  1	  4	  2	  1	  1	  1	0.42817	  1	0.80000	  0	 21	 60	 61	  1	
24-Apr-2013	sub2328	2328	  1	  1	 94	  5	  2	  5	  5	  2	  0	  1	  0	0.55913	  1	0.80000	  0	 25	 67	 88	  0	
24-Apr-2013	sub2328	2328	  1	  1	 95	  5	  2	  3	  3	  5	  0	  2	  1	0.58546	  0	0.80000	  0	 23	 84	 69	  0	
24-Apr-2013	sub2328	2328	  1	  1	 96	  5	  2	  2	  6	  6	  1	  2	  1	0.63495	  1	0.80000	  0	 22	 60	 61	  0	
24-Apr-2013	sub2328	2328	  1	  1	 97	  5	  2	  5	  5	  2	  0	  2	  1	0.76782	  0	0.80000	  0	 25	 87	 68	  0	
24-Apr-2013	sub2328	2328	  1	  1	 98	  5	  2	  3	  3	  5	  1	  2	  0	0.45986	  0	0.80000	  0	 23	 82	 83	  1	
24-Apr-2013	sub2328	2328	  1	  1	 99	  5	  2	  1	  4	  2	  1	  2	  0	0.37706	  0	0.80000	  0	 21	 80	 81	  1	
24-Apr-2013	sub2328	2328	  1	  1	100	  5	  2	  6	  2	  6	  0	  2	  0	0.59805	  1	0.80000	  0	 26	 67	 88	  0	
24-Apr-2013	sub2328	2328	  1	  1	101	  5	  2	  2	  6	  6	  1	  1	  0	0.84819	  0	0.70000	  1	 22	 80	 51	  0	
24-Apr-2013	sub2328	2328	  1	  1	102	  5	  2	  6	  2	  6	  1	  2	  1	0.55742	  1	0.80000	  0	 26	 65	 66	  0	
24-Apr-2013	sub2328	2328	  1	  1	103	  5	  2	  1	  4	  2	  1	  1	  1	0.64410	  1	0.80000	  0	 21	 60	 61	  0	
24-Apr-2013	sub2328	2328	  1	  1	104	  5	  2	  3	  3	  5	  0	  2	  1	0.56815	  0	0.80000	  0	 23	 84	 69	  0	
24-Apr-2013	sub2328	2328	  1	  1	105	  5	  2	  1	  4	  2	  1	  1	  1	0.42169	  1	0.80000	  0	 21	 60	 61	  1	
24-Apr-2013	sub2328	2328	  1	  1	106	  5	  2	  6	  2	  6	  0	  1	  1	0.22794	  0	0.80000	  0	 26	 87	 68	  1	
24-Apr-2013	sub2328	2328	  1	  1	107	  5	  2	  2	  6	  6	  1	  2	  1	0.57499	  1	0.80000	  0	 22	 60	 61	  0	
24-Apr-2013	sub2328	2328	  1	  1	108	  5	  2	  5	  5	  2	  0	  1	  0	0.56385	  1	0.80000	  0	 25	 67	 88	  0	
24-Apr-2013	sub2328	2328	  1	  1	109	  5	  2	  4	  1	  6	  1	  2	  1	0.41600	  1	0.80000	  0	 24	 62	 63	  1	
24-Apr-2013	sub2328	2328	  1	  1	110	  5	  2	  6	  2	  6	  1	  2	  1	0.42686	  1	0.80000	  0	 26	 65	 66	  1	
24-Apr-2013	sub2328	2328	  1	  1	111	  5	  2	  3	  3	  5	  1	  2	  0	0.64038	  0	0.80000	  0	 23	 82	 83	  0	
24-Apr-2013	sub2328	2328	  1	  1	112	  5	  2	  4	  1	  6	  1	  2	  1	0.59010	  1	0.80000	  0	 24	 62	 63	  0	
24-Apr-2013	sub2328	2328	  1	  1	113	  5	  2	  4	  1	  6	  1	  2	  1	0.49781	  1	0.80000	  0	 24	 62	 63	  1	
24-Apr-2013	sub2328	2328	  1	  1	114	  5	  2	  1	  4	  2	  1	  1	  1	0.65576	  1	0.80000	  0	 21	 60	 61	  0	
24-Apr-2013	sub2328	2328	  1	  1	115	  5	  2	  6	  2	  6	  1	  1	  0	0.51286	  0	0.80000	  0	 26	 85	 86	  0	
24-Apr-2013	sub2328	2328	  1	  1	116	  5	  2	  2	  6	  6	  1	  2	  1	0.71120	  1	0.80000	  0	 22	 60	 61	  0	
24-Apr-2013	sub2328	2328	  1	  1	117	  5	  2	  5	  5	  2	  0	  1	  0	0.61278	  1	0.80000	  0	 25	 67	 88	  0	
24-Apr-2013	sub2328	2328	  1	  1	118	  5	  2	  3	  3	  5	  1	  2	  0	0.56634	  0	0.70000	  0	 23	 82	 83	  0	
24-Apr-2013	sub2328	2328	  1	  1	119	  5	  2	  4	  1	  6	  1	  2	  1	0.55819	  1	0.70000	  0	 24	 62	 63	  0	
24-Apr-2013	sub2328	2328	  1	  1	120	  5	  2	  5	  5	  2	  0	  2	  1	0.47394	  0	0.70000	  0	 25	 87	 68	  1	
24-Apr-2013	sub2328	2328	  1	  1	121	  5	  2	  2	  6	  6	  1	  1	  0	0.42276	  0	0.70000	  0	 22	 80	 81	  1	
24-Apr-2013	sub2328	2328	  1	  1	122	  5	  2	  1	  4	  2	  1	  2	  0	0.44283	  0	0.70000	  0	 21	 80	 81	  1	
24-Apr-2013	sub2328	2328	  1	  1	123	  5	  2	  2	  6	  6	  1	  2	  1	0.55317	  1	0.70000	  0	 22	 60	 61	  0	
24-Apr-2013	sub2328	2328	  1	  1	124	  5	  2	  2	  6	  6	  1	  1	  0	0.44910	  0	0.70000	  0	 22	 80	 81	  1	
24-Apr-2013	sub2328	2328	  1	  1	125	  5	  2	  5	  5	  2	  0	  2	  1	0.26796	  0	0.70000	  0	 25	 87	 68	  1	
24-Apr-2013	sub2328	2328	  1	  1	126	  5	  2	  1	  4	  2	  1	  2	  0	0.50290	  0	0.70000	  0	 21	 80	 81	  0	
24-Apr-2013	sub2328	2328	  1	  1	127	  5	  2	  4	  1	  6	  0	  1	  1	0.50907	  0	0.70000	  0	 24	 84	 69	  0	
24-Apr-2013	sub2328	2328	  1	  1	128	  5	  2	  2	  6	  6	  1	  1	  0	0.55083	  0	0.70000	  0	 22	 80	 81	  0	
24-Apr-2013	sub2328	2328	  1	  1	129	  5	  2	  1	  4	  2	  1	  1	  1	0.60062	  1	0.70000	  0	 21	 60	 61	  0	
24-Apr-2013	sub2328	2328	  1	  1	130	  5	  2	  2	  6	  6	  1	  1	  0	0.50913	  0	0.70000	  0	 22	 80	 81	  0	
24-Apr-2013	sub2328	2328	  1	  1	131	  5	  2	  6	  2	  6	  0	  1	  1	3.32382	  0	0.70000	  1	 26	 87	 51	  0	
24-Apr-2013	sub2328	2328	  1	  1	132	  5	  2	  5	  5	  2	  0	  2	  1	0.66151	  0	0.80000	  0	 25	 87	 68	  0	
24-Apr-2013	sub2328	2328	  1	  1	133	  5	  2	  3	  3	  5	  1	  2	  0	0.52648	  0	0.80000	  0	 23	 82	 83	  0	
24-Apr-2013	sub2328	2328	  1	  1	134	  5	  2	  6	  2	  6	  0	  2	  0	0.59988	  1	0.80000	  0	 26	 67	 88	  0	
24-Apr-2013	sub2328	2328	  1	  1	135	  5	  2	  3	  3	  5	  1	  1	  1	0.70132	  1	0.70000	  1	 23	 62	 51	  0	
24-Apr-2013	sub2328	2328	  1	  1	136	  5	  2	  4	  1	  6	  0	  1	  1	0.78524	  0	0.80000	  0	 24	 84	 69	  0	
24-Apr-2013	sub2328	2328	  1	  1	137	  5	  2	  1	  4	  2	  1	  1	  1	0.56350	  1	0.80000	  0	 21	 60	 61	  0	
24-Apr-2013	sub2328	2328	  1	  1	138	  5	  2	  3	  3	  5	  1	  1	  1	0.42027	  1	0.80000	  0	 23	 62	 63	  1	
24-Apr-2013	sub2328	2328	  1	  1	139	  5	  2	  5	  5	  2	  0	  1	  0	0.54646	  1	0.80000	  0	 25	 67	 88	  0	
24-Apr-2013	sub2328	2328	  1	  1	140	  5	  2	  4	  1	  6	  1	  2	  1	0.55072	  1	0.80000	  0	 24	 62	 63	  0	
24-Apr-2013	sub2328	2328	  1	  1	141	  5	  2	  6	  2	  6	  1	  2	  1	0.48128	  1	0.80000	  0	 26	 65	 66	  1	
24-Apr-2013	sub2328	2328	  1	  1	142	  5	  2	  5	  5	  2	  0	  1	  0	0.63670	  1	0.80000	  0	 25	 67	 88	  0	
24-Apr-2013	sub2328	2328	  1	  1	143	  5	  2	  2	  6	  6	  1	  2	  1	0.56733	  1	0.80000	  0	 22	 60	 61	  0	
24-Apr-2013	sub2328	2328	  1	  1	144	  5	  2	  3	  3	  5	  1	  2	  0	0.53436	  0	0.80000	  0	 23	 82	 83	  0	
24-Apr-2013	sub2328	2328	  1	  1	145	  5	  2	  2	  6	  6	  1	  1	  0	0.18227	  0	0.80000	  0	 22	 80	 81	  1	
24-Apr-2013	sub2328	2328	  1	  1	146	  5	  2	  1	  4	  2	  1	  1	  1	0.24608	  1	0.80000	  0	 21	 60	 61	  1	
24-Apr-2013	sub2328	2328	  1	  1	147	  5	  2	  6	  2	  6	  0	  1	  1	0.39873	  0	0.80000	  0	 26	 87	 68	  1	
24-Apr-2013	sub2328	2328	  1	  1	148	  5	  2	  4	  1	  6	  1	  1	  0	0.32401	  0	0.80000	  0	 24	 82	 83	  1	
24-Apr-2013	sub2328	2328	  1	  1	149	  5	  2	  4	  1	  6	  0	  1	  1	0.52125	  0	0.80000	  0	 24	 84	 69	  0	
24-Apr-2013	sub2328	2328	  1	  1	150	  5	  2	  6	  2	  6	  0	  1	  1	0.72448	  0	0.80000	  0	 26	 87	 68	  0	
24-Apr-2013	sub2328	2328	  1	  1	  1	  6	  1	  4	  6	  1	  1	  1	  0	0.44074	  0	0.60000	  0	 14	 42	 43	  1	
24-Apr-2013	sub2328	2328	  1	  1	  2	  6	  1	  2	  3	  2	  1	  1	  0	0.66309	  0	0.30000	  1	 12	 40	 51	  0	
24-Apr-2013	sub2328	2328	  1	  1	  3	  6	  1	  2	  3	  2	  1	  1	  0	0.41900	  0	0.90000	  0	 12	 40	 41	  1	
24-Apr-2013	sub2328	2328	  1	  1	  4	  6	  1	  3	  1	  1	  1	  1	  1	0.52610	  1	0.90000	  0	 13	 32	 33	  0	
24-Apr-2013	sub2328	2328	  1	  1	  5	  6	  1	  2	  3	  2	  1	  2	  1	0.80277	  1	0.90000	  0	 12	 30	 31	  0	
24-Apr-2013	sub2328	2328	  1	  1	  6	  6	  1	  5	  5	  3	  1	  1	  1	0.72517	  1	0.90000	  0	 15	 35	 36	  0	
24-Apr-2013	sub2328	2328	  1	  1	  7	  6	  1	  2	  3	  2	  1	  2	  1	0.77809	  1	0.90000	  0	 12	 30	 31	  0	
24-Apr-2013	sub2328	2328	  1	  1	  8	  6	  1	  3	  1	  1	  1	  1	  1	1.02363	  1	0.90000	  1	 13	 32	 51	  0	
24-Apr-2013	sub2328	2328	  1	  1	  9	  6	  1	  5	  5	  3	  1	  2	  0	0.82131	  0	0.90000	  0	 15	 45	 46	  0	
24-Apr-2013	sub2328	2328	  1	  1	 10	  6	  1	  6	  4	  3	  1	  1	  0	0.75416	  0	0.90000	  0	 16	 45	 46	  0	
24-Apr-2013	sub2328	2328	  1	  1	 11	  6	  1	  2	  3	  2	  1	  2	  1	0.68533	  1	0.90000	  0	 12	 30	 31	  0	
24-Apr-2013	sub2328	2328	  1	  1	 12	  6	  1	  4	  6	  1	  1	  2	  1	0.75185	  1	0.90000	  0	 14	 32	 33	  0	
24-Apr-2013	sub2328	2328	  1	  1	 13	  6	  1	  2	  3	  2	  1	  2	  1	0.67246	  1	0.90000	  0	 12	 30	 31	  0	
24-Apr-2013	sub2328	2328	  1	  1	 14	  6	  1	  3	  1	  1	  1	  2	  0	0.94433	  0	0.90000	  1	 13	 42	 51	  0	
24-Apr-2013	sub2328	2328	  1	  1	 15	  6	  1	  1	  2	  2	  1	  2	  0	0.54019	  0	0.90000	  0	 11	 40	 41	  0	
24-Apr-2013	sub2328	2328	  1	  1	 16	  6	  1	  4	  6	  1	  0	  2	  0	0.73536	  1	0.90000	  0	 14	 34	 49	  0	
24-Apr-2013	sub2328	2328	  1	  1	 17	  6	  1	  5	  5	  3	  0	  2	  1	0.68883	  0	0.90000	  0	 15	 47	 38	  0	
24-Apr-2013	sub2328	2328	  1	  1	 18	  6	  1	  3	  1	  1	  0	  2	  1	0.77031	  0	0.90000	  0	 13	 44	 39	  0	
24-Apr-2013	sub2328	2328	  1	  1	 19	  6	  1	  6	  4	  3	  1	  1	  0	0.53132	  0	0.90000	  0	 16	 45	 46	  0	
24-Apr-2013	sub2328	2328	  1	  1	 20	  6	  1	  1	  2	  2	  1	  2	  0	0.53784	  0	0.90000	  0	 11	 40	 41	  0	
24-Apr-2013	sub2328	2328	  1	  1	 21	  6	  1	  2	  3	  2	  1	  2	  1	0.45098	  1	0.90000	  0	 12	 30	 31	  1	
24-Apr-2013	sub2328	2328	  1	  1	 22	  6	  1	  6	  4	  3	  1	  1	  0	0.47484	  0	0.90000	  0	 16	 45	 46	  1	
24-Apr-2013	sub2328	2328	  1	  1	 23	  6	  1	  4	  6	  1	  1	  2	  1	0.57173	  1	0.90000	  0	 14	 32	 33	  0	
24-Apr-2013	sub2328	2328	  1	  1	 24	  6	  1	  4	  6	  1	  1	  2	  1	0.36139	  1	0.90000	  0	 14	 32	 33	  1	
24-Apr-2013	sub2328	2328	  1	  1	 25	  6	  1	  6	  4	  3	  1	  2	  1	0.45466	  1	0.90000	  0	 16	 35	 36	  1	
24-Apr-2013	sub2328	2328	  1	  1	 26	  6	  1	  2	  3	  2	  1	  2	  1	0.62026	  1	0.90000	  0	 12	 30	 31	  0	
24-Apr-2013	sub2328	2328	  1	  1	 27	  6	  1	  1	  2	  2	  1	  2	  0	0.53046	  0	0.90000	  0	 11	 40	 41	  0	
24-Apr-2013	sub2328	2328	  1	  1	 28	  6	  1	  6	  4	  3	  0	  1	  1	0.51599	  0	0.90000	  0	 16	 47	 38	  0	
24-Apr-2013	sub2328	2328	  1	  1	 29	  6	  1	  5	  5	  3	  0	  2	  1	0.55952	  0	0.90000	  0	 15	 47	 38	  0	
24-Apr-2013	sub2328	2328	  1	  1	 30	  6	  1	  1	  2	  2	  1	  2	  0	0.63056	  0	0.90000	  0	 11	 40	 41	  0	
24-Apr-2013	sub2328	2328	  1	  1	 31	  6	  1	  4	  6	  1	  0	  2	  0	0.39607	  1	0.90000	  0	 14	 34	 49	  1	
24-Apr-2013	sub2328	2328	  1	  1	 32	  6	  1	  3	  1	  1	  1	  2	  0	0.49162	  0	0.90000	  0	 13	 42	 43	  1	
24-Apr-2013	sub2328	2328	  1	  1	 33	  6	  1	  6	  4	  3	  0	  1	  1	0.58420	  0	0.90000	  0	 16	 47	 38	  0	
24-Apr-2013	sub2328	2328	  1	  1	 34	  6	  1	  5	  5	  3	  1	  2	  0	0.55315	  0	0.90000	  0	 15	 45	 46	  0	
24-Apr-2013	sub2328	2328	  1	  1	 35	  6	  1	  1	  2	  2	  1	  2	  0	0.66368	  0	0.90000	  0	 11	 40	 41	  0	
24-Apr-2013	sub2328	2328	  1	  1	 36	  6	  1	  6	  4	  3	  0	  1	  1	0.79075	  0	0.90000	  0	 16	 47	 38	  0	
24-Apr-2013	sub2328	2328	  1	  1	 37	  6	  1	  1	  2	  2	  1	  1	  1	0.45054	  1	0.90000	  0	 11	 30	 31	  1	
24-Apr-2013	sub2328	2328	  1	  1	 38	  6	  1	  1	  2	  2	  1	  1	  1	0.50782	  1	0.90000	  0	 11	 30	 31	  0	
24-Apr-2013	sub2328	2328	  1	  1	 39	  6	  1	  3	  1	  1	  1	  1	  1	0.24413	  1	0.90000	  0	 13	 32	 33	  1	
24-Apr-2013	sub2328	2328	  1	  1	 40	  6	  1	  6	  4	  3	  1	  1	  0	1.29850	  0	0.90000	  1	 16	 45	 51	  0	
24-Apr-2013	sub2328	2328	  1	  1	 41	  6	  1	  2	  3	  2	  1	  2	  1	0.67219	  1	0.90000	  0	 12	 30	 31	  0	
24-Apr-2013	sub2328	2328	  1	  1	 42	  6	  1	  5	  5	  3	  0	  2	  1	0.65827	  0	0.90000	  0	 15	 47	 38	  0	
24-Apr-2013	sub2328	2328	  1	  1	 43	  6	  1	  2	  3	  2	  1	  2	  1	0.45960	  1	0.90000	  0	 12	 30	 31	  1	
24-Apr-2013	sub2328	2328	  1	  1	 44	  6	  1	  4	  6	  1	  1	  2	  1	0.53067	  1	0.90000	  0	 14	 32	 33	  0	
24-Apr-2013	sub2328	2328	  1	  1	 45	  6	  1	  5	  5	  3	  0	  1	  0	0.69545	  1	0.90000	  0	 15	 37	 48	  0	
24-Apr-2013	sub2328	2328	  1	  1	 46	  6	  1	  3	  1	  1	  1	  1	  1	0.45334	  1	0.90000	  0	 13	 32	 33	  1	
24-Apr-2013	sub2328	2328	  1	  1	 47	  6	  1	  5	  5	  3	  0	  2	  1	0.40715	  0	0.90000	  0	 15	 47	 38	  1	
24-Apr-2013	sub2328	2328	  1	  1	 48	  6	  1	  6	  4	  3	  0	  1	  1	0.71645	  0	0.90000	  0	 16	 47	 38	  0	
24-Apr-2013	sub2328	2328	  1	  1	 49	  6	  1	  3	  1	  1	  1	  2	  0	0.70137	  0	0.90000	  0	 13	 42	 43	  0	
24-Apr-2013	sub2328	2328	  1	  1	 50	  6	  1	  4	  6	  1	  1	  1	  0	0.50609	  0	0.90000	  0	 14	 42	 43	  0	
24-Apr-2013	sub2328	2328	  1	  1	 51	  6	  1	  2	  3	  2	  1	  2	  1	0.60584	  1	0.90000	  0	 12	 30	 31	  0	
24-Apr-2013	sub2328	2328	  1	  1	 52	  6	  1	  6	  4	  3	  0	  2	  0	0.45205	  1	0.90000	  0	 16	 37	 48	  1	
24-Apr-2013	sub2328	2328	  1	  1	 53	  6	  1	  1	  2	  2	  1	  1	  1	0.00097	  1	0.90000	  0	 11	 30	 31	  1	
24-Apr-2013	sub2328	2328	  1	  1	 54	  6	  1	  3	  1	  1	  1	  2	  0	0.52785	  0	0.90000	  0	 13	 42	 43	  0	
24-Apr-2013	sub2328	2328	  1	  1	 55	  6	  1	  3	  1	  1	  0	  1	  0	1.22342	  1	0.90000	  1	 13	 34	 51	  0	
24-Apr-2013	sub2328	2328	  1	  1	 56	  6	  1	  2	  3	  2	  1	  2	  1	0.53066	  1	0.90000	  0	 12	 30	 31	  0	
24-Apr-2013	sub2328	2328	  1	  1	 57	  6	  1	  5	  5	  3	  1	  2	  0	0.56235	  0	0.90000	  0	 15	 45	 46	  0	
24-Apr-2013	sub2328	2328	  1	  1	 58	  6	  1	  2	  3	  2	  1	  2	  1	0.40330	  1	0.90000	  0	 12	 30	 31	  1	
24-Apr-2013	sub2328	2328	  1	  1	 59	  6	  1	  4	  6	  1	  1	  2	  1	0.51079	  1	0.90000	  0	 14	 32	 33	  0	
24-Apr-2013	sub2328	2328	  1	  1	 60	  6	  1	  4	  6	  1	  1	  2	  1	0.50135	  1	0.90000	  0	 14	 32	 33	  0	
24-Apr-2013	sub2328	2328	  1	  1	 61	  6	  1	  3	  1	  1	  1	  2	  0	0.39631	  0	0.90000	  0	 13	 42	 43	  1	
24-Apr-2013	sub2328	2328	  1	  1	 62	  6	  1	  6	  4	  3	  1	  1	  0	0.64492	  0	0.90000	  0	 16	 45	 46	  0	
24-Apr-2013	sub2328	2328	  1	  1	 63	  6	  1	  3	  1	  1	  1	  1	  1	1.67004	  1	0.90000	  1	 13	 32	 51	  0	
24-Apr-2013	sub2328	2328	  1	  1	 64	  6	  1	  1	  2	  2	  1	  2	  0	0.55606	  0	0.90000	  0	 11	 40	 41	  0	
24-Apr-2013	sub2328	2328	  1	  1	 65	  6	  1	  6	  4	  3	  1	  1	  0	0.59338	  0	0.90000	  0	 16	 45	 46	  0	
24-Apr-2013	sub2328	2328	  1	  1	 66	  6	  1	  5	  5	  3	  1	  2	  0	1.24036	  0	0.90000	  1	 15	 45	 51	  0	
24-Apr-2013	sub2328	2328	  1	  1	 67	  6	  1	  1	  2	  2	  1	  2	  0	0.51096	  0	0.90000	  0	 11	 40	 41	  0	
24-Apr-2013	sub2328	2328	  1	  1	 68	  6	  1	  6	  4	  3	  0	  1	  1	0.79468	  0	0.90000	  0	 16	 47	 38	  0	
24-Apr-2013	sub2328	2328	  1	  1	 69	  6	  1	  4	  6	  1	  1	  2	  1	0.54118	  1	0.90000	  0	 14	 32	 33	  0	
24-Apr-2013	sub2328	2328	  1	  1	 70	  6	  1	  1	  2	  2	  1	  1	  1	0.55194	  1	0.90000	  0	 11	 30	 31	  0	
24-Apr-2013	sub2328	2328	  1	  1	 71	  6	  1	  5	  5	  3	  1	  1	  1	0.55067	  1	0.90000	  0	 15	 35	 36	  0	
24-Apr-2013	sub2328	2328	  1	  1	 72	  6	  1	  4	  6	  1	  1	  1	  0	0.41597	  0	0.90000	  0	 14	 42	 43	  1	
24-Apr-2013	sub2328	2328	  1	  1	 73	  6	  1	  1	  2	  2	  1	  1	  1	0.36168	  1	0.90000	  0	 11	 30	 31	  1	
24-Apr-2013	sub2328	2328	  1	  1	 74	  6	  1	  3	  1	  1	  0	  1	  0	1.49743	  1	0.90000	  1	 13	 34	 51	  0	
24-Apr-2013	sub2328	2328	  1	  1	 75	  6	  1	  5	  5	  3	  0	  2	  1	0.55521	  0	0.90000	  0	 15	 47	 38	  0	
24-Apr-2013	sub2328	2328	  1	  1	 76	  6	  2	  4	  6	  1	  1	  2	  1	0.55681	  1	0.90000	  0	 24	 62	 63	  0	
24-Apr-2013	sub2328	2328	  1	  1	 77	  6	  2	  1	  2	  2	  1	  2	  0	0.53266	  0	0.90000	  0	 21	 80	 81	  0	
24-Apr-2013	sub2328	2328	  1	  1	 78	  6	  2	  1	  2	  2	  1	  1	  1	0.46262	  1	0.90000	  0	 21	 60	 61	  1	
24-Apr-2013	sub2328	2328	  1	  1	 79	  6	  2	  5	  5	  3	  0	  2	  1	0.66001	  0	0.90000	  0	 25	 87	 68	  0	
24-Apr-2013	sub2328	2328	  1	  1	 80	  6	  2	  4	  6	  1	  0	  2	  0	3.13007	  1	0.90000	  1	 24	 64	 51	  0	
24-Apr-2013	sub2328	2328	  1	  1	 81	  6	  2	  5	  5	  3	  0	  2	  1	0.49926	  0	0.90000	  0	 25	 87	 68	  1	
24-Apr-2013	sub2328	2328	  1	  1	 82	  6	  2	  3	  1	  1	  1	  1	  1	1.67965	  1	0.90000	  1	 23	 62	 51	  0	
24-Apr-2013	sub2328	2328	  1	  1	 83	  6	  2	  4	  6	  1	  1	  2	  1	0.50699	  1	0.90000	  0	 24	 62	 63	  0	
24-Apr-2013	sub2328	2328	  1	  1	 84	  6	  2	  2	  3	  2	  1	  2	  1	0.40126	  1	0.90000	  0	 22	 60	 61	  1	
24-Apr-2013	sub2328	2328	  1	  1	 85	  6	  2	  6	  4	  3	  0	  2	  0	0.54190	  1	0.90000	  0	 26	 67	 88	  0	
24-Apr-2013	sub2328	2328	  1	  1	 86	  6	  2	  2	  3	  2	  1	  2	  1	0.45076	  1	0.90000	  0	 22	 60	 61	  1	
24-Apr-2013	sub2328	2328	  1	  1	 87	  6	  2	  6	  4	  3	  1	  1	  0	0.50160	  0	0.90000	  0	 26	 85	 86	  0	
24-Apr-2013	sub2328	2328	  1	  1	 88	  6	  2	  4	  6	  1	  1	  2	  1	0.45693	  1	0.90000	  0	 24	 62	 63	  1	
24-Apr-2013	sub2328	2328	  1	  1	 89	  6	  2	  4	  6	  1	  1	  2	  1	0.43654	  1	0.90000	  0	 24	 62	 63	  1	
24-Apr-2013	sub2328	2328	  1	  1	 90	  6	  2	  6	  4	  3	  1	  2	  1	0.46802	  1	0.90000	  0	 26	 65	 66	  1	
24-Apr-2013	sub2328	2328	  1	  1	 91	  6	  2	  2	  3	  2	  1	  2	  1	0.30615	  1	0.90000	  0	 22	 60	 61	  1	
24-Apr-2013	sub2328	2328	  1	  1	 92	  6	  2	  3	  1	  1	  1	  2	  0	0.58835	  0	0.90000	  0	 23	 82	 83	  0	
24-Apr-2013	sub2328	2328	  1	  1	 93	  6	  2	  2	  3	  2	  1	  2	  1	0.60557	  1	0.90000	  0	 22	 60	 61	  0	
24-Apr-2013	sub2328	2328	  1	  1	 94	  6	  2	  5	  5	  3	  0	  2	  1	0.49144	  0	0.90000	  0	 25	 87	 68	  1	
24-Apr-2013	sub2328	2328	  1	  1	 95	  6	  2	  1	  2	  2	  1	  1	  1	0.64155	  1	0.90000	  0	 21	 60	 61	  0	
24-Apr-2013	sub2328	2328	  1	  1	 96	  6	  2	  1	  2	  2	  1	  1	  1	0.27271	  1	0.90000	  0	 21	 60	 61	  1	
24-Apr-2013	sub2328	2328	  1	  1	 97	  6	  2	  4	  6	  1	  1	  1	  0	0.51376	  0	0.90000	  0	 24	 82	 83	  0	
24-Apr-2013	sub2328	2328	  1	  1	 98	  6	  2	  1	  2	  2	  1	  1	  1	0.15615	  1	0.90000	  0	 21	 60	 61	  1	
24-Apr-2013	sub2328	2328	  1	  1	 99	  6	  2	  2	  3	  2	  1	  2	  1	0.57490	  1	0.90000	  0	 22	 60	 61	  0	
24-Apr-2013	sub2328	2328	  1	  1	100	  6	  2	  6	  4	  3	  0	  2	  0	0.42761	  1	0.90000	  0	 26	 67	 88	  1	
24-Apr-2013	sub2328	2328	  1	  1	101	  6	  2	  3	  1	  1	  1	  1	  1	0.71560	  1	0.90000	  0	 23	 62	 63	  0	
24-Apr-2013	sub2328	2328	  1	  1	102	  6	  2	  6	  4	  3	  1	  1	  0	0.00287	  0	0.90000	  0	 26	 85	 86	  1	
24-Apr-2013	sub2328	2328	  1	  1	103	  6	  2	  2	  3	  2	  1	  1	  0	0.54424	  0	0.90000	  0	 22	 80	 81	  0	
24-Apr-2013	sub2328	2328	  1	  1	104	  6	  2	  2	  3	  2	  1	  1	  0	1.06039	  0	0.90000	  1	 22	 80	 51	  0	
24-Apr-2013	sub2328	2328	  1	  1	105	  6	  2	  4	  6	  1	  1	  2	  1	0.51530	  1	0.90000	  0	 24	 62	 63	  0	
24-Apr-2013	sub2328	2328	  1	  1	106	  6	  2	  5	  5	  3	  0	  2	  1	0.59520	  0	0.90000	  0	 25	 87	 68	  0	
24-Apr-2013	sub2328	2328	  1	  1	107	  6	  2	  1	  2	  2	  1	  2	  0	0.89032	  0	0.90000	  0	 21	 80	 81	  0	
24-Apr-2013	sub2328	2328	  1	  1	108	  6	  2	  3	  1	  1	  1	  1	  1	0.99568	  1	0.90000	  1	 23	 62	 51	  0	
24-Apr-2013	sub2328	2328	  1	  1	109	  6	  2	  4	  6	  1	  1	  2	  1	0.48489	  1	0.90000	  0	 24	 62	 63	  1	
24-Apr-2013	sub2328	2328	  1	  1	110	  6	  2	  6	  4	  3	  0	  1	  1	0.57944	  0	0.90000	  0	 26	 87	 68	  0	
24-Apr-2013	sub2328	2328	  1	  1	111	  6	  2	  1	  2	  2	  1	  2	  0	0.66761	  0	0.90000	  0	 21	 80	 81	  0	
24-Apr-2013	sub2328	2328	  1	  1	112	  6	  2	  1	  2	  2	  1	  2	  0	1.82119	  0	0.90000	  1	 21	 80	 51	  0	
24-Apr-2013	sub2328	2328	  1	  1	113	  6	  2	  2	  3	  2	  1	  2	  1	0.48788	  1	0.90000	  0	 22	 60	 61	  1	
24-Apr-2013	sub2328	2328	  1	  1	114	  6	  2	  3	  1	  1	  1	  2	  0	0.59712	  0	0.90000	  0	 23	 82	 83	  0	
24-Apr-2013	sub2328	2328	  1	  1	115	  6	  2	  4	  6	  1	  1	  2	  1	0.62394	  1	0.90000	  0	 24	 62	 63	  0	
24-Apr-2013	sub2328	2328	  1	  1	116	  6	  2	  4	  6	  1	  0	  1	  1	3.63631	  0	0.90000	  1	 24	 84	 51	  0	
24-Apr-2013	sub2328	2328	  1	  1	117	  6	  2	  2	  3	  2	  1	  2	  1	0.56378	  1	0.90000	  0	 22	 60	 61	  0	
24-Apr-2013	sub2328	2328	  1	  1	118	  6	  2	  6	  4	  3	  0	  2	  0	0.72872	  1	0.90000	  0	 26	 67	 88	  0	
24-Apr-2013	sub2328	2328	  1	  1	119	  6	  2	  4	  6	  1	  0	  2	  0	0.49864	  1	0.90000	  0	 24	 64	 89	  1	
24-Apr-2013	sub2328	2328	  1	  1	120	  6	  2	  5	  5	  3	  0	  1	  0	0.71226	  1	0.90000	  0	 25	 67	 88	  0	
24-Apr-2013	sub2328	2328	  1	  1	121	  6	  2	  6	  4	  3	  1	  1	  0	0.55350	  0	0.90000	  0	 26	 85	 86	  0	
24-Apr-2013	sub2328	2328	  1	  1	122	  6	  2	  3	  1	  1	  0	  2	  1	0.73400	  0	0.90000	  0	 23	 84	 69	  0	
24-Apr-2013	sub2328	2328	  1	  1	123	  6	  2	  2	  3	  2	  1	  2	  1	0.52695	  1	0.90000	  0	 22	 60	 61	  0	
24-Apr-2013	sub2328	2328	  1	  1	124	  6	  2	  6	  4	  3	  1	  2	  1	1.29429	  1	0.90000	  1	 26	 65	 51	  0	
24-Apr-2013	sub2328	2328	  1	  1	125	  6	  2	  3	  1	  1	  1	  2	  0	0.77739	  0	0.90000	  0	 23	 82	 83	  0	
24-Apr-2013	sub2328	2328	  1	  1	126	  6	  2	  1	  2	  2	  1	  1	  1	0.77009	  1	0.90000	  0	 21	 60	 61	  0	
24-Apr-2013	sub2328	2328	  1	  1	127	  6	  2	  5	  5	  3	  0	  1	  0	0.74585	  1	0.90000	  0	 25	 67	 88	  0	
24-Apr-2013	sub2328	2328	  1	  1	128	  6	  2	  6	  4	  3	  0	  1	  1	0.58528	  0	0.90000	  0	 26	 87	 68	  0	
24-Apr-2013	sub2328	2328	  1	  1	129	  6	  2	  5	  5	  3	  0	  2	  1	0.79906	  0	0.90000	  0	 25	 87	 68	  0	
24-Apr-2013	sub2328	2328	  1	  1	130	  6	  2	  2	  3	  2	  1	  2	  1	0.97094	  1	0.90000	  1	 22	 60	 51	  0	
24-Apr-2013	sub2328	2328	  1	  1	131	  6	  2	  5	  5	  3	  0	  2	  1	1.30710	  0	0.90000	  1	 25	 87	 51	  0	
24-Apr-2013	sub2328	2328	  1	  1	132	  6	  2	  3	  1	  1	  1	  1	  1	0.71216	  1	0.90000	  0	 23	 62	 63	  0	
24-Apr-2013	sub2328	2328	  1	  1	133	  6	  2	  5	  5	  3	  0	  1	  0	0.79645	  1	0.90000	  0	 25	 67	 88	  0	
24-Apr-2013	sub2328	2328	  1	  1	134	  6	  2	  4	  6	  1	  1	  2	  1	1.27151	  1	0.90000	  1	 24	 62	 51	  0	
24-Apr-2013	sub2328	2328	  1	  1	135	  6	  2	  6	  4	  3	  0	  1	  1	0.51386	  0	0.90000	  0	 26	 87	 68	  0	
24-Apr-2013	sub2328	2328	  1	  1	136	  6	  2	  5	  5	  3	  0	  2	  1	1.26038	  0	0.90000	  1	 25	 87	 51	  0	
24-Apr-2013	sub2328	2328	  1	  1	137	  6	  2	  5	  5	  3	  0	  2	  1	0.55104	  0	0.90000	  0	 25	 87	 68	  0	
24-Apr-2013	sub2328	2328	  1	  1	138	  6	  2	  3	  1	  1	  0	  1	  0	0.65938	  1	0.90000	  0	 23	 64	 89	  0	
24-Apr-2013	sub2328	2328	  1	  1	139	  6	  2	  1	  2	  2	  1	  1	  1	0.71408	  1	0.90000	  0	 21	 60	 61	  0	
24-Apr-2013	sub2328	2328	  1	  1	140	  6	  2	  3	  1	  1	  1	  1	  1	0.68784	  1	0.90000	  0	 23	 62	 63	  0	
24-Apr-2013	sub2328	2328	  1	  1	141	  6	  2	  1	  2	  2	  1	  1	  1	0.60283	  1	0.90000	  0	 21	 60	 61	  0	
24-Apr-2013	sub2328	2328	  1	  1	142	  6	  2	  2	  3	  2	  1	  1	  0	0.66553	  0	0.90000	  0	 22	 80	 81	  0	
24-Apr-2013	sub2328	2328	  1	  1	143	  6	  2	  5	  5	  3	  0	  2	  1	0.55317	  0	0.90000	  0	 25	 87	 68	  0	
24-Apr-2013	sub2328	2328	  1	  1	144	  6	  2	  5	  5	  3	  0	  2	  1	0.57567	  0	0.90000	  0	 25	 87	 68	  0	
24-Apr-2013	sub2328	2328	  1	  1	145	  6	  2	  1	  2	  2	  1	  2	  0	2.64478	  0	0.90000	  1	 21	 80	 51	  0	
24-Apr-2013	sub2328	2328	  1	  1	146	  6	  2	  6	  4	  3	  1	  2	  1	0.50817	  1	0.90000	  0	 26	 65	 66	  0	
24-Apr-2013	sub2328	2328	  1	  1	147	  6	  2	  3	  1	  1	  1	  2	  0	0.61186	  0	0.90000	  0	 23	 82	 83	  0	
24-Apr-2013	sub2328	2328	  1	  1	148	  6	  2	  4	  6	  1	  1	  2	  1	0.34013	  1	0.90000	  0	 24	 62	 63	  1	
24-Apr-2013	sub2328	2328	  1	  1	149	  6	  2	  3	  1	  1	  1	  2	  0	0.59814	  0	0.90000	  0	 23	 82	 83	  0	
24-Apr-2013	sub2328	2328	  1	  1	150	  6	  2	  1	  2	  2	  1	  1	  1	0.68651	  1	0.90000	  0	 21	 60	 61	  0	
