Date 	 Name 	 ID 	 Gender 	 Appearance 	 Trial 	 Block 	 Bin 	 Condition 	 Category 	 Number 	 Valid 	 Keypress 	 Correct 	 RT 	 Realcorrect 	 Deadline 	 Timeout 	 Stimtrigger 	 Resptrigger 	 Fedtrigger 	 WithinTime 	 
24-Apr-2013	sub2329	2329	  2	  0	  1	  1	  1	  5	  1	  2	  1	  1	  1	1.76654	  1	0.60000	  1	 15	 35	 51	  0	
24-Apr-2013	sub2329	2329	  2	  0	  2	  1	  1	  3	  2	  3	  1	  2	  0	0.76261	  0	0.90000	  0	 13	 42	 43	  0	
24-Apr-2013	sub2329	2329	  2	  0	  3	  1	  1	  1	  4	  5	  1	  1	  1	1.06535	  1	0.90000	  1	 11	 30	 51	  0	
24-Apr-2013	sub2329	2329	  2	  0	  4	  1	  1	  4	  5	  5	  1	  2	  1	0.55713	  1	0.90000	  0	 14	 32	 33	  0	
24-Apr-2013	sub2329	2329	  2	  0	  5	  1	  1	  3	  2	  3	  1	  2	  0	0.89315	  0	0.90000	  0	 13	 42	 43	  0	
24-Apr-2013	sub2329	2329	  2	  0	  6	  1	  1	  6	  6	  1	  0	  2	  0	0.84712	  1	0.90000	  0	 16	 37	 48	  0	
24-Apr-2013	sub2329	2329	  2	  0	  7	  1	  1	  5	  1	  2	  0	  1	  0	0.89783	  1	0.90000	  0	 15	 37	 48	  0	
24-Apr-2013	sub2329	2329	  2	  0	  8	  1	  1	  6	  6	  1	  0	  1	  1	1.16897	  0	0.90000	  1	 16	 47	 51	  0	
24-Apr-2013	sub2329	2329	  2	  0	  9	  1	  1	  5	  1	  2	  1	  2	  0	1.84294	  0	0.90000	  1	 15	 45	 51	  0	
24-Apr-2013	sub2329	2329	  2	  0	 10	  1	  1	  2	  3	  4	  1	  1	  0	0.54577	  0	0.90000	  0	 12	 40	 41	  0	
24-Apr-2013	sub2329	2329	  2	  0	 11	  1	  1	  3	  2	  3	  1	  2	  0	0.41841	  0	0.90000	  0	 13	 42	 43	  1	
24-Apr-2013	sub2329	2329	  2	  0	 12	  1	  1	  2	  3	  4	  1	  1	  0	0.49418	  0	0.90000	  0	 12	 40	 41	  1	
24-Apr-2013	sub2329	2329	  2	  0	 13	  1	  1	  3	  2	  3	  1	  1	  1	0.93869	  1	0.90000	  1	 13	 32	 51	  0	
24-Apr-2013	sub2329	2329	  2	  0	 14	  1	  1	  4	  5	  5	  1	  1	  0	0.89521	  0	0.90000	  0	 14	 42	 43	  0	
24-Apr-2013	sub2329	2329	  2	  0	 15	  1	  1	  2	  3	  4	  1	  1	  0	0.82929	  0	0.90000	  0	 12	 40	 41	  0	
24-Apr-2013	sub2329	2329	  2	  0	 16	  1	  1	  5	  1	  2	  0	  1	  0	0.93169	  1	0.90000	  1	 15	 37	 51	  0	
24-Apr-2013	sub2329	2329	  2	  0	 17	  1	  1	  1	  4	  5	  1	  2	  0	0.63260	  0	0.90000	  0	 11	 40	 41	  0	
24-Apr-2013	sub2329	2329	  2	  0	 18	  1	  1	  6	  6	  1	  1	  2	  1	0.56944	  1	0.90000	  0	 16	 35	 36	  0	
24-Apr-2013	sub2329	2329	  2	  0	 19	  1	  1	  1	  4	  5	  1	  1	  1	1.06195	  1	0.90000	  1	 11	 30	 51	  0	
24-Apr-2013	sub2329	2329	  2	  0	 20	  1	  1	  4	  5	  5	  1	  1	  0	0.57559	  0	0.90000	  0	 14	 42	 43	  0	
24-Apr-2013	sub2329	2329	  2	  0	 21	  1	  1	  3	  2	  3	  1	  1	  1	0.95860	  1	0.90000	  1	 13	 32	 51	  0	
24-Apr-2013	sub2329	2329	  2	  0	 22	  1	  1	  2	  3	  4	  1	  2	  1	0.36252	  1	0.90000	  0	 12	 30	 31	  1	
24-Apr-2013	sub2329	2329	  2	  0	 23	  1	  1	  3	  2	  3	  1	  2	  0	0.71072	  0	0.90000	  0	 13	 42	 43	  0	
24-Apr-2013	sub2329	2329	  2	  0	 24	  1	  1	  3	  2	  3	  0	  2	  1	0.63662	  0	0.90000	  0	 13	 44	 39	  0	
24-Apr-2013	sub2329	2329	  2	  0	 25	  1	  1	  6	  6	  1	  0	  2	  0	0.73307	  1	0.90000	  0	 16	 37	 48	  0	
24-Apr-2013	sub2329	2329	  2	  0	 26	  1	  1	  4	  5	  5	  1	  2	  1	0.59388	  1	0.90000	  0	 14	 32	 33	  0	
24-Apr-2013	sub2329	2329	  2	  0	 27	  1	  1	  5	  1	  2	  0	  1	  0	0.44623	  1	0.90000	  0	 15	 37	 48	  1	
24-Apr-2013	sub2329	2329	  2	  0	 28	  1	  1	  5	  1	  2	  1	  2	  0	0.59231	  0	0.90000	  0	 15	 45	 46	  0	
24-Apr-2013	sub2329	2329	  2	  0	 29	  1	  1	  1	  4	  5	  1	  1	  1	0.48282	  1	0.90000	  0	 11	 30	 31	  1	
24-Apr-2013	sub2329	2329	  2	  0	 30	  1	  1	  6	  6	  1	  0	  2	  0	0.75145	  1	0.90000	  0	 16	 37	 48	  0	
24-Apr-2013	sub2329	2329	  2	  0	 31	  1	  1	  3	  2	  3	  1	  1	  1	0.44451	  1	0.90000	  0	 13	 32	 33	  1	
24-Apr-2013	sub2329	2329	  2	  0	 32	  1	  1	  1	  4	  5	  1	  2	  0	0.75037	  0	0.90000	  0	 11	 40	 41	  0	
24-Apr-2013	sub2329	2329	  2	  0	 33	  1	  1	  3	  2	  3	  0	  1	  0	0.34237	  1	0.90000	  0	 13	 34	 49	  1	
24-Apr-2013	sub2329	2329	  2	  0	 34	  1	  1	  6	  6	  1	  1	  1	  0	0.40879	  0	0.90000	  0	 16	 45	 46	  1	
24-Apr-2013	sub2329	2329	  2	  0	 35	  1	  1	  6	  6	  1	  1	  1	  0	0.34903	  0	0.90000	  0	 16	 45	 46	  1	
24-Apr-2013	sub2329	2329	  2	  0	 36	  1	  1	  6	  6	  1	  1	  2	  1	0.50345	  1	0.90000	  0	 16	 35	 36	  0	
24-Apr-2013	sub2329	2329	  2	  0	 37	  1	  1	  6	  6	  1	  0	  2	  0	0.51601	  1	0.90000	  0	 16	 37	 48	  0	
24-Apr-2013	sub2329	2329	  2	  0	 38	  1	  1	  1	  4	  5	  1	  2	  0	0.63295	  0	0.90000	  0	 11	 40	 41	  0	
24-Apr-2013	sub2329	2329	  2	  0	 39	  1	  1	  6	  6	  1	  0	  2	  0	0.47357	  1	0.90000	  0	 16	 37	 48	  1	
24-Apr-2013	sub2329	2329	  2	  0	 40	  1	  1	  4	  5	  5	  1	  2	  1	0.60096	  1	0.90000	  0	 14	 32	 33	  0	
24-Apr-2013	sub2329	2329	  2	  0	 41	  1	  1	  2	  3	  4	  1	  1	  0	0.64917	  0	0.90000	  0	 12	 40	 41	  0	
24-Apr-2013	sub2329	2329	  2	  0	 42	  1	  1	  3	  2	  3	  1	  2	  0	0.36395	  0	0.90000	  0	 13	 42	 43	  1	
24-Apr-2013	sub2329	2329	  2	  0	 43	  1	  1	  5	  1	  2	  1	  2	  0	2.17827	  0	0.90000	  1	 15	 45	 51	  0	
24-Apr-2013	sub2329	2329	  2	  0	 44	  1	  1	  2	  3	  4	  1	  2	  1	0.58292	  1	0.90000	  0	 12	 30	 31	  0	
24-Apr-2013	sub2329	2329	  2	  0	 45	  1	  1	  6	  6	  1	  0	  2	  0	0.53453	  1	0.90000	  0	 16	 37	 48	  0	
24-Apr-2013	sub2329	2329	  2	  0	 46	  1	  1	  4	  5	  5	  1	  1	  0	0.39259	  0	0.90000	  0	 14	 42	 43	  1	
24-Apr-2013	sub2329	2329	  2	  0	 47	  1	  1	  4	  5	  5	  0	  2	  0	0.09758	  1	0.90000	  0	 14	 34	 49	  1	
24-Apr-2013	sub2329	2329	  2	  0	 48	  1	  1	  4	  5	  5	  1	  2	  1	0.66233	  1	0.90000	  0	 14	 32	 33	  0	
24-Apr-2013	sub2329	2329	  2	  0	 49	  1	  1	  1	  4	  5	  1	  1	  1	0.38694	  1	0.90000	  0	 11	 30	 31	  1	
24-Apr-2013	sub2329	2329	  2	  0	 50	  1	  1	  1	  4	  5	  1	  2	  0	0.47387	  0	0.90000	  0	 11	 40	 41	  1	
24-Apr-2013	sub2329	2329	  2	  0	 51	  1	  1	  1	  4	  5	  1	  1	  1	0.49681	  1	0.90000	  0	 11	 30	 31	  1	
24-Apr-2013	sub2329	2329	  2	  0	 52	  1	  1	  4	  5	  5	  1	  2	  1	0.67243	  1	0.90000	  0	 14	 32	 33	  0	
24-Apr-2013	sub2329	2329	  2	  0	 53	  1	  1	  6	  6	  1	  1	  2	  1	0.74892	  1	0.90000	  0	 16	 35	 36	  0	
24-Apr-2013	sub2329	2329	  2	  0	 54	  1	  1	  2	  3	  4	  1	  2	  1	0.68630	  1	0.90000	  0	 12	 30	 31	  0	
24-Apr-2013	sub2329	2329	  2	  0	 55	  1	  1	  6	  6	  1	  1	  2	  1	0.59053	  1	0.90000	  0	 16	 35	 36	  0	
24-Apr-2013	sub2329	2329	  2	  0	 56	  1	  1	  2	  3	  4	  1	  2	  1	0.47606	  1	0.90000	  0	 12	 30	 31	  1	
24-Apr-2013	sub2329	2329	  2	  0	 57	  1	  1	  3	  2	  3	  0	  2	  1	0.49438	  0	0.90000	  0	 13	 44	 39	  1	
24-Apr-2013	sub2329	2329	  2	  0	 58	  1	  1	  5	  1	  2	  0	  1	  0	0.47336	  1	0.90000	  0	 15	 37	 48	  1	
24-Apr-2013	sub2329	2329	  2	  0	 59	  1	  1	  2	  3	  4	  1	  2	  1	0.52500	  1	0.90000	  0	 12	 30	 31	  0	
24-Apr-2013	sub2329	2329	  2	  0	 60	  1	  1	  2	  3	  4	  1	  2	  1	0.34769	  1	0.90000	  0	 12	 30	 31	  1	
24-Apr-2013	sub2329	2329	  2	  0	 61	  1	  1	  3	  2	  3	  1	  2	  0	0.14187	  0	0.90000	  0	 13	 42	 43	  1	
24-Apr-2013	sub2329	2329	  2	  0	 62	  1	  1	  4	  5	  5	  0	  1	  1	0.54964	  0	0.90000	  0	 14	 44	 39	  0	
24-Apr-2013	sub2329	2329	  2	  0	 63	  1	  1	  2	  3	  4	  1	  2	  1	0.60909	  1	0.90000	  0	 12	 30	 31	  0	
24-Apr-2013	sub2329	2329	  2	  0	 64	  1	  1	  5	  1	  2	  0	  1	  0	0.38120	  1	0.90000	  0	 15	 37	 48	  1	
24-Apr-2013	sub2329	2329	  2	  0	 65	  1	  1	  2	  3	  4	  1	  2	  1	0.20033	  1	0.90000	  0	 12	 30	 31	  1	
24-Apr-2013	sub2329	2329	  2	  0	 66	  1	  1	  5	  1	  2	  1	  1	  1	0.38968	  1	0.90000	  0	 15	 35	 36	  1	
24-Apr-2013	sub2329	2329	  2	  0	 67	  1	  1	  1	  4	  5	  1	  2	  0	2.08114	  0	0.90000	  1	 11	 40	 51	  0	
24-Apr-2013	sub2329	2329	  2	  0	 68	  1	  1	  5	  1	  2	  1	  2	  0	0.45715	  0	0.90000	  0	 15	 45	 46	  1	
24-Apr-2013	sub2329	2329	  2	  0	 69	  1	  1	  4	  5	  5	  1	  1	  0	0.34504	  0	0.90000	  0	 14	 42	 43	  1	
24-Apr-2013	sub2329	2329	  2	  0	 70	  1	  1	  3	  2	  3	  1	  2	  0	0.61890	  0	0.90000	  0	 13	 42	 43	  0	
24-Apr-2013	sub2329	2329	  2	  0	 71	  1	  1	  2	  3	  4	  1	  2	  1	0.29322	  1	0.90000	  0	 12	 30	 31	  1	
24-Apr-2013	sub2329	2329	  2	  0	 72	  1	  1	  5	  1	  2	  1	  2	  0	0.46590	  0	0.90000	  0	 15	 45	 46	  1	
24-Apr-2013	sub2329	2329	  2	  0	 73	  1	  1	  4	  5	  5	  1	  2	  1	0.53805	  1	0.90000	  0	 14	 32	 33	  0	
24-Apr-2013	sub2329	2329	  2	  0	 74	  1	  1	  1	  4	  5	  1	  2	  0	0.64198	  0	0.90000	  0	 11	 40	 41	  0	
24-Apr-2013	sub2329	2329	  2	  0	 75	  1	  1	  1	  4	  5	  1	  2	  0	0.44706	  0	0.90000	  0	 11	 40	 41	  1	
24-Apr-2013	sub2329	2329	  2	  0	  1	  2	  1	  4	  6	  2	  1	  2	  1	0.77432	  1	0.60000	  1	 14	 32	 51	  0	
24-Apr-2013	sub2329	2329	  2	  0	  2	  2	  1	  4	  6	  2	  1	  2	  1	0.42325	  1	0.90000	  0	 14	 32	 33	  1	
24-Apr-2013	sub2329	2329	  2	  0	  3	  2	  1	  4	  6	  2	  1	  2	  1	0.48558	  1	0.90000	  0	 14	 32	 33	  1	
24-Apr-2013	sub2329	2329	  2	  0	  4	  2	  1	  1	  1	  3	  1	  1	  1	0.62358	  1	0.90000	  0	 11	 30	 31	  0	
24-Apr-2013	sub2329	2329	  2	  0	  5	  2	  1	  1	  1	  3	  1	  1	  1	0.46015	  1	0.90000	  0	 11	 30	 31	  1	
24-Apr-2013	sub2329	2329	  2	  0	  6	  2	  1	  2	  4	  1	  1	  1	  0	0.67642	  0	0.90000	  0	 12	 40	 41	  0	
24-Apr-2013	sub2329	2329	  2	  0	  7	  2	  1	  5	  5	  1	  0	  1	  0	0.84019	  1	0.90000	  0	 15	 37	 48	  0	
24-Apr-2013	sub2329	2329	  2	  0	  8	  2	  1	  6	  3	  3	  0	  2	  0	0.61558	  1	0.90000	  0	 16	 37	 48	  0	
24-Apr-2013	sub2329	2329	  2	  0	  9	  2	  1	  2	  4	  1	  1	  2	  1	0.44040	  1	0.90000	  0	 12	 30	 31	  1	
24-Apr-2013	sub2329	2329	  2	  0	 10	  2	  1	  3	  2	  5	  1	  2	  0	0.59396	  0	0.90000	  0	 13	 42	 43	  0	
24-Apr-2013	sub2329	2329	  2	  0	 11	  2	  1	  1	  1	  3	  1	  1	  1	0.58548	  1	0.90000	  0	 11	 30	 31	  0	
24-Apr-2013	sub2329	2329	  2	  0	 12	  2	  1	  5	  5	  1	  1	  1	  1	0.59784	  1	0.90000	  0	 15	 35	 36	  0	
24-Apr-2013	sub2329	2329	  2	  0	 13	  2	  1	  2	  4	  1	  1	  1	  0	0.52632	  0	0.90000	  0	 12	 40	 41	  0	
24-Apr-2013	sub2329	2329	  2	  0	 14	  2	  1	  3	  2	  5	  1	  2	  0	0.76697	  0	0.90000	  0	 13	 42	 43	  0	
24-Apr-2013	sub2329	2329	  2	  0	 15	  2	  1	  4	  6	  2	  1	  1	  0	0.32517	  0	0.90000	  0	 14	 42	 43	  1	
24-Apr-2013	sub2329	2329	  2	  0	 16	  2	  1	  3	  2	  5	  1	  2	  0	0.77320	  0	0.80000	  0	 13	 42	 43	  0	
24-Apr-2013	sub2329	2329	  2	  0	 17	  2	  1	  1	  1	  3	  1	  1	  1	0.29058	  1	0.80000	  0	 11	 30	 31	  1	
24-Apr-2013	sub2329	2329	  2	  0	 18	  2	  1	  5	  5	  1	  1	  1	  1	0.48209	  1	0.70000	  0	 15	 35	 36	  1	
24-Apr-2013	sub2329	2329	  2	  0	 19	  2	  1	  5	  5	  1	  1	  1	  1	0.47068	  1	0.70000	  0	 15	 35	 36	  1	
24-Apr-2013	sub2329	2329	  2	  0	 20	  2	  1	  3	  2	  5	  0	  1	  0	0.55418	  1	0.70000	  0	 13	 34	 49	  0	
24-Apr-2013	sub2329	2329	  2	  0	 21	  2	  1	  2	  4	  1	  1	  1	  0	0.48273	  0	0.60000	  0	 12	 40	 41	  1	
24-Apr-2013	sub2329	2329	  2	  0	 22	  2	  1	  3	  2	  5	  1	  1	  1	0.58955	  1	0.60000	  0	 13	 32	 33	  0	
24-Apr-2013	sub2329	2329	  2	  0	 23	  2	  1	  5	  5	  1	  1	  1	  1	0.58495	  1	0.60000	  0	 15	 35	 36	  0	
24-Apr-2013	sub2329	2329	  2	  0	 24	  2	  1	  5	  5	  1	  0	  1	  0	0.45734	  1	0.60000	  0	 15	 37	 48	  1	
24-Apr-2013	sub2329	2329	  2	  0	 25	  2	  1	  5	  5	  1	  1	  1	  1	0.48413	  1	0.60000	  0	 15	 35	 36	  1	
24-Apr-2013	sub2329	2329	  2	  0	 26	  2	  1	  4	  6	  2	  0	  1	  1	0.62953	  0	0.50000	  1	 14	 44	 51	  0	
24-Apr-2013	sub2329	2329	  2	  0	 27	  2	  1	  2	  4	  1	  1	  2	  1	0.49548	  1	0.90000	  0	 12	 30	 31	  1	
24-Apr-2013	sub2329	2329	  2	  0	 28	  2	  1	  3	  2	  5	  1	  2	  0	0.51945	  0	0.90000	  0	 13	 42	 43	  0	
24-Apr-2013	sub2329	2329	  2	  0	 29	  2	  1	  4	  6	  2	  1	  2	  1	0.44506	  1	0.90000	  0	 14	 32	 33	  1	
24-Apr-2013	sub2329	2329	  2	  0	 30	  2	  1	  6	  3	  3	  1	  2	  1	0.49986	  1	0.80000	  0	 16	 35	 36	  1	
24-Apr-2013	sub2329	2329	  2	  0	 31	  2	  1	  1	  1	  3	  1	  2	  0	0.52915	  0	0.80000	  0	 11	 40	 41	  0	
24-Apr-2013	sub2329	2329	  2	  0	 32	  2	  1	  5	  5	  1	  0	  1	  0	0.37854	  1	0.80000	  0	 15	 37	 48	  1	
24-Apr-2013	sub2329	2329	  2	  0	 33	  2	  1	  2	  4	  1	  1	  1	  0	0.53236	  0	0.80000	  0	 12	 40	 41	  0	
24-Apr-2013	sub2329	2329	  2	  0	 34	  2	  1	  6	  3	  3	  0	  1	  1	0.40978	  0	0.80000	  0	 16	 47	 38	  1	
24-Apr-2013	sub2329	2329	  2	  0	 35	  2	  1	  2	  4	  1	  1	  2	  1	0.50619	  1	0.70000	  0	 12	 30	 31	  0	
24-Apr-2013	sub2329	2329	  2	  0	 36	  2	  1	  6	  3	  3	  0	  1	  1	0.85970	  0	0.70000	  1	 16	 47	 51	  0	
24-Apr-2013	sub2329	2329	  2	  0	 37	  2	  1	  1	  1	  3	  1	  2	  0	0.62814	  0	0.90000	  0	 11	 40	 41	  0	
24-Apr-2013	sub2329	2329	  2	  0	 38	  2	  1	  4	  6	  2	  1	  1	  0	0.46087	  0	0.90000	  0	 14	 42	 43	  1	
24-Apr-2013	sub2329	2329	  2	  0	 39	  2	  1	  6	  3	  3	  0	  1	  1	0.55499	  0	0.90000	  0	 16	 47	 38	  0	
24-Apr-2013	sub2329	2329	  2	  0	 40	  2	  1	  2	  4	  1	  1	  1	  0	0.59538	  0	0.90000	  0	 12	 40	 41	  0	
24-Apr-2013	sub2329	2329	  2	  0	 41	  2	  1	  6	  3	  3	  1	  2	  1	0.41978	  1	0.90000	  0	 16	 35	 36	  1	
24-Apr-2013	sub2329	2329	  2	  0	 42	  2	  1	  1	  1	  3	  1	  1	  1	0.48384	  1	0.90000	  0	 11	 30	 31	  1	
24-Apr-2013	sub2329	2329	  2	  0	 43	  2	  1	  2	  4	  1	  1	  2	  1	0.43361	  1	0.90000	  0	 12	 30	 31	  1	
24-Apr-2013	sub2329	2329	  2	  0	 44	  2	  1	  2	  4	  1	  1	  1	  0	0.36853	  0	0.80000	  0	 12	 40	 41	  1	
24-Apr-2013	sub2329	2329	  2	  0	 45	  2	  1	  1	  1	  3	  1	  1	  1	0.58757	  1	0.80000	  0	 11	 30	 31	  0	
24-Apr-2013	sub2329	2329	  2	  0	 46	  2	  1	  1	  1	  3	  1	  1	  1	0.57370	  1	0.80000	  0	 11	 30	 31	  0	
24-Apr-2013	sub2329	2329	  2	  0	 47	  2	  1	  3	  2	  5	  1	  1	  1	0.40426	  1	0.80000	  0	 13	 32	 33	  1	
24-Apr-2013	sub2329	2329	  2	  0	 48	  2	  1	  3	  2	  5	  0	  1	  0	0.41300	  1	0.80000	  0	 13	 34	 49	  1	
24-Apr-2013	sub2329	2329	  2	  0	 49	  2	  1	  6	  3	  3	  1	  2	  1	0.61282	  1	0.80000	  0	 16	 35	 36	  0	
24-Apr-2013	sub2329	2329	  2	  0	 50	  2	  1	  6	  3	  3	  0	  2	  0	0.47344	  1	0.80000	  0	 16	 37	 48	  1	
24-Apr-2013	sub2329	2329	  2	  0	 51	  2	  1	  2	  4	  1	  1	  2	  1	0.66119	  1	0.70000	  0	 12	 30	 31	  0	
24-Apr-2013	sub2329	2329	  2	  0	 52	  2	  1	  5	  5	  1	  1	  1	  1	0.69253	  1	0.70000	  0	 15	 35	 36	  0	
24-Apr-2013	sub2329	2329	  2	  0	 53	  2	  1	  3	  2	  5	  1	  2	  0	0.46346	  0	0.70000	  0	 13	 42	 43	  1	
24-Apr-2013	sub2329	2329	  2	  0	 54	  2	  1	  6	  3	  3	  0	  1	  1	0.33131	  0	0.70000	  0	 16	 47	 38	  1	
24-Apr-2013	sub2329	2329	  2	  0	 55	  2	  1	  4	  6	  2	  0	  2	  0	0.48567	  1	0.70000	  0	 14	 34	 49	  1	
24-Apr-2013	sub2329	2329	  2	  0	 56	  2	  1	  4	  6	  2	  1	  1	  0	0.41330	  0	0.70000	  0	 14	 42	 43	  1	
24-Apr-2013	sub2329	2329	  2	  0	 57	  2	  1	  5	  5	  1	  1	  1	  1	0.37397	  1	0.70000	  0	 15	 35	 36	  1	
24-Apr-2013	sub2329	2329	  2	  0	 58	  2	  1	  6	  3	  3	  1	  2	  1	0.44193	  1	0.70000	  0	 16	 35	 36	  1	
24-Apr-2013	sub2329	2329	  2	  0	 59	  2	  1	  1	  1	  3	  1	  1	  1	0.30272	  1	0.70000	  0	 11	 30	 31	  1	
24-Apr-2013	sub2329	2329	  2	  0	 60	  2	  1	  4	  6	  2	  1	  2	  1	0.30941	  1	0.70000	  0	 14	 32	 33	  1	
24-Apr-2013	sub2329	2329	  2	  0	 61	  2	  1	  1	  1	  3	  1	  1	  1	0.44194	  1	0.60000	  0	 11	 30	 31	  1	
24-Apr-2013	sub2329	2329	  2	  0	 62	  2	  1	  2	  4	  1	  1	  2	  1	0.27518	  1	0.60000	  0	 12	 30	 31	  1	
24-Apr-2013	sub2329	2329	  2	  0	 63	  2	  1	  4	  6	  2	  1	  1	  0	0.66612	  0	0.60000	  1	 14	 42	 51	  0	
24-Apr-2013	sub2329	2329	  2	  0	 64	  2	  1	  3	  2	  5	  1	  2	  0	0.41249	  0	0.80000	  0	 13	 42	 43	  1	
24-Apr-2013	sub2329	2329	  2	  0	 65	  2	  1	  6	  3	  3	  0	  1	  1	0.29368	  0	0.80000	  0	 16	 47	 38	  1	
24-Apr-2013	sub2329	2329	  2	  0	 66	  2	  1	  1	  1	  3	  1	  1	  1	0.42710	  1	0.80000	  0	 11	 30	 31	  1	
24-Apr-2013	sub2329	2329	  2	  0	 67	  2	  1	  3	  2	  5	  0	  1	  0	0.50086	  1	0.80000	  0	 13	 34	 49	  0	
24-Apr-2013	sub2329	2329	  2	  0	 68	  2	  1	  5	  5	  1	  0	  1	  0	0.45806	  1	0.70000	  0	 15	 37	 48	  1	
24-Apr-2013	sub2329	2329	  2	  0	 69	  2	  1	  6	  3	  3	  1	  1	  0	0.39777	  0	0.70000	  0	 16	 45	 46	  1	
24-Apr-2013	sub2329	2329	  2	  0	 70	  2	  1	  3	  2	  5	  1	  2	  0	0.44353	  0	0.70000	  0	 13	 42	 43	  1	
24-Apr-2013	sub2329	2329	  2	  0	 71	  2	  1	  5	  5	  1	  0	  1	  0	0.59899	  1	0.70000	  0	 15	 37	 48	  0	
24-Apr-2013	sub2329	2329	  2	  0	 72	  2	  1	  3	  2	  5	  1	  1	  1	0.47517	  1	0.70000	  0	 13	 32	 33	  1	
24-Apr-2013	sub2329	2329	  2	  0	 73	  2	  1	  6	  3	  3	  0	  1	  1	0.49126	  0	0.70000	  0	 16	 47	 38	  1	
24-Apr-2013	sub2329	2329	  2	  0	 74	  2	  1	  2	  4	  1	  1	  1	  0	0.49382	  0	0.70000	  0	 12	 40	 41	  1	
24-Apr-2013	sub2329	2329	  2	  0	 75	  2	  1	  4	  6	  2	  1	  2	  1	0.02039	  1	0.70000	  0	 14	 32	 33	  1	
24-Apr-2013	sub2329	2329	  2	  0	 76	  2	  2	  1	  1	  3	  1	  1	  1	0.39277	  1	0.70000	  0	 21	 60	 61	  1	
24-Apr-2013	sub2329	2329	  2	  0	 77	  2	  2	  3	  2	  5	  1	  1	  1	0.49287	  1	0.70000	  0	 23	 62	 63	  1	
24-Apr-2013	sub2329	2329	  2	  0	 78	  2	  2	  2	  4	  1	  1	  1	  0	0.38886	  0	0.70000	  0	 22	 80	 81	  1	
24-Apr-2013	sub2329	2329	  2	  0	 79	  2	  2	  4	  6	  2	  1	  1	  0	0.31891	  0	0.70000	  0	 24	 82	 83	  1	
24-Apr-2013	sub2329	2329	  2	  0	 80	  2	  2	  5	  5	  1	  0	  1	  0	0.36762	  1	0.70000	  0	 25	 67	 88	  1	
24-Apr-2013	sub2329	2329	  2	  0	 81	  2	  2	  1	  1	  3	  1	  1	  1	0.40487	  1	0.60000	  0	 21	 60	 61	  1	
24-Apr-2013	sub2329	2329	  2	  0	 82	  2	  2	  2	  4	  1	  1	  1	  0	0.48191	  0	0.60000	  0	 22	 80	 81	  1	
24-Apr-2013	sub2329	2329	  2	  0	 83	  2	  2	  3	  2	  5	  1	  1	  1	0.33612	  1	0.60000	  0	 23	 62	 63	  1	
24-Apr-2013	sub2329	2329	  2	  0	 84	  2	  2	  4	  6	  2	  1	  1	  0	0.49212	  0	0.60000	  0	 24	 82	 83	  1	
24-Apr-2013	sub2329	2329	  2	  0	 85	  2	  2	  5	  5	  1	  0	  1	  0	0.63569	  1	0.60000	  1	 25	 67	 51	  0	
24-Apr-2013	sub2329	2329	  2	  0	 86	  2	  2	  3	  2	  5	  1	  1	  1	0.63125	  1	0.70000	  0	 23	 62	 63	  0	
24-Apr-2013	sub2329	2329	  2	  0	 87	  2	  2	  4	  6	  2	  0	  2	  0	0.49487	  1	0.70000	  0	 24	 64	 89	  1	
24-Apr-2013	sub2329	2329	  2	  0	 88	  2	  2	  2	  4	  1	  1	  1	  0	0.38753	  0	0.70000	  0	 22	 80	 81	  1	
24-Apr-2013	sub2329	2329	  2	  0	 89	  2	  2	  6	  3	  3	  0	  1	  1	0.45926	  0	0.70000	  0	 26	 87	 68	  1	
24-Apr-2013	sub2329	2329	  2	  0	 90	  2	  2	  6	  3	  3	  1	  1	  0	0.46917	  0	0.70000	  0	 26	 85	 86	  1	
24-Apr-2013	sub2329	2329	  2	  0	 91	  2	  2	  6	  3	  3	  0	  1	  1	0.51390	  0	0.70000	  0	 26	 87	 68	  0	
24-Apr-2013	sub2329	2329	  2	  0	 92	  2	  2	  6	  3	  3	  0	  1	  1	0.48793	  0	0.70000	  0	 26	 87	 68	  1	
24-Apr-2013	sub2329	2329	  2	  0	 93	  2	  2	  5	  5	  1	  0	  1	  0	0.65492	  1	0.70000	  0	 25	 67	 88	  0	
24-Apr-2013	sub2329	2329	  2	  0	 94	  2	  2	  2	  4	  1	  1	  1	  0	0.53848	  0	0.70000	  0	 22	 80	 81	  0	
24-Apr-2013	sub2329	2329	  2	  0	 95	  2	  2	  5	  5	  1	  0	  1	  0	0.63074	  1	0.70000	  0	 25	 67	 88	  0	
24-Apr-2013	sub2329	2329	  2	  0	 96	  2	  2	  3	  2	  5	  0	  2	  1	0.59899	  0	0.70000	  0	 23	 84	 69	  0	
24-Apr-2013	sub2329	2329	  2	  0	 97	  2	  2	  1	  1	  3	  1	  2	  0	0.61503	  0	0.70000	  0	 21	 80	 81	  0	
24-Apr-2013	sub2329	2329	  2	  0	 98	  2	  2	  6	  3	  3	  0	  1	  1	0.44669	  0	0.70000	  0	 26	 87	 68	  1	
24-Apr-2013	sub2329	2329	  2	  0	 99	  2	  2	  6	  3	  3	  0	  2	  0	0.38139	  1	0.70000	  0	 26	 67	 88	  1	
24-Apr-2013	sub2329	2329	  2	  0	100	  2	  2	  1	  1	  3	  1	  2	  0	0.74399	  0	0.70000	  1	 21	 80	 51	  0	
24-Apr-2013	sub2329	2329	  2	  0	101	  2	  2	  2	  4	  1	  1	  1	  0	0.54471	  0	0.70000	  0	 22	 80	 81	  0	
24-Apr-2013	sub2329	2329	  2	  0	102	  2	  2	  6	  3	  3	  1	  2	  1	0.45500	  1	0.70000	  0	 26	 65	 66	  1	
24-Apr-2013	sub2329	2329	  2	  0	103	  2	  2	  2	  4	  1	  1	  2	  1	0.67452	  1	0.70000	  0	 22	 60	 61	  0	
24-Apr-2013	sub2329	2329	  2	  0	104	  2	  2	  1	  1	  3	  1	  2	  0	0.55521	  0	0.70000	  0	 21	 80	 81	  0	
24-Apr-2013	sub2329	2329	  2	  0	105	  2	  2	  2	  4	  1	  1	  1	  0	0.47266	  0	0.70000	  0	 22	 80	 81	  1	
24-Apr-2013	sub2329	2329	  2	  0	106	  2	  2	  4	  6	  2	  1	  2	  1	0.48337	  1	0.70000	  0	 24	 62	 63	  1	
24-Apr-2013	sub2329	2329	  2	  0	107	  2	  2	  1	  1	  3	  1	  2	  0	0.51264	  0	0.70000	  0	 21	 80	 81	  0	
24-Apr-2013	sub2329	2329	  2	  0	108	  2	  2	  4	  6	  2	  1	  2	  1	0.50408	  1	0.70000	  0	 24	 62	 63	  0	
24-Apr-2013	sub2329	2329	  2	  0	109	  2	  2	  5	  5	  1	  0	  2	  1	0.45744	  0	0.70000	  0	 25	 87	 68	  1	
24-Apr-2013	sub2329	2329	  2	  0	110	  2	  2	  6	  3	  3	  1	  1	  0	0.52555	  0	0.70000	  0	 26	 85	 86	  0	
24-Apr-2013	sub2329	2329	  2	  0	111	  2	  2	  6	  3	  3	  1	  2	  1	0.38749	  1	0.70000	  0	 26	 65	 66	  1	
24-Apr-2013	sub2329	2329	  2	  0	112	  2	  2	  5	  5	  1	  0	  2	  1	0.36439	  0	0.70000	  0	 25	 87	 68	  1	
24-Apr-2013	sub2329	2329	  2	  0	113	  2	  2	  5	  5	  1	  0	  2	  1	0.63164	  0	0.70000	  0	 25	 87	 68	  0	
24-Apr-2013	sub2329	2329	  2	  0	114	  2	  2	  3	  2	  5	  0	  2	  1	0.80409	  0	0.70000	  1	 23	 84	 51	  0	
24-Apr-2013	sub2329	2329	  2	  0	115	  2	  2	  2	  4	  1	  1	  1	  0	0.30176	  0	0.80000	  0	 22	 80	 81	  1	
24-Apr-2013	sub2329	2329	  2	  0	116	  2	  2	  1	  1	  3	  1	  2	  0	0.45745	  0	0.80000	  0	 21	 80	 81	  1	
24-Apr-2013	sub2329	2329	  2	  0	117	  2	  2	  5	  5	  1	  0	  1	  0	0.15813	  1	0.80000	  0	 25	 67	 88	  1	
24-Apr-2013	sub2329	2329	  2	  0	118	  2	  2	  2	  4	  1	  1	  1	  0	0.47094	  0	0.70000	  0	 22	 80	 81	  1	
24-Apr-2013	sub2329	2329	  2	  0	119	  2	  2	  1	  1	  3	  1	  2	  0	0.38660	  0	0.70000	  0	 21	 80	 81	  1	
24-Apr-2013	sub2329	2329	  2	  0	120	  2	  2	  2	  4	  1	  1	  1	  0	30.61978	  0	0.70000	  1	 22	 80	 51	  0	
24-Apr-2013	sub2329	2329	  2	  0	121	  2	  2	  3	  2	  5	  1	  2	  0	1.12952	  0	0.80000	  1	 23	 82	 51	  0	
24-Apr-2013	sub2329	2329	  2	  0	122	  2	  2	  3	  2	  5	  1	  1	  1	0.54887	  1	0.90000	  0	 23	 62	 63	  0	
24-Apr-2013	sub2329	2329	  2	  0	123	  2	  2	  1	  1	  3	  1	  2	  0	0.20103	  0	0.90000	  0	 21	 80	 81	  1	
24-Apr-2013	sub2329	2329	  2	  0	124	  2	  2	  4	  6	  2	  1	  2	  1	0.50281	  1	0.90000	  0	 24	 62	 63	  0	
24-Apr-2013	sub2329	2329	  2	  0	125	  2	  2	  5	  5	  1	  0	  1	  0	0.49368	  1	0.90000	  0	 25	 67	 88	  1	
24-Apr-2013	sub2329	2329	  2	  0	126	  2	  2	  3	  2	  5	  1	  2	  0	0.46247	  0	0.90000	  0	 23	 82	 83	  1	
24-Apr-2013	sub2329	2329	  2	  0	127	  2	  2	  2	  4	  1	  1	  1	  0	0.34771	  0	0.90000	  0	 22	 80	 81	  1	
24-Apr-2013	sub2329	2329	  2	  0	128	  2	  2	  5	  5	  1	  0	  1	  0	0.42539	  1	0.90000	  0	 25	 67	 88	  1	
24-Apr-2013	sub2329	2329	  2	  0	129	  2	  2	  4	  6	  2	  0	  1	  1	0.39447	  0	0.90000	  0	 24	 84	 69	  1	
24-Apr-2013	sub2329	2329	  2	  0	130	  2	  2	  5	  5	  1	  0	  1	  0	0.42340	  1	0.80000	  0	 25	 67	 88	  1	
24-Apr-2013	sub2329	2329	  2	  0	131	  2	  2	  5	  5	  1	  0	  1	  0	0.46926	  1	0.80000	  0	 25	 67	 88	  1	
24-Apr-2013	sub2329	2329	  2	  0	132	  2	  2	  3	  2	  5	  1	  2	  0	0.52061	  0	0.80000	  0	 23	 82	 83	  0	
24-Apr-2013	sub2329	2329	  2	  0	133	  2	  2	  1	  1	  3	  1	  2	  0	0.51046	  0	0.80000	  0	 21	 80	 81	  0	
24-Apr-2013	sub2329	2329	  2	  0	134	  2	  2	  6	  3	  3	  1	  2	  1	0.15070	  1	0.80000	  0	 26	 65	 66	  1	
24-Apr-2013	sub2329	2329	  2	  0	135	  2	  2	  4	  6	  2	  1	  2	  1	0.51531	  1	0.80000	  0	 24	 62	 63	  0	
24-Apr-2013	sub2329	2329	  2	  0	136	  2	  2	  1	  1	  3	  1	  2	  0	0.50568	  0	0.80000	  0	 21	 80	 81	  0	
24-Apr-2013	sub2329	2329	  2	  0	137	  2	  2	  3	  2	  5	  1	  1	  1	0.37988	  1	0.80000	  0	 23	 62	 63	  1	
24-Apr-2013	sub2329	2329	  2	  0	138	  2	  2	  4	  6	  2	  1	  2	  1	0.09845	  1	0.80000	  0	 24	 62	 63	  1	
24-Apr-2013	sub2329	2329	  2	  0	139	  2	  2	  4	  6	  2	  1	  2	  1	0.31302	  1	0.80000	  0	 24	 62	 63	  1	
24-Apr-2013	sub2329	2329	  2	  0	140	  2	  2	  3	  2	  5	  1	  2	  0	0.28896	  0	0.80000	  0	 23	 82	 83	  1	
24-Apr-2013	sub2329	2329	  2	  0	141	  2	  2	  5	  5	  1	  0	  1	  0	0.02024	  1	0.80000	  0	 25	 67	 88	  1	
24-Apr-2013	sub2329	2329	  2	  0	142	  2	  2	  1	  1	  3	  1	  1	  1	1.55236	  1	0.80000	  1	 21	 60	 51	  0	
24-Apr-2013	sub2329	2329	  2	  0	143	  2	  2	  4	  6	  2	  1	  2	  1	0.42280	  1	0.90000	  0	 24	 62	 63	  1	
24-Apr-2013	sub2329	2329	  2	  0	144	  2	  2	  6	  3	  3	  0	  1	  1	0.41936	  0	0.80000	  0	 26	 87	 68	  1	
24-Apr-2013	sub2329	2329	  2	  0	145	  2	  2	  4	  6	  2	  1	  2	  1	0.43847	  1	0.80000	  0	 24	 62	 63	  1	
24-Apr-2013	sub2329	2329	  2	  0	146	  2	  2	  1	  1	  3	  1	  1	  1	0.44893	  1	0.80000	  0	 21	 60	 61	  1	
24-Apr-2013	sub2329	2329	  2	  0	147	  2	  2	  2	  4	  1	  1	  2	  1	0.52989	  1	0.80000	  0	 22	 60	 61	  0	
24-Apr-2013	sub2329	2329	  2	  0	148	  2	  2	  4	  6	  2	  0	  1	  1	0.32027	  0	0.80000	  0	 24	 84	 69	  1	
24-Apr-2013	sub2329	2329	  2	  0	149	  2	  2	  6	  3	  3	  1	  2	  1	0.43206	  1	0.80000	  0	 26	 65	 66	  1	
24-Apr-2013	sub2329	2329	  2	  0	150	  2	  2	  3	  2	  5	  1	  1	  1	0.38287	  1	0.80000	  0	 23	 62	 63	  1	
24-Apr-2013	sub2329	2329	  2	  0	  1	  3	  1	  1	  3	  6	  1	  2	  0	0.62647	  0	0.60000	  1	 11	 40	 51	  0	
24-Apr-2013	sub2329	2329	  2	  0	  2	  3	  1	  6	  6	  4	  0	  1	  1	0.60214	  0	0.90000	  0	 16	 47	 38	  0	
24-Apr-2013	sub2329	2329	  2	  0	  3	  3	  1	  6	  6	  4	  1	  1	  0	0.45346	  0	0.90000	  0	 16	 45	 46	  1	
24-Apr-2013	sub2329	2329	  2	  0	  4	  3	  1	  4	  5	  6	  1	  1	  0	0.52199	  0	0.90000	  0	 14	 42	 43	  0	
24-Apr-2013	sub2329	2329	  2	  0	  5	  3	  1	  6	  6	  4	  1	  1	  0	0.40815	  0	0.90000	  0	 16	 45	 46	  1	
24-Apr-2013	sub2329	2329	  2	  0	  6	  3	  1	  2	  1	  5	  1	  2	  1	0.50192	  1	0.90000	  0	 12	 30	 31	  0	
24-Apr-2013	sub2329	2329	  2	  0	  7	  3	  1	  2	  1	  5	  1	  2	  1	0.44578	  1	0.90000	  0	 12	 30	 31	  1	
24-Apr-2013	sub2329	2329	  2	  0	  8	  3	  1	  1	  3	  6	  1	  1	  1	0.58134	  1	0.90000	  0	 11	 30	 31	  0	
24-Apr-2013	sub2329	2329	  2	  0	  9	  3	  1	  4	  5	  6	  1	  2	  1	0.54302	  1	0.90000	  0	 14	 32	 33	  0	
24-Apr-2013	sub2329	2329	  2	  0	 10	  3	  1	  1	  3	  6	  1	  2	  0	0.50349	  0	0.90000	  0	 11	 40	 41	  0	
24-Apr-2013	sub2329	2329	  2	  0	 11	  3	  1	  5	  2	  4	  1	  2	  0	0.57117	  0	0.90000	  0	 15	 45	 46	  0	
24-Apr-2013	sub2329	2329	  2	  0	 12	  3	  1	  2	  1	  5	  1	  2	  1	0.43369	  1	0.90000	  0	 12	 30	 31	  1	
24-Apr-2013	sub2329	2329	  2	  0	 13	  3	  1	  1	  3	  6	  1	  1	  1	0.60196	  1	0.90000	  0	 11	 30	 31	  0	
24-Apr-2013	sub2329	2329	  2	  0	 14	  3	  1	  2	  1	  5	  1	  2	  1	0.47298	  1	0.90000	  0	 12	 30	 31	  1	
24-Apr-2013	sub2329	2329	  2	  0	 15	  3	  1	  2	  1	  5	  1	  2	  1	0.64854	  1	0.90000	  0	 12	 30	 31	  0	
24-Apr-2013	sub2329	2329	  2	  0	 16	  3	  1	  5	  2	  4	  0	  1	  0	0.53638	  1	0.80000	  0	 15	 37	 48	  0	
24-Apr-2013	sub2329	2329	  2	  0	 17	  3	  1	  3	  4	  6	  0	  2	  1	0.56663	  0	0.80000	  0	 13	 44	 39	  0	
24-Apr-2013	sub2329	2329	  2	  0	 18	  3	  1	  4	  5	  6	  1	  2	  1	0.49004	  1	0.70000	  0	 14	 32	 33	  1	
24-Apr-2013	sub2329	2329	  2	  0	 19	  3	  1	  3	  4	  6	  1	  2	  0	0.63325	  0	0.70000	  0	 13	 42	 43	  0	
24-Apr-2013	sub2329	2329	  2	  0	 20	  3	  1	  4	  5	  6	  1	  2	  1	0.63212	  1	0.70000	  0	 14	 32	 33	  0	
24-Apr-2013	sub2329	2329	  2	  0	 21	  3	  1	  3	  4	  6	  1	  2	  0	0.54632	  0	0.60000	  0	 13	 42	 43	  0	
24-Apr-2013	sub2329	2329	  2	  0	 22	  3	  1	  6	  6	  4	  0	  2	  0	0.45277	  1	0.60000	  0	 16	 37	 48	  1	
24-Apr-2013	sub2329	2329	  2	  0	 23	  3	  1	  1	  3	  6	  1	  1	  1	0.71542	  1	0.60000	  1	 11	 30	 51	  0	
24-Apr-2013	sub2329	2329	  2	  0	 24	  3	  1	  3	  4	  6	  1	  1	  1	0.51851	  1	0.90000	  0	 13	 32	 33	  0	
24-Apr-2013	sub2329	2329	  2	  0	 25	  3	  1	  4	  5	  6	  1	  2	  1	0.52984	  1	0.90000	  0	 14	 32	 33	  0	
24-Apr-2013	sub2329	2329	  2	  0	 26	  3	  1	  5	  2	  4	  0	  1	  0	0.60264	  1	0.90000	  0	 15	 37	 48	  0	
24-Apr-2013	sub2329	2329	  2	  0	 27	  3	  1	  1	  3	  6	  1	  2	  0	0.47259	  0	0.90000	  0	 11	 40	 41	  1	
24-Apr-2013	sub2329	2329	  2	  0	 28	  3	  1	  6	  6	  4	  0	  2	  0	0.51162	  1	0.90000	  0	 16	 37	 48	  0	
24-Apr-2013	sub2329	2329	  2	  0	 29	  3	  1	  1	  3	  6	  1	  1	  1	0.48845	  1	0.90000	  0	 11	 30	 31	  1	
24-Apr-2013	sub2329	2329	  2	  0	 30	  3	  1	  6	  6	  4	  1	  2	  1	0.56392	  1	0.80000	  0	 16	 35	 36	  0	
24-Apr-2013	sub2329	2329	  2	  0	 31	  3	  1	  1	  3	  6	  1	  1	  1	0.69997	  1	0.80000	  0	 11	 30	 31	  0	
24-Apr-2013	sub2329	2329	  2	  0	 32	  3	  1	  1	  3	  6	  1	  2	  0	0.52414	  0	0.80000	  0	 11	 40	 41	  0	
24-Apr-2013	sub2329	2329	  2	  0	 33	  3	  1	  6	  6	  4	  1	  1	  0	0.63463	  0	0.80000	  0	 16	 45	 46	  0	
24-Apr-2013	sub2329	2329	  2	  0	 34	  3	  1	  2	  1	  5	  1	  2	  1	0.48381	  1	0.80000	  0	 12	 30	 31	  1	
24-Apr-2013	sub2329	2329	  2	  0	 35	  3	  1	  3	  4	  6	  1	  2	  0	0.64318	  0	0.70000	  0	 13	 42	 43	  0	
24-Apr-2013	sub2329	2329	  2	  0	 36	  3	  1	  4	  5	  6	  1	  1	  0	0.48153	  0	0.70000	  0	 14	 42	 43	  1	
24-Apr-2013	sub2329	2329	  2	  0	 37	  3	  1	  6	  6	  4	  0	  2	  0	0.51906	  1	0.70000	  0	 16	 37	 48	  0	
24-Apr-2013	sub2329	2329	  2	  0	 38	  3	  1	  4	  5	  6	  1	  2	  1	0.48468	  1	0.70000	  0	 14	 32	 33	  1	
24-Apr-2013	sub2329	2329	  2	  0	 39	  3	  1	  5	  2	  4	  0	  2	  1	0.52584	  0	0.70000	  0	 15	 47	 38	  0	
24-Apr-2013	sub2329	2329	  2	  0	 40	  3	  1	  6	  6	  4	  1	  2	  1	0.44323	  1	0.70000	  0	 16	 35	 36	  1	
24-Apr-2013	sub2329	2329	  2	  0	 41	  3	  1	  6	  6	  4	  0	  2	  0	0.41153	  1	0.60000	  0	 16	 37	 48	  1	
24-Apr-2013	sub2329	2329	  2	  0	 42	  3	  1	  6	  6	  4	  1	  2	  1	0.48976	  1	0.60000	  0	 16	 35	 36	  1	
24-Apr-2013	sub2329	2329	  2	  0	 43	  3	  1	  4	  5	  6	  1	  2	  1	0.52394	  1	0.60000	  0	 14	 32	 33	  0	
24-Apr-2013	sub2329	2329	  2	  0	 44	  3	  1	  1	  3	  6	  1	  1	  1	0.69448	  1	0.60000	  1	 11	 30	 51	  0	
24-Apr-2013	sub2329	2329	  2	  0	 45	  3	  1	  5	  2	  4	  0	  1	  0	0.78569	  1	0.80000	  0	 15	 37	 48	  0	
24-Apr-2013	sub2329	2329	  2	  0	 46	  3	  1	  1	  3	  6	  1	  1	  1	0.61463	  1	0.80000	  0	 11	 30	 31	  0	
24-Apr-2013	sub2329	2329	  2	  0	 47	  3	  1	  6	  6	  4	  1	  1	  0	0.62866	  0	0.80000	  0	 16	 45	 46	  0	
24-Apr-2013	sub2329	2329	  2	  0	 48	  3	  1	  4	  5	  6	  0	  2	  0	0.46678	  1	0.80000	  0	 14	 34	 49	  1	
24-Apr-2013	sub2329	2329	  2	  0	 49	  3	  1	  3	  4	  6	  0	  2	  1	0.37901	  0	0.80000	  0	 13	 44	 39	  1	
24-Apr-2013	sub2329	2329	  2	  0	 50	  3	  1	  5	  2	  4	  1	  1	  1	0.66834	  1	0.80000	  0	 15	 35	 36	  0	
24-Apr-2013	sub2329	2329	  2	  0	 51	  3	  1	  2	  1	  5	  1	  2	  1	0.50533	  1	0.70000	  0	 12	 30	 31	  0	
24-Apr-2013	sub2329	2329	  2	  0	 52	  3	  1	  2	  1	  5	  1	  2	  1	0.38881	  1	0.70000	  0	 12	 30	 31	  1	
24-Apr-2013	sub2329	2329	  2	  0	 53	  3	  1	  4	  5	  6	  1	  2	  1	0.64157	  1	0.70000	  0	 14	 32	 33	  0	
24-Apr-2013	sub2329	2329	  2	  0	 54	  3	  1	  3	  4	  6	  1	  2	  0	0.62335	  0	0.70000	  0	 13	 42	 43	  0	
24-Apr-2013	sub2329	2329	  2	  0	 55	  3	  1	  6	  6	  4	  0	  1	  1	0.39765	  0	0.70000	  0	 16	 47	 38	  1	
24-Apr-2013	sub2329	2329	  2	  0	 56	  3	  1	  5	  2	  4	  1	  2	  0	0.35717	  0	0.70000	  0	 15	 45	 46	  1	
24-Apr-2013	sub2329	2329	  2	  0	 57	  3	  1	  3	  4	  6	  0	  1	  0	0.42968	  1	0.70000	  0	 13	 34	 49	  1	
24-Apr-2013	sub2329	2329	  2	  0	 58	  3	  1	  2	  1	  5	  1	  2	  1	0.45555	  1	0.70000	  0	 12	 30	 31	  1	
24-Apr-2013	sub2329	2329	  2	  0	 59	  3	  1	  3	  4	  6	  1	  2	  0	0.42047	  0	0.70000	  0	 13	 42	 43	  1	
24-Apr-2013	sub2329	2329	  2	  0	 60	  3	  1	  2	  1	  5	  1	  1	  0	0.35595	  0	0.70000	  0	 12	 40	 41	  1	
24-Apr-2013	sub2329	2329	  2	  0	 61	  3	  1	  2	  1	  5	  1	  2	  1	0.38885	  1	0.60000	  0	 12	 30	 31	  1	
24-Apr-2013	sub2329	2329	  2	  0	 62	  3	  1	  2	  1	  5	  1	  2	  1	0.32914	  1	0.60000	  0	 12	 30	 31	  1	
24-Apr-2013	sub2329	2329	  2	  0	 63	  3	  1	  5	  2	  4	  1	  2	  0	0.53567	  0	0.60000	  0	 15	 45	 46	  0	
24-Apr-2013	sub2329	2329	  2	  0	 64	  3	  1	  1	  3	  6	  1	  1	  1	0.65167	  1	0.60000	  1	 11	 30	 51	  0	
24-Apr-2013	sub2329	2329	  2	  0	 65	  3	  1	  3	  4	  6	  1	  2	  0	0.53648	  0	0.80000	  0	 13	 42	 43	  0	
24-Apr-2013	sub2329	2329	  2	  0	 66	  3	  1	  5	  2	  4	  0	  1	  0	0.28629	  1	0.80000	  0	 15	 37	 48	  1	
24-Apr-2013	sub2329	2329	  2	  0	 67	  3	  1	  3	  4	  6	  1	  2	  0	0.35450	  0	0.80000	  0	 13	 42	 43	  1	
24-Apr-2013	sub2329	2329	  2	  0	 68	  3	  1	  3	  4	  6	  1	  1	  1	0.38733	  1	0.70000	  0	 13	 32	 33	  1	
24-Apr-2013	sub2329	2329	  2	  0	 69	  3	  1	  4	  5	  6	  1	  2	  1	0.41728	  1	0.70000	  0	 14	 32	 33	  1	
24-Apr-2013	sub2329	2329	  2	  0	 70	  3	  1	  2	  1	  5	  1	  2	  1	0.42560	  1	0.70000	  0	 12	 30	 31	  1	
24-Apr-2013	sub2329	2329	  2	  0	 71	  3	  1	  5	  2	  4	  1	  2	  0	0.43260	  0	0.70000	  0	 15	 45	 46	  1	
24-Apr-2013	sub2329	2329	  2	  0	 72	  3	  1	  5	  2	  4	  1	  2	  0	0.49328	  0	0.70000	  0	 15	 45	 46	  1	
24-Apr-2013	sub2329	2329	  2	  0	 73	  3	  1	  3	  4	  6	  1	  1	  1	0.69442	  1	0.70000	  0	 13	 32	 33	  0	
24-Apr-2013	sub2329	2329	  2	  0	 74	  3	  1	  5	  2	  4	  0	  2	  1	0.47179	  0	0.70000	  0	 15	 47	 38	  1	
24-Apr-2013	sub2329	2329	  2	  0	 75	  3	  1	  4	  5	  6	  0	  2	  0	0.59685	  1	0.70000	  0	 14	 34	 49	  0	
24-Apr-2013	sub2329	2329	  2	  0	 76	  3	  2	  2	  1	  5	  1	  2	  1	0.46297	  1	0.70000	  0	 22	 60	 61	  1	
24-Apr-2013	sub2329	2329	  2	  0	 77	  3	  2	  5	  2	  4	  0	  2	  1	0.66301	  0	0.70000	  0	 25	 87	 68	  0	
24-Apr-2013	sub2329	2329	  2	  0	 78	  3	  2	  6	  6	  4	  1	  1	  0	0.59197	  0	0.70000	  0	 26	 85	 86	  0	
24-Apr-2013	sub2329	2329	  2	  0	 79	  3	  2	  1	  3	  6	  1	  1	  1	0.47100	  1	0.70000	  0	 21	 60	 61	  1	
24-Apr-2013	sub2329	2329	  2	  0	 80	  3	  2	  5	  2	  4	  0	  2	  1	0.43450	  0	0.70000	  0	 25	 87	 68	  1	
24-Apr-2013	sub2329	2329	  2	  0	 81	  3	  2	  2	  1	  5	  1	  2	  1	0.41783	  1	0.60000	  0	 22	 60	 61	  1	
24-Apr-2013	sub2329	2329	  2	  0	 82	  3	  2	  6	  6	  4	  0	  2	  0	0.30846	  1	0.60000	  0	 26	 67	 88	  1	
24-Apr-2013	sub2329	2329	  2	  0	 83	  3	  2	  4	  5	  6	  0	  1	  1	0.46286	  0	0.60000	  0	 24	 84	 69	  1	
24-Apr-2013	sub2329	2329	  2	  0	 84	  3	  2	  2	  1	  5	  1	  2	  1	0.45343	  1	0.60000	  0	 22	 60	 61	  1	
24-Apr-2013	sub2329	2329	  2	  0	 85	  3	  2	  1	  3	  6	  1	  2	  0	0.39460	  0	0.60000	  0	 21	 80	 81	  1	
24-Apr-2013	sub2329	2329	  2	  0	 86	  3	  2	  5	  2	  4	  0	  2	  1	0.50393	  0	0.60000	  0	 25	 87	 68	  0	
24-Apr-2013	sub2329	2329	  2	  0	 87	  3	  2	  2	  1	  5	  1	  1	  0	0.46373	  0	0.60000	  0	 22	 80	 81	  1	
24-Apr-2013	sub2329	2329	  2	  0	 88	  3	  2	  3	  4	  6	  0	  2	  1	0.46479	  0	0.60000	  0	 23	 84	 69	  1	
24-Apr-2013	sub2329	2329	  2	  0	 89	  3	  2	  1	  3	  6	  1	  2	  0	0.51965	  0	0.60000	  0	 21	 80	 81	  0	
24-Apr-2013	sub2329	2329	  2	  0	 90	  3	  2	  2	  1	  5	  1	  2	  1	0.65153	  1	0.60000	  1	 22	 60	 51	  0	
24-Apr-2013	sub2329	2329	  2	  0	 91	  3	  2	  5	  2	  4	  0	  1	  0	0.73686	  1	0.70000	  1	 25	 67	 51	  0	
24-Apr-2013	sub2329	2329	  2	  0	 92	  3	  2	  4	  5	  6	  1	  2	  1	0.57638	  1	0.80000	  0	 24	 62	 63	  0	
24-Apr-2013	sub2329	2329	  2	  0	 93	  3	  2	  4	  5	  6	  0	  2	  0	0.45588	  1	0.80000	  0	 24	 64	 89	  1	
24-Apr-2013	sub2329	2329	  2	  0	 94	  3	  2	  5	  2	  4	  0	  2	  1	0.79658	  0	0.80000	  0	 25	 87	 68	  0	
24-Apr-2013	sub2329	2329	  2	  0	 95	  3	  2	  3	  4	  6	  0	  2	  1	0.49750	  0	0.80000	  0	 23	 84	 69	  1	
24-Apr-2013	sub2329	2329	  2	  0	 96	  3	  2	  4	  5	  6	  1	  2	  1	0.47318	  1	0.80000	  0	 24	 62	 63	  1	
24-Apr-2013	sub2329	2329	  2	  0	 97	  3	  2	  4	  5	  6	  1	  2	  1	0.30462	  1	0.80000	  0	 24	 62	 63	  1	
24-Apr-2013	sub2329	2329	  2	  0	 98	  3	  2	  2	  1	  5	  1	  2	  1	0.32442	  1	0.80000	  0	 22	 60	 61	  1	
24-Apr-2013	sub2329	2329	  2	  0	 99	  3	  2	  4	  5	  6	  1	  2	  1	0.57531	  1	0.80000	  0	 24	 62	 63	  0	
24-Apr-2013	sub2329	2329	  2	  0	100	  3	  2	  3	  4	  6	  1	  2	  0	0.39967	  0	0.80000	  0	 23	 82	 83	  1	
24-Apr-2013	sub2329	2329	  2	  0	101	  3	  2	  6	  6	  4	  0	  2	  0	0.39821	  1	0.70000	  0	 26	 67	 88	  1	
24-Apr-2013	sub2329	2329	  2	  0	102	  3	  2	  1	  3	  6	  1	  1	  1	0.35868	  1	0.70000	  0	 21	 60	 61	  1	
24-Apr-2013	sub2329	2329	  2	  0	103	  3	  2	  5	  2	  4	  0	  2	  1	0.57506	  0	0.70000	  0	 25	 87	 68	  0	
24-Apr-2013	sub2329	2329	  2	  0	104	  3	  2	  3	  4	  6	  1	  1	  1	0.46666	  1	0.70000	  0	 23	 62	 63	  1	
24-Apr-2013	sub2329	2329	  2	  0	105	  3	  2	  1	  3	  6	  1	  2	  0	0.42736	  0	0.70000	  0	 21	 80	 81	  1	
24-Apr-2013	sub2329	2329	  2	  0	106	  3	  2	  2	  1	  5	  1	  1	  0	0.40257	  0	0.70000	  0	 22	 80	 81	  1	
24-Apr-2013	sub2329	2329	  2	  0	107	  3	  2	  4	  5	  6	  1	  2	  1	0.59987	  1	0.70000	  0	 24	 62	 63	  0	
24-Apr-2013	sub2329	2329	  2	  0	108	  3	  2	  1	  3	  6	  1	  2	  0	0.46245	  0	0.70000	  0	 21	 80	 81	  1	
24-Apr-2013	sub2329	2329	  2	  0	109	  3	  2	  5	  2	  4	  0	  2	  1	0.47182	  0	0.70000	  0	 25	 87	 68	  1	
24-Apr-2013	sub2329	2329	  2	  0	110	  3	  2	  2	  1	  5	  1	  2	  1	0.46643	  1	0.70000	  0	 22	 60	 61	  1	
24-Apr-2013	sub2329	2329	  2	  0	111	  3	  2	  2	  1	  5	  1	  2	  1	0.45752	  1	0.70000	  0	 22	 60	 61	  1	
24-Apr-2013	sub2329	2329	  2	  0	112	  3	  2	  5	  2	  4	  0	  1	  0	0.56162	  1	0.70000	  0	 25	 67	 88	  0	
24-Apr-2013	sub2329	2329	  2	  0	113	  3	  2	  6	  6	  4	  0	  2	  0	0.41657	  1	0.70000	  0	 26	 67	 88	  1	
24-Apr-2013	sub2329	2329	  2	  0	114	  3	  2	  3	  4	  6	  1	  1	  1	0.51106	  1	0.70000	  0	 23	 62	 63	  0	
24-Apr-2013	sub2329	2329	  2	  0	115	  3	  2	  3	  4	  6	  1	  1	  1	0.52800	  1	0.70000	  0	 23	 62	 63	  0	
24-Apr-2013	sub2329	2329	  2	  0	116	  3	  2	  3	  4	  6	  1	  1	  1	0.38068	  1	0.70000	  0	 23	 62	 63	  1	
24-Apr-2013	sub2329	2329	  2	  0	117	  3	  2	  4	  5	  6	  1	  2	  1	0.60649	  1	0.70000	  0	 24	 62	 63	  0	
24-Apr-2013	sub2329	2329	  2	  0	118	  3	  2	  1	  3	  6	  1	  1	  1	0.49949	  1	0.70000	  0	 21	 60	 61	  1	
24-Apr-2013	sub2329	2329	  2	  0	119	  3	  2	  3	  4	  6	  1	  1	  1	0.42034	  1	0.70000	  0	 23	 62	 63	  1	
24-Apr-2013	sub2329	2329	  2	  0	120	  3	  2	  4	  5	  6	  1	  1	  0	0.41534	  0	0.70000	  0	 24	 82	 83	  1	
24-Apr-2013	sub2329	2329	  2	  0	121	  3	  2	  2	  1	  5	  1	  2	  1	0.51593	  1	0.60000	  0	 22	 60	 61	  0	
24-Apr-2013	sub2329	2329	  2	  0	122	  3	  2	  5	  2	  4	  0	  2	  1	0.66030	  0	0.60000	  1	 25	 87	 51	  0	
24-Apr-2013	sub2329	2329	  2	  0	123	  3	  2	  6	  6	  4	  0	  2	  0	0.37476	  1	0.70000	  0	 26	 67	 88	  1	
24-Apr-2013	sub2329	2329	  2	  0	124	  3	  2	  4	  5	  6	  1	  2	  1	0.59081	  1	0.70000	  0	 24	 62	 63	  0	
24-Apr-2013	sub2329	2329	  2	  0	125	  3	  2	  4	  5	  6	  0	  2	  0	0.43818	  1	0.70000	  0	 24	 64	 89	  1	
24-Apr-2013	sub2329	2329	  2	  0	126	  3	  2	  6	  6	  4	  0	  1	  1	0.50605	  0	0.70000	  0	 26	 87	 68	  0	
24-Apr-2013	sub2329	2329	  2	  0	127	  3	  2	  1	  3	  6	  1	  2	  0	0.46422	  0	0.70000	  0	 21	 80	 81	  1	
24-Apr-2013	sub2329	2329	  2	  0	128	  3	  2	  1	  3	  6	  1	  1	  1	0.57549	  1	0.70000	  0	 21	 60	 61	  0	
24-Apr-2013	sub2329	2329	  2	  0	129	  3	  2	  3	  4	  6	  1	  2	  0	0.44392	  0	0.70000	  0	 23	 82	 83	  1	
24-Apr-2013	sub2329	2329	  2	  0	130	  3	  2	  6	  6	  4	  0	  1	  1	0.55894	  0	0.70000	  0	 26	 87	 68	  0	
24-Apr-2013	sub2329	2329	  2	  0	131	  3	  2	  6	  6	  4	  1	  1	  0	0.47807	  0	0.70000	  0	 26	 85	 86	  1	
24-Apr-2013	sub2329	2329	  2	  0	132	  3	  2	  6	  6	  4	  1	  1	  0	0.45191	  0	0.70000	  0	 26	 85	 86	  1	
24-Apr-2013	sub2329	2329	  2	  0	133	  3	  2	  4	  5	  6	  1	  1	  0	0.39526	  0	0.70000	  0	 24	 82	 83	  1	
24-Apr-2013	sub2329	2329	  2	  0	134	  3	  2	  1	  3	  6	  1	  1	  1	0.72678	  1	0.70000	  1	 21	 60	 51	  0	
24-Apr-2013	sub2329	2329	  2	  0	135	  3	  2	  3	  4	  6	  1	  2	  0	0.56537	  0	0.70000	  0	 23	 82	 83	  0	
24-Apr-2013	sub2329	2329	  2	  0	136	  3	  2	  2	  1	  5	  1	  1	  0	0.46257	  0	0.70000	  0	 22	 80	 81	  1	
24-Apr-2013	sub2329	2329	  2	  0	137	  3	  2	  3	  4	  6	  1	  1	  1	0.65498	  1	0.70000	  0	 23	 62	 63	  0	
24-Apr-2013	sub2329	2329	  2	  0	138	  3	  2	  2	  1	  5	  1	  2	  1	0.42114	  1	0.70000	  0	 22	 60	 61	  1	
24-Apr-2013	sub2329	2329	  2	  0	139	  3	  2	  1	  3	  6	  1	  1	  1	0.50575	  1	0.70000	  0	 21	 60	 61	  0	
24-Apr-2013	sub2329	2329	  2	  0	140	  3	  2	  1	  3	  6	  1	  1	  1	0.45297	  1	0.70000	  0	 21	 60	 61	  1	
24-Apr-2013	sub2329	2329	  2	  0	141	  3	  2	  1	  3	  6	  1	  1	  1	0.36522	  1	0.70000	  0	 21	 60	 61	  1	
24-Apr-2013	sub2329	2329	  2	  0	142	  3	  2	  6	  6	  4	  1	  1	  0	0.59478	  0	0.70000	  0	 26	 85	 86	  0	
24-Apr-2013	sub2329	2329	  2	  0	143	  3	  2	  3	  4	  6	  1	  1	  1	0.44257	  1	0.70000	  0	 23	 62	 63	  1	
24-Apr-2013	sub2329	2329	  2	  0	144	  3	  2	  6	  6	  4	  1	  1	  0	0.62233	  0	0.70000	  0	 26	 85	 86	  0	
24-Apr-2013	sub2329	2329	  2	  0	145	  3	  2	  6	  6	  4	  1	  1	  0	0.42895	  0	0.70000	  0	 26	 85	 86	  1	
24-Apr-2013	sub2329	2329	  2	  0	146	  3	  2	  4	  5	  6	  1	  2	  1	0.52487	  1	0.70000	  0	 24	 62	 63	  0	
24-Apr-2013	sub2329	2329	  2	  0	147	  3	  2	  5	  2	  4	  0	  2	  1	0.59710	  0	0.70000	  0	 25	 87	 68	  0	
24-Apr-2013	sub2329	2329	  2	  0	148	  3	  2	  5	  2	  4	  0	  2	  1	0.47019	  0	0.70000	  0	 25	 87	 68	  1	
24-Apr-2013	sub2329	2329	  2	  0	149	  3	  2	  5	  2	  4	  0	  2	  1	0.35073	  0	0.70000	  0	 25	 87	 68	  1	
24-Apr-2013	sub2329	2329	  2	  0	150	  3	  2	  5	  2	  4	  0	  2	  1	0.47892	  0	0.70000	  0	 25	 87	 68	  1	
24-Apr-2013	sub2329	2329	  2	  0	  1	  4	  1	  2	  5	  3	  1	  2	  1	0.81068	  1	0.60000	  1	 12	 30	 51	  0	
24-Apr-2013	sub2329	2329	  2	  0	  2	  4	  1	  5	  6	  5	  0	  2	  1	0.49508	  0	0.90000	  0	 15	 47	 38	  1	
24-Apr-2013	sub2329	2329	  2	  0	  3	  4	  1	  5	  6	  5	  0	  2	  1	0.45894	  0	0.90000	  0	 15	 47	 38	  1	
24-Apr-2013	sub2329	2329	  2	  0	  4	  4	  1	  2	  5	  3	  1	  2	  1	0.45371	  1	0.90000	  0	 12	 30	 31	  1	
24-Apr-2013	sub2329	2329	  2	  0	  5	  4	  1	  6	  1	  6	  0	  2	  0	0.66456	  1	0.90000	  0	 16	 37	 48	  0	
24-Apr-2013	sub2329	2329	  2	  0	  6	  4	  1	  1	  3	  2	  1	  1	  1	0.60557	  1	0.90000	  0	 11	 30	 31	  0	
24-Apr-2013	sub2329	2329	  2	  0	  7	  4	  1	  3	  4	  3	  1	  1	  1	0.75727	  1	0.90000	  0	 13	 32	 33	  0	
24-Apr-2013	sub2329	2329	  2	  0	  8	  4	  1	  6	  1	  6	  1	  1	  0	0.44970	  0	0.90000	  0	 16	 45	 46	  1	
24-Apr-2013	sub2329	2329	  2	  0	  9	  4	  1	  3	  4	  3	  1	  2	  0	0.70720	  0	0.90000	  0	 13	 42	 43	  0	
24-Apr-2013	sub2329	2329	  2	  0	 10	  4	  1	  1	  3	  2	  1	  2	  0	0.47626	  0	0.90000	  0	 11	 40	 41	  1	
24-Apr-2013	sub2329	2329	  2	  0	 11	  4	  1	  3	  4	  3	  1	  2	  0	0.67483	  0	0.90000	  0	 13	 42	 43	  0	
24-Apr-2013	sub2329	2329	  2	  0	 12	  4	  1	  6	  1	  6	  0	  1	  1	0.73665	  0	0.90000	  0	 16	 47	 38	  0	
24-Apr-2013	sub2329	2329	  2	  0	 13	  4	  1	  1	  3	  2	  1	  1	  1	0.40585	  1	0.90000	  0	 11	 30	 31	  1	
24-Apr-2013	sub2329	2329	  2	  0	 14	  4	  1	  3	  4	  3	  1	  1	  1	0.51405	  1	0.90000	  0	 13	 32	 33	  0	
24-Apr-2013	sub2329	2329	  2	  0	 15	  4	  1	  5	  6	  5	  0	  2	  1	0.47276	  0	0.90000	  0	 15	 47	 38	  1	
24-Apr-2013	sub2329	2329	  2	  0	 16	  4	  1	  6	  1	  6	  0	  2	  0	0.45286	  1	0.80000	  0	 16	 37	 48	  1	
24-Apr-2013	sub2329	2329	  2	  0	 17	  4	  1	  4	  2	  2	  1	  2	  1	0.69876	  1	0.80000	  0	 14	 32	 33	  0	
24-Apr-2013	sub2329	2329	  2	  0	 18	  4	  1	  5	  6	  5	  1	  2	  0	0.66497	  0	0.70000	  0	 15	 45	 46	  0	
24-Apr-2013	sub2329	2329	  2	  0	 19	  4	  1	  5	  6	  5	  1	  2	  0	0.45526	  0	0.70000	  0	 15	 45	 46	  1	
24-Apr-2013	sub2329	2329	  2	  0	 20	  4	  1	  3	  4	  3	  1	  2	  0	0.62780	  0	0.70000	  0	 13	 42	 43	  0	
24-Apr-2013	sub2329	2329	  2	  0	 21	  4	  1	  2	  5	  3	  1	  2	  1	0.67976	  1	0.60000	  1	 12	 30	 51	  0	
24-Apr-2013	sub2329	2329	  2	  0	 22	  4	  1	  4	  2	  2	  1	  2	  1	0.56323	  1	0.90000	  0	 14	 32	 33	  0	
24-Apr-2013	sub2329	2329	  2	  0	 23	  4	  1	  6	  1	  6	  0	  1	  1	0.66531	  0	0.90000	  0	 16	 47	 38	  0	
24-Apr-2013	sub2329	2329	  2	  0	 24	  4	  1	  5	  6	  5	  1	  1	  1	0.47466	  1	0.90000	  0	 15	 35	 36	  1	
24-Apr-2013	sub2329	2329	  2	  0	 25	  4	  1	  2	  5	  3	  1	  1	  0	0.42552	  0	0.90000	  0	 12	 40	 41	  1	
24-Apr-2013	sub2329	2329	  2	  0	 26	  4	  1	  5	  6	  5	  0	  1	  0	0.42416	  1	0.90000	  0	 15	 37	 48	  1	
24-Apr-2013	sub2329	2329	  2	  0	 27	  4	  1	  2	  5	  3	  1	  2	  1	0.47124	  1	0.90000	  0	 12	 30	 31	  1	
24-Apr-2013	sub2329	2329	  2	  0	 28	  4	  1	  3	  4	  3	  1	  2	  0	0.48298	  0	0.90000	  0	 13	 42	 43	  1	
24-Apr-2013	sub2329	2329	  2	  0	 29	  4	  1	  1	  3	  2	  1	  1	  1	0.47841	  1	0.90000	  0	 11	 30	 31	  1	
24-Apr-2013	sub2329	2329	  2	  0	 30	  4	  1	  3	  4	  3	  0	  1	  0	0.42726	  1	0.80000	  0	 13	 34	 49	  1	
24-Apr-2013	sub2329	2329	  2	  0	 31	  4	  1	  5	  6	  5	  1	  2	  0	0.50842	  0	0.80000	  0	 15	 45	 46	  0	
24-Apr-2013	sub2329	2329	  2	  0	 32	  4	  1	  2	  5	  3	  1	  1	  0	0.40100	  0	0.80000	  0	 12	 40	 41	  1	
24-Apr-2013	sub2329	2329	  2	  0	 33	  4	  1	  2	  5	  3	  1	  2	  1	0.46414	  1	0.80000	  0	 12	 30	 31	  1	
24-Apr-2013	sub2329	2329	  2	  0	 34	  4	  1	  2	  5	  3	  1	  2	  1	0.48393	  1	0.80000	  0	 12	 30	 31	  1	
24-Apr-2013	sub2329	2329	  2	  0	 35	  4	  1	  6	  1	  6	  1	  1	  0	0.48317	  0	0.70000	  0	 16	 45	 46	  1	
24-Apr-2013	sub2329	2329	  2	  0	 36	  4	  1	  4	  2	  2	  0	  2	  0	0.43183	  1	0.70000	  0	 14	 34	 49	  1	
24-Apr-2013	sub2329	2329	  2	  0	 37	  4	  1	  1	  3	  2	  1	  1	  1	0.50632	  1	0.70000	  0	 11	 30	 31	  0	
24-Apr-2013	sub2329	2329	  2	  0	 38	  4	  1	  2	  5	  3	  1	  2	  1	0.46785	  1	0.70000	  0	 12	 30	 31	  1	
24-Apr-2013	sub2329	2329	  2	  0	 39	  4	  1	  5	  6	  5	  1	  1	  1	0.39820	  1	0.70000	  0	 15	 35	 36	  1	
24-Apr-2013	sub2329	2329	  2	  0	 40	  4	  1	  6	  1	  6	  0	  2	  0	0.49284	  1	0.70000	  0	 16	 37	 48	  1	
24-Apr-2013	sub2329	2329	  2	  0	 41	  4	  1	  6	  1	  6	  0	  1	  1	0.43035	  0	0.60000	  0	 16	 47	 38	  1	
24-Apr-2013	sub2329	2329	  2	  0	 42	  4	  1	  1	  3	  2	  1	  1	  1	0.47316	  1	0.60000	  0	 11	 30	 31	  1	
24-Apr-2013	sub2329	2329	  2	  0	 43	  4	  1	  4	  2	  2	  1	  1	  0	0.50852	  0	0.60000	  0	 14	 42	 43	  0	
24-Apr-2013	sub2329	2329	  2	  0	 44	  4	  1	  1	  3	  2	  1	  2	  0	0.34926	  0	0.60000	  0	 11	 40	 41	  1	
24-Apr-2013	sub2329	2329	  2	  0	 45	  4	  1	  1	  3	  2	  1	  1	  1	0.32456	  1	0.60000	  0	 11	 30	 31	  1	
24-Apr-2013	sub2329	2329	  2	  0	 46	  4	  1	  3	  4	  3	  1	  1	  1	0.49175	  1	0.60000	  0	 13	 32	 33	  1	
24-Apr-2013	sub2329	2329	  2	  0	 47	  4	  1	  5	  6	  5	  1	  1	  1	0.36562	  1	0.60000	  0	 15	 35	 36	  1	
24-Apr-2013	sub2329	2329	  2	  0	 48	  4	  1	  1	  3	  2	  1	  1	  1	0.40599	  1	0.60000	  0	 11	 30	 31	  1	
24-Apr-2013	sub2329	2329	  2	  0	 49	  4	  1	  2	  5	  3	  1	  2	  1	0.65349	  1	0.60000	  1	 12	 30	 51	  0	
24-Apr-2013	sub2329	2329	  2	  0	 50	  4	  1	  1	  3	  2	  1	  1	  1	0.58320	  1	0.80000	  0	 11	 30	 31	  0	
24-Apr-2013	sub2329	2329	  2	  0	 51	  4	  1	  2	  5	  3	  1	  2	  1	0.56085	  1	0.70000	  0	 12	 30	 31	  0	
24-Apr-2013	sub2329	2329	  2	  0	 52	  4	  1	  4	  2	  2	  1	  2	  1	0.57768	  1	0.70000	  0	 14	 32	 33	  0	
24-Apr-2013	sub2329	2329	  2	  0	 53	  4	  1	  4	  2	  2	  1	  2	  1	0.63414	  1	0.70000	  0	 14	 32	 33	  0	
24-Apr-2013	sub2329	2329	  2	  0	 54	  4	  1	  5	  6	  5	  1	  2	  0	0.62060	  0	0.70000	  0	 15	 45	 46	  0	
24-Apr-2013	sub2329	2329	  2	  0	 55	  4	  1	  3	  4	  3	  0	  1	  0	0.82190	  1	0.70000	  1	 13	 34	 51	  0	
24-Apr-2013	sub2329	2329	  2	  0	 56	  4	  1	  3	  4	  3	  1	  1	  1	0.60245	  1	0.90000	  0	 13	 32	 33	  0	
24-Apr-2013	sub2329	2329	  2	  0	 57	  4	  1	  1	  3	  2	  1	  1	  1	0.57337	  1	0.90000	  0	 11	 30	 31	  0	
24-Apr-2013	sub2329	2329	  2	  0	 58	  4	  1	  4	  2	  2	  1	  1	  0	0.51616	  0	0.90000	  0	 14	 42	 43	  0	
24-Apr-2013	sub2329	2329	  2	  0	 59	  4	  1	  4	  2	  2	  0	  2	  0	0.43517	  1	0.80000	  0	 14	 34	 49	  1	
24-Apr-2013	sub2329	2329	  2	  0	 60	  4	  1	  6	  1	  6	  0	  1	  1	0.30465	  0	0.80000	  0	 16	 47	 38	  1	
24-Apr-2013	sub2329	2329	  2	  0	 61	  4	  1	  6	  1	  6	  1	  1	  0	0.41586	  0	0.80000	  0	 16	 45	 46	  1	
24-Apr-2013	sub2329	2329	  2	  0	 62	  4	  1	  3	  4	  3	  0	  1	  0	0.41897	  1	0.80000	  0	 13	 34	 49	  1	
24-Apr-2013	sub2329	2329	  2	  0	 63	  4	  1	  2	  5	  3	  1	  2	  1	0.61221	  1	0.80000	  0	 12	 30	 31	  0	
24-Apr-2013	sub2329	2329	  2	  0	 64	  4	  1	  2	  5	  3	  1	  2	  1	0.51310	  1	0.80000	  0	 12	 30	 31	  0	
24-Apr-2013	sub2329	2329	  2	  0	 65	  4	  1	  1	  3	  2	  1	  1	  1	0.48354	  1	0.80000	  0	 11	 30	 31	  1	
24-Apr-2013	sub2329	2329	  2	  0	 66	  4	  1	  6	  1	  6	  0	  1	  1	0.56194	  0	0.80000	  0	 16	 47	 38	  0	
24-Apr-2013	sub2329	2329	  2	  0	 67	  4	  1	  4	  2	  2	  1	  1	  0	0.41414	  0	0.80000	  0	 14	 42	 43	  1	
24-Apr-2013	sub2329	2329	  2	  0	 68	  4	  1	  6	  1	  6	  1	  2	  1	0.35330	  1	0.70000	  0	 16	 35	 36	  1	
24-Apr-2013	sub2329	2329	  2	  0	 69	  4	  1	  4	  2	  2	  1	  2	  1	0.67093	  1	0.70000	  0	 14	 32	 33	  0	
24-Apr-2013	sub2329	2329	  2	  0	 70	  4	  1	  4	  2	  2	  1	  2	  1	0.49017	  1	0.70000	  0	 14	 32	 33	  1	
24-Apr-2013	sub2329	2329	  2	  0	 71	  4	  1	  3	  4	  3	  1	  2	  0	0.43473	  0	0.70000	  0	 13	 42	 43	  1	
24-Apr-2013	sub2329	2329	  2	  0	 72	  4	  1	  6	  1	  6	  1	  1	  0	0.48791	  0	0.70000	  0	 16	 45	 46	  1	
24-Apr-2013	sub2329	2329	  2	  0	 73	  4	  1	  5	  6	  5	  0	  2	  1	0.57213	  0	0.70000	  0	 15	 47	 38	  0	
24-Apr-2013	sub2329	2329	  2	  0	 74	  4	  1	  4	  2	  2	  1	  2	  1	0.53007	  1	0.70000	  0	 14	 32	 33	  0	
24-Apr-2013	sub2329	2329	  2	  0	 75	  4	  1	  3	  4	  3	  1	  2	  0	0.50806	  0	0.70000	  0	 13	 42	 43	  0	
24-Apr-2013	sub2329	2329	  2	  0	 76	  4	  2	  3	  4	  3	  1	  1	  1	0.51630	  1	0.70000	  0	 23	 62	 63	  0	
24-Apr-2013	sub2329	2329	  2	  0	 77	  4	  2	  6	  1	  6	  1	  1	  0	0.62169	  0	0.70000	  0	 26	 85	 86	  0	
24-Apr-2013	sub2329	2329	  2	  0	 78	  4	  2	  3	  4	  3	  1	  1	  1	0.43258	  1	0.70000	  0	 23	 62	 63	  1	
24-Apr-2013	sub2329	2329	  2	  0	 79	  4	  2	  2	  5	  3	  1	  1	  0	0.53968	  0	0.70000	  0	 22	 80	 81	  0	
24-Apr-2013	sub2329	2329	  2	  0	 80	  4	  2	  5	  6	  5	  0	  2	  1	0.58148	  0	0.70000	  0	 25	 87	 68	  0	
24-Apr-2013	sub2329	2329	  2	  0	 81	  4	  2	  1	  3	  2	  1	  1	  1	0.46106	  1	0.60000	  0	 21	 60	 61	  1	
24-Apr-2013	sub2329	2329	  2	  0	 82	  4	  2	  6	  1	  6	  1	  1	  0	0.57153	  0	0.60000	  0	 26	 85	 86	  0	
24-Apr-2013	sub2329	2329	  2	  0	 83	  4	  2	  5	  6	  5	  0	  2	  1	0.53955	  0	0.60000	  0	 25	 87	 68	  0	
24-Apr-2013	sub2329	2329	  2	  0	 84	  4	  2	  2	  5	  3	  1	  2	  1	0.58391	  1	0.60000	  0	 22	 60	 61	  0	
24-Apr-2013	sub2329	2329	  2	  0	 85	  4	  2	  4	  2	  2	  1	  2	  1	0.54405	  1	0.60000	  0	 24	 62	 63	  0	
24-Apr-2013	sub2329	2329	  2	  0	 86	  4	  2	  3	  4	  3	  1	  1	  1	0.42982	  1	0.60000	  0	 23	 62	 63	  1	
24-Apr-2013	sub2329	2329	  2	  0	 87	  4	  2	  6	  1	  6	  0	  2	  0	0.44360	  1	0.60000	  0	 26	 67	 88	  1	
24-Apr-2013	sub2329	2329	  2	  0	 88	  4	  2	  5	  6	  5	  0	  1	  0	0.37612	  1	0.60000	  0	 25	 67	 88	  1	
24-Apr-2013	sub2329	2329	  2	  0	 89	  4	  2	  4	  2	  2	  1	  2	  1	0.34859	  1	0.60000	  0	 24	 62	 63	  1	
24-Apr-2013	sub2329	2329	  2	  0	 90	  4	  2	  3	  4	  3	  1	  2	  0	0.37431	  0	0.60000	  0	 23	 82	 83	  1	
24-Apr-2013	sub2329	2329	  2	  0	 91	  4	  2	  5	  6	  5	  0	  1	  0	0.30036	  1	0.60000	  0	 25	 67	 88	  1	
24-Apr-2013	sub2329	2329	  2	  0	 92	  4	  2	  2	  5	  3	  1	  2	  1	0.30440	  1	0.60000	  0	 22	 60	 61	  1	
24-Apr-2013	sub2329	2329	  2	  0	 93	  4	  2	  4	  2	  2	  1	  2	  1	0.30347	  1	0.60000	  0	 24	 62	 63	  1	
24-Apr-2013	sub2329	2329	  2	  0	 94	  4	  2	  3	  4	  3	  1	  2	  0	0.44308	  0	0.60000	  0	 23	 82	 83	  1	
24-Apr-2013	sub2329	2329	  2	  0	 95	  4	  2	  4	  2	  2	  1	  1	  0	0.38901	  0	0.60000	  0	 24	 82	 83	  1	
24-Apr-2013	sub2329	2329	  2	  0	 96	  4	  2	  3	  4	  3	  1	  2	  0	0.33628	  0	0.60000	  0	 23	 82	 83	  1	
24-Apr-2013	sub2329	2329	  2	  0	 97	  4	  2	  6	  1	  6	  0	  1	  1	0.35127	  0	0.60000	  0	 26	 87	 68	  1	
24-Apr-2013	sub2329	2329	  2	  0	 98	  4	  2	  1	  3	  2	  1	  2	  0	0.44183	  0	0.60000	  0	 21	 80	 81	  1	
24-Apr-2013	sub2329	2329	  2	  0	 99	  4	  2	  1	  3	  2	  1	  1	  1	0.34942	  1	0.60000	  0	 21	 60	 61	  1	
24-Apr-2013	sub2329	2329	  2	  0	100	  4	  2	  6	  1	  6	  0	  1	  1	0.57181	  0	0.60000	  0	 26	 87	 68	  0	
24-Apr-2013	sub2329	2329	  2	  0	101	  4	  2	  4	  2	  2	  0	  2	  0	0.43534	  1	0.50000	  0	 24	 64	 89	  1	
24-Apr-2013	sub2329	2329	  2	  0	102	  4	  2	  5	  6	  5	  0	  2	  1	0.57770	  0	0.50000	  1	 25	 87	 51	  0	
24-Apr-2013	sub2329	2329	  2	  0	103	  4	  2	  1	  3	  2	  1	  1	  1	0.60320	  1	0.60000	  1	 21	 60	 51	  0	
24-Apr-2013	sub2329	2329	  2	  0	104	  4	  2	  4	  2	  2	  0	  2	  0	0.55465	  1	0.70000	  0	 24	 64	 89	  0	
24-Apr-2013	sub2329	2329	  2	  0	105	  4	  2	  2	  5	  3	  1	  2	  1	0.52849	  1	0.70000	  0	 22	 60	 61	  0	
24-Apr-2013	sub2329	2329	  2	  0	106	  4	  2	  2	  5	  3	  1	  2	  1	0.38651	  1	0.70000	  0	 22	 60	 61	  1	
24-Apr-2013	sub2329	2329	  2	  0	107	  4	  2	  3	  4	  3	  0	  2	  1	0.45741	  0	0.70000	  0	 23	 84	 69	  1	
24-Apr-2013	sub2329	2329	  2	  0	108	  4	  2	  3	  4	  3	  1	  1	  1	0.40230	  1	0.70000	  0	 23	 62	 63	  1	
24-Apr-2013	sub2329	2329	  2	  0	109	  4	  2	  4	  2	  2	  1	  2	  1	0.48120	  1	0.70000	  0	 24	 62	 63	  1	
24-Apr-2013	sub2329	2329	  2	  0	110	  4	  2	  2	  5	  3	  1	  2	  1	0.57693	  1	0.70000	  0	 22	 60	 61	  0	
24-Apr-2013	sub2329	2329	  2	  0	111	  4	  2	  6	  1	  6	  1	  1	  0	0.41743	  0	0.70000	  0	 26	 85	 86	  1	
24-Apr-2013	sub2329	2329	  2	  0	112	  4	  2	  3	  4	  3	  1	  1	  1	0.62385	  1	0.70000	  0	 23	 62	 63	  0	
24-Apr-2013	sub2329	2329	  2	  0	113	  4	  2	  5	  6	  5	  0	  2	  1	0.60312	  0	0.70000	  0	 25	 87	 68	  0	
24-Apr-2013	sub2329	2329	  2	  0	114	  4	  2	  2	  5	  3	  1	  1	  0	0.48329	  0	0.70000	  0	 22	 80	 81	  1	
24-Apr-2013	sub2329	2329	  2	  0	115	  4	  2	  6	  1	  6	  0	  2	  0	0.42997	  1	0.70000	  0	 26	 67	 88	  1	
24-Apr-2013	sub2329	2329	  2	  0	116	  4	  2	  5	  6	  5	  0	  2	  1	0.48097	  0	0.70000	  0	 25	 87	 68	  1	
24-Apr-2013	sub2329	2329	  2	  0	117	  4	  2	  4	  2	  2	  1	  2	  1	0.51311	  1	0.70000	  0	 24	 62	 63	  0	
24-Apr-2013	sub2329	2329	  2	  0	118	  4	  2	  1	  3	  2	  1	  2	  0	0.42813	  0	0.70000	  0	 21	 80	 81	  1	
24-Apr-2013	sub2329	2329	  2	  0	119	  4	  2	  5	  6	  5	  0	  2	  1	0.84535	  0	0.70000	  1	 25	 87	 51	  0	
24-Apr-2013	sub2329	2329	  2	  0	120	  4	  2	  1	  3	  2	  1	  1	  1	0.50315	  1	0.70000	  0	 21	 60	 61	  0	
24-Apr-2013	sub2329	2329	  2	  0	121	  4	  2	  2	  5	  3	  1	  2	  1	0.59412	  1	0.70000	  0	 22	 60	 61	  0	
24-Apr-2013	sub2329	2329	  2	  0	122	  4	  2	  2	  5	  3	  1	  2	  1	0.46895	  1	0.70000	  0	 22	 60	 61	  1	
24-Apr-2013	sub2329	2329	  2	  0	123	  4	  2	  6	  1	  6	  0	  1	  1	0.41568	  0	0.70000	  0	 26	 87	 68	  1	
24-Apr-2013	sub2329	2329	  2	  0	124	  4	  2	  1	  3	  2	  1	  1	  1	0.51924	  1	0.70000	  0	 21	 60	 61	  0	
24-Apr-2013	sub2329	2329	  2	  0	125	  4	  2	  5	  6	  5	  0	  2	  1	0.42052	  0	0.70000	  0	 25	 87	 68	  1	
24-Apr-2013	sub2329	2329	  2	  0	126	  4	  2	  4	  2	  2	  1	  1	  0	0.27173	  0	0.70000	  0	 24	 82	 83	  1	
24-Apr-2013	sub2329	2329	  2	  0	127	  4	  2	  6	  1	  6	  1	  2	  1	0.36301	  1	0.70000	  0	 26	 65	 66	  1	
24-Apr-2013	sub2329	2329	  2	  0	128	  4	  2	  6	  1	  6	  0	  2	  0	0.39841	  1	0.70000	  0	 26	 67	 88	  1	
24-Apr-2013	sub2329	2329	  2	  0	129	  4	  2	  4	  2	  2	  1	  2	  1	0.59790	  1	0.70000	  0	 24	 62	 63	  0	
24-Apr-2013	sub2329	2329	  2	  0	130	  4	  2	  5	  6	  5	  0	  2	  1	0.63190	  0	0.70000	  0	 25	 87	 68	  0	
24-Apr-2013	sub2329	2329	  2	  0	131	  4	  2	  6	  1	  6	  1	  2	  1	0.43054	  1	0.70000	  0	 26	 65	 66	  1	
24-Apr-2013	sub2329	2329	  2	  0	132	  4	  2	  4	  2	  2	  0	  2	  0	0.51065	  1	0.70000	  0	 24	 64	 89	  0	
24-Apr-2013	sub2329	2329	  2	  0	133	  4	  2	  3	  4	  3	  1	  2	  0	0.52841	  0	0.70000	  0	 23	 82	 83	  0	
24-Apr-2013	sub2329	2329	  2	  0	134	  4	  2	  3	  4	  3	  1	  1	  1	0.36586	  1	0.70000	  0	 23	 62	 63	  1	
24-Apr-2013	sub2329	2329	  2	  0	135	  4	  2	  4	  2	  2	  1	  2	  1	0.60514	  1	0.70000	  0	 24	 62	 63	  0	
24-Apr-2013	sub2329	2329	  2	  0	136	  4	  2	  6	  1	  6	  1	  1	  0	0.48611	  0	0.70000	  0	 26	 85	 86	  1	
24-Apr-2013	sub2329	2329	  2	  0	137	  4	  2	  1	  3	  2	  1	  2	  0	0.43918	  0	0.70000	  0	 21	 80	 81	  1	
24-Apr-2013	sub2329	2329	  2	  0	138	  4	  2	  5	  6	  5	  0	  1	  0	0.58435	  1	0.70000	  0	 25	 67	 88	  0	
24-Apr-2013	sub2329	2329	  2	  0	139	  4	  2	  1	  3	  2	  1	  1	  1	0.52094	  1	0.70000	  0	 21	 60	 61	  0	
24-Apr-2013	sub2329	2329	  2	  0	140	  4	  2	  5	  6	  5	  0	  1	  0	0.49061	  1	0.70000	  0	 25	 67	 88	  1	
24-Apr-2013	sub2329	2329	  2	  0	141	  4	  2	  3	  4	  3	  0	  1	  0	0.76226	  1	0.60000	  1	 23	 64	 51	  0	
24-Apr-2013	sub2329	2329	  2	  0	142	  4	  2	  2	  5	  3	  1	  2	  1	0.52819	  1	0.70000	  0	 22	 60	 61	  0	
24-Apr-2013	sub2329	2329	  2	  0	143	  4	  2	  1	  3	  2	  1	  1	  1	0.53718	  1	0.70000	  0	 21	 60	 61	  0	
24-Apr-2013	sub2329	2329	  2	  0	144	  4	  2	  1	  3	  2	  1	  1	  1	0.47794	  1	0.70000	  0	 21	 60	 61	  1	
24-Apr-2013	sub2329	2329	  2	  0	145	  4	  2	  4	  2	  2	  1	  2	  1	0.52672	  1	0.70000	  0	 24	 62	 63	  0	
24-Apr-2013	sub2329	2329	  2	  0	146	  4	  2	  1	  3	  2	  1	  1	  1	0.42919	  1	0.70000	  0	 21	 60	 61	  1	
24-Apr-2013	sub2329	2329	  2	  0	147	  4	  2	  2	  5	  3	  1	  1	  0	0.46045	  0	0.70000	  0	 22	 80	 81	  1	
24-Apr-2013	sub2329	2329	  2	  0	148	  4	  2	  5	  6	  5	  0	  1	  0	0.42535	  1	0.70000	  0	 25	 67	 88	  1	
24-Apr-2013	sub2329	2329	  2	  0	149	  4	  2	  1	  3	  2	  1	  1	  1	0.53619	  1	0.70000	  0	 21	 60	 61	  0	
24-Apr-2013	sub2329	2329	  2	  0	150	  4	  2	  2	  5	  3	  1	  2	  1	0.51465	  1	0.70000	  0	 22	 60	 61	  0	
24-Apr-2013	sub2329	2329	  2	  0	  1	  5	  1	  4	  4	  2	  1	  2	  1	0.57521	  1	0.60000	  0	 14	 32	 33	  0	
24-Apr-2013	sub2329	2329	  2	  0	  2	  5	  1	  6	  3	  1	  1	  2	  1	0.51592	  1	0.30000	  1	 16	 35	 51	  0	
24-Apr-2013	sub2329	2329	  2	  0	  3	  5	  1	  1	  5	  2	  1	  2	  0	0.47239	  0	0.90000	  0	 11	 40	 41	  1	
24-Apr-2013	sub2329	2329	  2	  0	  4	  5	  1	  4	  4	  2	  1	  2	  1	0.34300	  1	0.90000	  0	 14	 32	 33	  1	
24-Apr-2013	sub2329	2329	  2	  0	  5	  5	  1	  1	  5	  2	  1	  2	  0	0.49446	  0	0.90000	  0	 11	 40	 41	  1	
24-Apr-2013	sub2329	2329	  2	  0	  6	  5	  1	  3	  2	  6	  1	  1	  1	0.44583	  1	0.90000	  0	 13	 32	 33	  1	
24-Apr-2013	sub2329	2329	  2	  0	  7	  5	  1	  1	  5	  2	  1	  2	  0	0.53290	  0	0.90000	  0	 11	 40	 41	  0	
24-Apr-2013	sub2329	2329	  2	  0	  8	  5	  1	  5	  1	  4	  0	  1	  0	0.64467	  1	0.90000	  0	 15	 37	 48	  0	
24-Apr-2013	sub2329	2329	  2	  0	  9	  5	  1	  4	  4	  2	  1	  2	  1	0.47611	  1	0.90000	  0	 14	 32	 33	  1	
24-Apr-2013	sub2329	2329	  2	  0	 10	  5	  1	  1	  5	  2	  1	  2	  0	0.62185	  0	0.90000	  0	 11	 40	 41	  0	
24-Apr-2013	sub2329	2329	  2	  0	 11	  5	  1	  4	  4	  2	  1	  2	  1	0.58154	  1	0.90000	  0	 14	 32	 33	  0	
24-Apr-2013	sub2329	2329	  2	  0	 12	  5	  1	  1	  5	  2	  1	  1	  1	0.38771	  1	0.90000	  0	 11	 30	 31	  1	
24-Apr-2013	sub2329	2329	  2	  0	 13	  5	  1	  6	  3	  1	  1	  1	  0	0.63682	  0	0.90000	  0	 16	 45	 46	  0	
24-Apr-2013	sub2329	2329	  2	  0	 14	  5	  1	  3	  2	  6	  1	  2	  0	0.52349	  0	0.90000	  0	 13	 42	 43	  0	
24-Apr-2013	sub2329	2329	  2	  0	 15	  5	  1	  3	  2	  6	  1	  2	  0	0.48240	  0	0.90000	  0	 13	 42	 43	  1	
24-Apr-2013	sub2329	2329	  2	  0	 16	  5	  1	  1	  5	  2	  1	  1	  1	0.70338	  1	0.80000	  0	 11	 30	 31	  0	
24-Apr-2013	sub2329	2329	  2	  0	 17	  5	  1	  2	  6	  6	  1	  2	  1	0.52288	  1	0.80000	  0	 12	 30	 31	  0	
24-Apr-2013	sub2329	2329	  2	  0	 18	  5	  1	  4	  4	  2	  1	  2	  1	0.45518	  1	0.70000	  0	 14	 32	 33	  1	
24-Apr-2013	sub2329	2329	  2	  0	 19	  5	  1	  5	  1	  4	  1	  2	  0	0.43814	  0	0.70000	  0	 15	 45	 46	  1	
24-Apr-2013	sub2329	2329	  2	  0	 20	  5	  1	  5	  1	  4	  0	  2	  1	0.42193	  0	0.70000	  0	 15	 47	 38	  1	
24-Apr-2013	sub2329	2329	  2	  0	 21	  5	  1	  3	  2	  6	  1	  2	  0	0.54657	  0	0.60000	  0	 13	 42	 43	  0	
24-Apr-2013	sub2329	2329	  2	  0	 22	  5	  1	  3	  2	  6	  1	  2	  0	0.42482	  0	0.60000	  0	 13	 42	 43	  1	
24-Apr-2013	sub2329	2329	  2	  0	 23	  5	  1	  2	  6	  6	  1	  2	  1	0.64516	  1	0.60000	  1	 12	 30	 51	  0	
24-Apr-2013	sub2329	2329	  2	  0	 24	  5	  1	  4	  4	  2	  1	  2	  1	0.64515	  1	0.90000	  0	 14	 32	 33	  0	
24-Apr-2013	sub2329	2329	  2	  0	 25	  5	  1	  2	  6	  6	  1	  2	  1	0.40770	  1	0.90000	  0	 12	 30	 31	  1	
24-Apr-2013	sub2329	2329	  2	  0	 26	  5	  1	  6	  3	  1	  1	  1	  0	0.53945	  0	0.90000	  0	 16	 45	 46	  0	
24-Apr-2013	sub2329	2329	  2	  0	 27	  5	  1	  3	  2	  6	  1	  1	  1	0.37442	  1	0.90000	  0	 13	 32	 33	  1	
24-Apr-2013	sub2329	2329	  2	  0	 28	  5	  1	  6	  3	  1	  0	  1	  1	0.58996	  0	0.90000	  0	 16	 47	 38	  0	
24-Apr-2013	sub2329	2329	  2	  0	 29	  5	  1	  3	  2	  6	  1	  2	  0	0.53049	  0	0.90000	  0	 13	 42	 43	  0	
24-Apr-2013	sub2329	2329	  2	  0	 30	  5	  1	  6	  3	  1	  1	  2	  1	0.40937	  1	0.80000	  0	 16	 35	 36	  1	
24-Apr-2013	sub2329	2329	  2	  0	 31	  5	  1	  2	  6	  6	  1	  1	  0	0.46760	  0	0.80000	  0	 12	 40	 41	  1	
24-Apr-2013	sub2329	2329	  2	  0	 32	  5	  1	  1	  5	  2	  1	  2	  0	0.41381	  0	0.80000	  0	 11	 40	 41	  1	
24-Apr-2013	sub2329	2329	  2	  0	 33	  5	  1	  5	  1	  4	  1	  2	  0	0.43478	  0	0.80000	  0	 15	 45	 46	  1	
24-Apr-2013	sub2329	2329	  2	  0	 34	  5	  1	  6	  3	  1	  0	  1	  1	0.45606	  0	0.80000	  0	 16	 47	 38	  1	
24-Apr-2013	sub2329	2329	  2	  0	 35	  5	  1	  3	  2	  6	  1	  2	  0	0.48584	  0	0.70000	  0	 13	 42	 43	  1	
24-Apr-2013	sub2329	2329	  2	  0	 36	  5	  1	  3	  2	  6	  0	  1	  0	0.48578	  1	0.70000	  0	 13	 34	 49	  1	
24-Apr-2013	sub2329	2329	  2	  0	 37	  5	  1	  5	  1	  4	  1	  1	  1	0.46626	  1	0.70000	  0	 15	 35	 36	  1	
24-Apr-2013	sub2329	2329	  2	  0	 38	  5	  1	  2	  6	  6	  1	  1	  0	0.34806	  0	0.70000	  0	 12	 40	 41	  1	
24-Apr-2013	sub2329	2329	  2	  0	 39	  5	  1	  5	  1	  4	  1	  2	  0	0.50782	  0	0.70000	  0	 15	 45	 46	  0	
24-Apr-2013	sub2329	2329	  2	  0	 40	  5	  1	  5	  1	  4	  0	  2	  1	1.36627	  0	0.70000	  1	 15	 47	 51	  0	
24-Apr-2013	sub2329	2329	  2	  0	 41	  5	  1	  5	  1	  4	  0	  2	  1	0.52963	  0	0.90000	  0	 15	 47	 38	  0	
24-Apr-2013	sub2329	2329	  2	  0	 42	  5	  1	  4	  4	  2	  0	  2	  0	0.54746	  1	0.90000	  0	 14	 34	 49	  0	
24-Apr-2013	sub2329	2329	  2	  0	 43	  5	  1	  6	  3	  1	  0	  2	  0	0.36076	  1	0.90000	  0	 16	 37	 48	  1	
24-Apr-2013	sub2329	2329	  2	  0	 44	  5	  1	  6	  3	  1	  0	  1	  1	0.40776	  0	0.80000	  0	 16	 47	 38	  1	
24-Apr-2013	sub2329	2329	  2	  0	 45	  5	  1	  6	  3	  1	  1	  1	  0	0.38755	  0	0.80000	  0	 16	 45	 46	  1	
24-Apr-2013	sub2329	2329	  2	  0	 46	  5	  1	  4	  4	  2	  0	  2	  0	0.52069	  1	0.80000	  0	 14	 34	 49	  0	
24-Apr-2013	sub2329	2329	  2	  0	 47	  5	  1	  4	  4	  2	  1	  2	  1	0.58453	  1	0.80000	  0	 14	 32	 33	  0	
24-Apr-2013	sub2329	2329	  2	  0	 48	  5	  1	  2	  6	  6	  1	  2	  1	0.44644	  1	0.80000	  0	 12	 30	 31	  1	
24-Apr-2013	sub2329	2329	  2	  0	 49	  5	  1	  4	  4	  2	  1	  2	  1	0.68692	  1	0.80000	  0	 14	 32	 33	  0	
24-Apr-2013	sub2329	2329	  2	  0	 50	  5	  1	  5	  1	  4	  1	  1	  1	0.75925	  1	0.80000	  0	 15	 35	 36	  0	
24-Apr-2013	sub2329	2329	  2	  0	 51	  5	  1	  3	  2	  6	  1	  1	  1	0.66617	  1	0.70000	  0	 13	 32	 33	  0	
24-Apr-2013	sub2329	2329	  2	  0	 52	  5	  1	  6	  3	  1	  0	  1	  1	0.55030	  0	0.70000	  0	 16	 47	 38	  0	
24-Apr-2013	sub2329	2329	  2	  0	 53	  5	  1	  5	  1	  4	  1	  2	  0	0.42157	  0	0.70000	  0	 15	 45	 46	  1	
24-Apr-2013	sub2329	2329	  2	  0	 54	  5	  1	  4	  4	  2	  1	  2	  1	0.56943	  1	0.70000	  0	 14	 32	 33	  0	
24-Apr-2013	sub2329	2329	  2	  0	 55	  5	  1	  2	  6	  6	  1	  2	  1	0.52506	  1	0.70000	  0	 12	 30	 31	  0	
24-Apr-2013	sub2329	2329	  2	  0	 56	  5	  1	  2	  6	  6	  1	  2	  1	0.47617	  1	0.70000	  0	 12	 30	 31	  1	
24-Apr-2013	sub2329	2329	  2	  0	 57	  5	  1	  5	  1	  4	  0	  2	  1	0.45595	  0	0.70000	  0	 15	 47	 38	  1	
24-Apr-2013	sub2329	2329	  2	  0	 58	  5	  1	  3	  2	  6	  0	  1	  0	0.58671	  1	0.70000	  0	 13	 34	 49	  0	
24-Apr-2013	sub2329	2329	  2	  0	 59	  5	  1	  2	  6	  6	  1	  2	  1	0.43133	  1	0.70000	  0	 12	 30	 31	  1	
24-Apr-2013	sub2329	2329	  2	  0	 60	  5	  1	  1	  5	  2	  1	  1	  1	0.50858	  1	0.70000	  0	 11	 30	 31	  0	
24-Apr-2013	sub2329	2329	  2	  0	 61	  5	  1	  1	  5	  2	  1	  1	  1	0.55274	  1	0.60000	  0	 11	 30	 31	  0	
24-Apr-2013	sub2329	2329	  2	  0	 62	  5	  1	  1	  5	  2	  1	  1	  1	0.48260	  1	0.60000	  0	 11	 30	 31	  1	
24-Apr-2013	sub2329	2329	  2	  0	 63	  5	  1	  2	  6	  6	  1	  2	  1	0.45448	  1	0.60000	  0	 12	 30	 31	  1	
24-Apr-2013	sub2329	2329	  2	  0	 64	  5	  1	  3	  2	  6	  1	  2	  0	0.51155	  0	0.60000	  0	 13	 42	 43	  0	
24-Apr-2013	sub2329	2329	  2	  0	 65	  5	  1	  6	  3	  1	  0	  1	  1	0.47588	  0	0.60000	  0	 16	 47	 38	  1	
24-Apr-2013	sub2329	2329	  2	  0	 66	  5	  1	  2	  6	  6	  1	  2	  1	0.47440	  1	0.60000	  0	 12	 30	 31	  1	
24-Apr-2013	sub2329	2329	  2	  0	 67	  5	  1	  6	  3	  1	  0	  1	  1	0.45350	  0	0.60000	  0	 16	 47	 38	  1	
24-Apr-2013	sub2329	2329	  2	  0	 68	  5	  1	  5	  1	  4	  1	  1	  1	0.38425	  1	0.60000	  0	 15	 35	 36	  1	
24-Apr-2013	sub2329	2329	  2	  0	 69	  5	  1	  2	  6	  6	  1	  1	  0	0.41644	  0	0.60000	  0	 12	 40	 41	  1	
24-Apr-2013	sub2329	2329	  2	  0	 70	  5	  1	  4	  4	  2	  1	  2	  1	0.55227	  1	0.60000	  0	 14	 32	 33	  0	
24-Apr-2013	sub2329	2329	  2	  0	 71	  5	  1	  1	  5	  2	  1	  1	  1	0.46030	  1	0.60000	  0	 11	 30	 31	  1	
24-Apr-2013	sub2329	2329	  2	  0	 72	  5	  1	  6	  3	  1	  1	  1	  0	0.55104	  0	0.60000	  0	 16	 45	 46	  0	
24-Apr-2013	sub2329	2329	  2	  0	 73	  5	  1	  3	  2	  6	  0	  2	  1	0.48258	  0	0.60000	  0	 13	 44	 39	  1	
24-Apr-2013	sub2329	2329	  2	  0	 74	  5	  1	  1	  5	  2	  1	  1	  1	0.47220	  1	0.60000	  0	 11	 30	 31	  1	
24-Apr-2013	sub2329	2329	  2	  0	 75	  5	  1	  2	  6	  6	  1	  2	  1	0.48227	  1	0.60000	  0	 12	 30	 31	  1	
24-Apr-2013	sub2329	2329	  2	  0	 76	  5	  2	  5	  1	  4	  0	  1	  0	0.67938	  1	0.50000	  1	 25	 67	 51	  0	
24-Apr-2013	sub2329	2329	  2	  0	 77	  5	  2	  2	  6	  6	  1	  2	  1	0.53847	  1	0.70000	  0	 22	 60	 61	  0	
24-Apr-2013	sub2329	2329	  2	  0	 78	  5	  2	  5	  1	  4	  0	  1	  0	0.57207	  1	0.70000	  0	 25	 67	 88	  0	
24-Apr-2013	sub2329	2329	  2	  0	 79	  5	  2	  6	  3	  1	  0	  1	  1	0.59443	  0	0.70000	  0	 26	 87	 68	  0	
24-Apr-2013	sub2329	2329	  2	  0	 80	  5	  2	  3	  2	  6	  0	  2	  1	0.58312	  0	0.70000	  0	 23	 84	 69	  0	
24-Apr-2013	sub2329	2329	  2	  0	 81	  5	  2	  2	  6	  6	  1	  2	  1	0.45140	  1	0.60000	  0	 22	 60	 61	  1	
24-Apr-2013	sub2329	2329	  2	  0	 82	  5	  2	  6	  3	  1	  0	  1	  1	0.56463	  0	0.60000	  0	 26	 87	 68	  0	
24-Apr-2013	sub2329	2329	  2	  0	 83	  5	  2	  3	  2	  6	  1	  2	  0	0.46533	  0	0.60000	  0	 23	 82	 83	  1	
24-Apr-2013	sub2329	2329	  2	  0	 84	  5	  2	  3	  2	  6	  1	  2	  0	0.45949	  0	0.60000	  0	 23	 82	 83	  1	
24-Apr-2013	sub2329	2329	  2	  0	 85	  5	  2	  1	  5	  2	  1	  1	  1	0.54160	  1	0.60000	  0	 21	 60	 61	  0	
24-Apr-2013	sub2329	2329	  2	  0	 86	  5	  2	  4	  4	  2	  1	  1	  0	0.45754	  0	0.60000	  0	 24	 82	 83	  1	
24-Apr-2013	sub2329	2329	  2	  0	 87	  5	  2	  5	  1	  4	  0	  1	  0	0.55041	  1	0.60000	  0	 25	 67	 88	  0	
24-Apr-2013	sub2329	2329	  2	  0	 88	  5	  2	  3	  2	  6	  1	  2	  0	0.50180	  0	0.60000	  0	 23	 82	 83	  0	
24-Apr-2013	sub2329	2329	  2	  0	 89	  5	  2	  4	  4	  2	  0	  2	  0	0.45153	  1	0.60000	  0	 24	 64	 89	  1	
24-Apr-2013	sub2329	2329	  2	  0	 90	  5	  2	  2	  6	  6	  1	  2	  1	0.46726	  1	0.60000	  0	 22	 60	 61	  1	
24-Apr-2013	sub2329	2329	  2	  0	 91	  5	  2	  4	  4	  2	  1	  2	  1	0.51659	  1	0.60000	  0	 24	 62	 63	  0	
24-Apr-2013	sub2329	2329	  2	  0	 92	  5	  2	  4	  4	  2	  1	  2	  1	0.43113	  1	0.60000	  0	 24	 62	 63	  1	
24-Apr-2013	sub2329	2329	  2	  0	 93	  5	  2	  5	  1	  4	  0	  2	  1	0.42879	  0	0.60000	  0	 25	 87	 68	  1	
24-Apr-2013	sub2329	2329	  2	  0	 94	  5	  2	  2	  6	  6	  1	  2	  1	0.56027	  1	0.60000	  0	 22	 60	 61	  0	
24-Apr-2013	sub2329	2329	  2	  0	 95	  5	  2	  6	  3	  1	  0	  1	  1	0.41071	  0	0.60000	  0	 26	 87	 68	  1	
24-Apr-2013	sub2329	2329	  2	  0	 96	  5	  2	  5	  1	  4	  0	  2	  1	0.57218	  0	0.60000	  0	 25	 87	 68	  0	
24-Apr-2013	sub2329	2329	  2	  0	 97	  5	  2	  2	  6	  6	  1	  2	  1	0.49160	  1	0.60000	  0	 22	 60	 61	  1	
24-Apr-2013	sub2329	2329	  2	  0	 98	  5	  2	  4	  4	  2	  1	  2	  1	0.55017	  1	0.60000	  0	 24	 62	 63	  0	
24-Apr-2013	sub2329	2329	  2	  0	 99	  5	  2	  4	  4	  2	  1	  2	  1	0.53731	  1	0.60000	  0	 24	 62	 63	  0	
24-Apr-2013	sub2329	2329	  2	  0	100	  5	  2	  6	  3	  1	  1	  1	  0	0.35825	  0	0.60000	  0	 26	 85	 86	  1	
24-Apr-2013	sub2329	2329	  2	  0	101	  5	  2	  5	  1	  4	  0	  2	  1	0.51227	  0	0.50000	  1	 25	 87	 51	  0	
24-Apr-2013	sub2329	2329	  2	  0	102	  5	  2	  1	  5	  2	  1	  1	  1	0.59162	  1	0.60000	  0	 21	 60	 61	  0	
24-Apr-2013	sub2329	2329	  2	  0	103	  5	  2	  6	  3	  1	  0	  1	  1	0.42758	  0	0.60000	  0	 26	 87	 68	  1	
24-Apr-2013	sub2329	2329	  2	  0	104	  5	  2	  1	  5	  2	  1	  1	  1	0.41910	  1	0.60000	  0	 21	 60	 61	  1	
24-Apr-2013	sub2329	2329	  2	  0	105	  5	  2	  4	  4	  2	  1	  2	  1	0.43915	  1	0.60000	  0	 24	 62	 63	  1	
24-Apr-2013	sub2329	2329	  2	  0	106	  5	  2	  1	  5	  2	  1	  1	  1	0.34847	  1	0.60000	  0	 21	 60	 61	  1	
24-Apr-2013	sub2329	2329	  2	  0	107	  5	  2	  4	  4	  2	  0	  1	  1	0.47319	  0	0.60000	  0	 24	 84	 69	  1	
24-Apr-2013	sub2329	2329	  2	  0	108	  5	  2	  6	  3	  1	  1	  1	  0	0.40881	  0	0.60000	  0	 26	 85	 86	  1	
24-Apr-2013	sub2329	2329	  2	  0	109	  5	  2	  5	  1	  4	  0	  2	  1	0.41478	  0	0.60000	  0	 25	 87	 68	  1	
24-Apr-2013	sub2329	2329	  2	  0	110	  5	  2	  2	  6	  6	  1	  2	  1	0.57131	  1	0.60000	  0	 22	 60	 61	  0	
24-Apr-2013	sub2329	2329	  2	  0	111	  5	  2	  1	  5	  2	  1	  1	  1	0.49394	  1	0.60000	  0	 21	 60	 61	  1	
24-Apr-2013	sub2329	2329	  2	  0	112	  5	  2	  4	  4	  2	  0	  2	  0	0.52910	  1	0.60000	  0	 24	 64	 89	  0	
24-Apr-2013	sub2329	2329	  2	  0	113	  5	  2	  3	  2	  6	  0	  2	  1	0.52929	  0	0.60000	  0	 23	 84	 69	  0	
24-Apr-2013	sub2329	2329	  2	  0	114	  5	  2	  1	  5	  2	  1	  1	  1	0.44914	  1	0.60000	  0	 21	 60	 61	  1	
24-Apr-2013	sub2329	2329	  2	  0	115	  5	  2	  2	  6	  6	  1	  2	  1	0.54010	  1	0.60000	  0	 22	 60	 61	  0	
24-Apr-2013	sub2329	2329	  2	  0	116	  5	  2	  6	  3	  1	  1	  1	  0	0.43471	  0	0.60000	  0	 26	 85	 86	  1	
24-Apr-2013	sub2329	2329	  2	  0	117	  5	  2	  5	  1	  4	  0	  2	  1	0.43957	  0	0.60000	  0	 25	 87	 68	  1	
24-Apr-2013	sub2329	2329	  2	  0	118	  5	  2	  2	  6	  6	  1	  2	  1	0.61149	  1	0.60000	  1	 22	 60	 51	  0	
24-Apr-2013	sub2329	2329	  2	  0	119	  5	  2	  3	  2	  6	  1	  2	  0	0.55015	  0	0.70000	  0	 23	 82	 83	  0	
24-Apr-2013	sub2329	2329	  2	  0	120	  5	  2	  5	  1	  4	  0	  2	  1	0.59181	  0	0.70000	  0	 25	 87	 68	  0	
24-Apr-2013	sub2329	2329	  2	  0	121	  5	  2	  2	  6	  6	  1	  2	  1	0.47375	  1	0.60000	  0	 22	 60	 61	  1	
24-Apr-2013	sub2329	2329	  2	  0	122	  5	  2	  3	  2	  6	  1	  1	  1	0.74426	  1	0.60000	  1	 23	 62	 51	  0	
24-Apr-2013	sub2329	2329	  2	  0	123	  5	  2	  5	  1	  4	  0	  2	  1	0.45877	  0	0.70000	  0	 25	 87	 68	  1	
24-Apr-2013	sub2329	2329	  2	  0	124	  5	  2	  3	  2	  6	  1	  1	  1	0.38953	  1	0.70000	  0	 23	 62	 63	  1	
24-Apr-2013	sub2329	2329	  2	  0	125	  5	  2	  3	  2	  6	  1	  1	  1	0.69107	  1	0.70000	  0	 23	 62	 63	  0	
24-Apr-2013	sub2329	2329	  2	  0	126	  5	  2	  2	  6	  6	  1	  2	  1	0.55947	  1	0.70000	  0	 22	 60	 61	  0	
24-Apr-2013	sub2329	2329	  2	  0	127	  5	  2	  1	  5	  2	  1	  1	  1	0.53881	  1	0.70000	  0	 21	 60	 61	  0	
24-Apr-2013	sub2329	2329	  2	  0	128	  5	  2	  1	  5	  2	  1	  1	  1	0.42059	  1	0.70000	  0	 21	 60	 61	  1	
24-Apr-2013	sub2329	2329	  2	  0	129	  5	  2	  4	  4	  2	  1	  1	  0	0.57494	  0	0.70000	  0	 24	 82	 83	  0	
24-Apr-2013	sub2329	2329	  2	  0	130	  5	  2	  2	  6	  6	  1	  2	  1	0.45480	  1	0.70000	  0	 22	 60	 61	  1	
24-Apr-2013	sub2329	2329	  2	  0	131	  5	  2	  4	  4	  2	  1	  2	  1	0.43503	  1	0.70000	  0	 24	 62	 63	  1	
24-Apr-2013	sub2329	2329	  2	  0	132	  5	  2	  6	  3	  1	  1	  1	  0	0.54032	  0	0.70000	  0	 26	 85	 86	  0	
24-Apr-2013	sub2329	2329	  2	  0	133	  5	  2	  5	  1	  4	  0	  2	  1	0.45599	  0	0.70000	  0	 25	 87	 68	  1	
24-Apr-2013	sub2329	2329	  2	  0	134	  5	  2	  3	  2	  6	  1	  2	  0	0.53004	  0	0.70000	  0	 23	 82	 83	  0	
24-Apr-2013	sub2329	2329	  2	  0	135	  5	  2	  4	  4	  2	  1	  2	  1	0.43528	  1	0.70000	  0	 24	 62	 63	  1	
24-Apr-2013	sub2329	2329	  2	  0	136	  5	  2	  1	  5	  2	  1	  1	  1	0.56813	  1	0.70000	  0	 21	 60	 61	  0	
24-Apr-2013	sub2329	2329	  2	  0	137	  5	  2	  6	  3	  1	  1	  1	  0	0.37842	  0	0.70000	  0	 26	 85	 86	  1	
24-Apr-2013	sub2329	2329	  2	  0	138	  5	  2	  4	  4	  2	  1	  2	  1	0.55052	  1	0.70000	  0	 24	 62	 63	  0	
24-Apr-2013	sub2329	2329	  2	  0	139	  5	  2	  1	  5	  2	  1	  1	  1	0.45220	  1	0.70000	  0	 21	 60	 61	  1	
24-Apr-2013	sub2329	2329	  2	  0	140	  5	  2	  3	  2	  6	  1	  2	  0	0.45445	  0	0.70000	  0	 23	 82	 83	  1	
24-Apr-2013	sub2329	2329	  2	  0	141	  5	  2	  6	  3	  1	  0	  1	  1	0.48936	  0	0.60000	  0	 26	 87	 68	  1	
24-Apr-2013	sub2329	2329	  2	  0	142	  5	  2	  1	  5	  2	  1	  1	  1	0.31883	  1	0.60000	  0	 21	 60	 61	  1	
24-Apr-2013	sub2329	2329	  2	  0	143	  5	  2	  5	  1	  4	  0	  1	  0	0.41621	  1	0.60000	  0	 25	 67	 88	  1	
24-Apr-2013	sub2329	2329	  2	  0	144	  5	  2	  2	  6	  6	  1	  2	  1	0.42276	  1	0.60000	  0	 22	 60	 61	  1	
24-Apr-2013	sub2329	2329	  2	  0	145	  5	  2	  1	  5	  2	  1	  2	  0	0.42911	  0	0.60000	  0	 21	 80	 81	  1	
24-Apr-2013	sub2329	2329	  2	  0	146	  5	  2	  3	  2	  6	  1	  2	  0	1.40428	  0	0.60000	  1	 23	 82	 51	  0	
24-Apr-2013	sub2329	2329	  2	  0	147	  5	  2	  6	  3	  1	  0	  1	  1	0.53414	  0	0.70000	  0	 26	 87	 68	  0	
24-Apr-2013	sub2329	2329	  2	  0	148	  5	  2	  6	  3	  1	  1	  1	  0	0.53496	  0	0.70000	  0	 26	 85	 86	  0	
24-Apr-2013	sub2329	2329	  2	  0	149	  5	  2	  1	  5	  2	  1	  1	  1	0.58178	  1	0.70000	  0	 21	 60	 61	  0	
24-Apr-2013	sub2329	2329	  2	  0	150	  5	  2	  5	  1	  4	  0	  2	  1	0.42242	  0	0.70000	  0	 25	 87	 68	  1	
24-Apr-2013	sub2329	2329	  2	  0	  1	  6	  1	  5	  5	  4	  0	  2	  1	0.50762	  0	0.60000	  0	 15	 47	 38	  0	
24-Apr-2013	sub2329	2329	  2	  0	  2	  6	  1	  2	  6	  3	  1	  2	  1	0.62103	  1	0.30000	  1	 12	 30	 51	  0	
24-Apr-2013	sub2329	2329	  2	  0	  3	  6	  1	  1	  3	  5	  1	  2	  0	0.31969	  0	0.90000	  0	 11	 40	 41	  1	
24-Apr-2013	sub2329	2329	  2	  0	  4	  6	  1	  4	  4	  4	  1	  2	  1	0.46069	  1	0.90000	  0	 14	 32	 33	  1	
24-Apr-2013	sub2329	2329	  2	  0	  5	  6	  1	  2	  6	  3	  1	  2	  1	0.39583	  1	0.90000	  0	 12	 30	 31	  1	
24-Apr-2013	sub2329	2329	  2	  0	  6	  6	  1	  4	  4	  4	  1	  2	  1	0.48380	  1	0.90000	  0	 14	 32	 33	  1	
24-Apr-2013	sub2329	2329	  2	  0	  7	  6	  1	  2	  6	  3	  1	  2	  1	0.42417	  1	0.90000	  0	 12	 30	 31	  1	
24-Apr-2013	sub2329	2329	  2	  0	  8	  6	  1	  6	  1	  1	  0	  2	  0	0.57096	  1	0.90000	  0	 16	 37	 48	  0	
24-Apr-2013	sub2329	2329	  2	  0	  9	  6	  1	  2	  6	  3	  1	  2	  1	0.51408	  1	0.90000	  0	 12	 30	 31	  0	
24-Apr-2013	sub2329	2329	  2	  0	 10	  6	  1	  6	  1	  1	  0	  1	  1	0.60090	  0	0.90000	  0	 16	 47	 38	  0	
24-Apr-2013	sub2329	2329	  2	  0	 11	  6	  1	  4	  4	  4	  1	  2	  1	0.65051	  1	0.90000	  0	 14	 32	 33	  0	
24-Apr-2013	sub2329	2329	  2	  0	 12	  6	  1	  1	  3	  5	  1	  1	  1	0.55584	  1	0.90000	  0	 11	 30	 31	  0	
24-Apr-2013	sub2329	2329	  2	  0	 13	  6	  1	  6	  1	  1	  1	  2	  1	0.52502	  1	0.90000	  0	 16	 35	 36	  0	
24-Apr-2013	sub2329	2329	  2	  0	 14	  6	  1	  6	  1	  1	  1	  2	  1	0.43070	  1	0.90000	  0	 16	 35	 36	  1	
24-Apr-2013	sub2329	2329	  2	  0	 15	  6	  1	  3	  2	  1	  0	  2	  1	0.56974	  0	0.90000	  0	 13	 44	 39	  0	
24-Apr-2013	sub2329	2329	  2	  0	 16	  6	  1	  3	  2	  1	  1	  2	  0	0.42902	  0	0.80000	  0	 13	 42	 43	  1	
24-Apr-2013	sub2329	2329	  2	  0	 17	  6	  1	  4	  4	  4	  1	  2	  1	0.51053	  1	0.80000	  0	 14	 32	 33	  0	
24-Apr-2013	sub2329	2329	  2	  0	 18	  6	  1	  5	  5	  4	  0	  2	  1	0.62000	  0	0.70000	  0	 15	 47	 38	  0	
24-Apr-2013	sub2329	2329	  2	  0	 19	  6	  1	  1	  3	  5	  1	  1	  1	0.50447	  1	0.70000	  0	 11	 30	 31	  0	
24-Apr-2013	sub2329	2329	  2	  0	 20	  6	  1	  4	  4	  4	  1	  2	  1	0.54434	  1	0.70000	  0	 14	 32	 33	  0	
24-Apr-2013	sub2329	2329	  2	  0	 21	  6	  1	  6	  1	  1	  0	  1	  1	0.53469	  0	0.60000	  0	 16	 47	 38	  0	
24-Apr-2013	sub2329	2329	  2	  0	 22	  6	  1	  3	  2	  1	  0	  2	  1	0.49002	  0	0.60000	  0	 13	 44	 39	  1	
24-Apr-2013	sub2329	2329	  2	  0	 23	  6	  1	  5	  5	  4	  1	  2	  0	0.57709	  0	0.60000	  0	 15	 45	 46	  0	
24-Apr-2013	sub2329	2329	  2	  0	 24	  6	  1	  3	  2	  1	  1	  2	  0	0.45423	  0	0.60000	  0	 13	 42	 43	  1	
24-Apr-2013	sub2329	2329	  2	  0	 25	  6	  1	  6	  1	  1	  1	  1	  0	0.53936	  0	0.60000	  0	 16	 45	 46	  0	
24-Apr-2013	sub2329	2329	  2	  0	 26	  6	  1	  4	  4	  4	  0	  2	  0	0.55926	  1	0.50000	  1	 14	 34	 51	  0	
24-Apr-2013	sub2329	2329	  2	  0	 27	  6	  1	  5	  5	  4	  1	  1	  1	0.55844	  1	0.90000	  0	 15	 35	 36	  0	
24-Apr-2013	sub2329	2329	  2	  0	 28	  6	  1	  4	  4	  4	  1	  2	  1	0.39365	  1	0.90000	  0	 14	 32	 33	  1	
24-Apr-2013	sub2329	2329	  2	  0	 29	  6	  1	  3	  2	  1	  1	  2	  0	0.41497	  0	0.90000	  0	 13	 42	 43	  1	
24-Apr-2013	sub2329	2329	  2	  0	 30	  6	  1	  5	  5	  4	  0	  1	  0	0.42033	  1	0.80000	  0	 15	 37	 48	  1	
24-Apr-2013	sub2329	2329	  2	  0	 31	  6	  1	  6	  1	  1	  1	  2	  1	0.40874	  1	0.80000	  0	 16	 35	 36	  1	
24-Apr-2013	sub2329	2329	  2	  0	 32	  6	  1	  3	  2	  1	  1	  2	  0	0.51065	  0	0.80000	  0	 13	 42	 43	  0	
24-Apr-2013	sub2329	2329	  2	  0	 33	  6	  1	  3	  2	  1	  1	  2	  0	0.34270	  0	0.80000	  0	 13	 42	 43	  1	
24-Apr-2013	sub2329	2329	  2	  0	 34	  6	  1	  1	  3	  5	  1	  1	  1	0.52937	  1	0.80000	  0	 11	 30	 31	  0	
24-Apr-2013	sub2329	2329	  2	  0	 35	  6	  1	  4	  4	  4	  1	  2	  1	0.59894	  1	0.70000	  0	 14	 32	 33	  0	
24-Apr-2013	sub2329	2329	  2	  0	 36	  6	  1	  2	  6	  3	  1	  2	  1	0.64336	  1	0.70000	  0	 12	 30	 31	  0	
24-Apr-2013	sub2329	2329	  2	  0	 37	  6	  1	  3	  2	  1	  1	  2	  0	0.45533	  0	0.70000	  0	 13	 42	 43	  1	
24-Apr-2013	sub2329	2329	  2	  0	 38	  6	  1	  6	  1	  1	  1	  1	  0	0.58738	  0	0.70000	  0	 16	 45	 46	  0	
24-Apr-2013	sub2329	2329	  2	  0	 39	  6	  1	  1	  3	  5	  1	  1	  1	0.51601	  1	0.70000	  0	 11	 30	 31	  0	
24-Apr-2013	sub2329	2329	  2	  0	 40	  6	  1	  3	  2	  1	  1	  1	  1	0.38768	  1	0.70000	  0	 13	 32	 33	  1	
24-Apr-2013	sub2329	2329	  2	  0	 41	  6	  1	  2	  6	  3	  1	  2	  1	0.62877	  1	0.60000	  1	 12	 30	 51	  0	
24-Apr-2013	sub2329	2329	  2	  0	 42	  6	  1	  4	  4	  4	  1	  2	  1	0.77155	  1	0.90000	  0	 14	 32	 33	  0	
24-Apr-2013	sub2329	2329	  2	  0	 43	  6	  1	  1	  3	  5	  1	  1	  1	0.52019	  1	0.90000	  0	 11	 30	 31	  0	
24-Apr-2013	sub2329	2329	  2	  0	 44	  6	  1	  5	  5	  4	  0	  2	  1	0.54537	  0	0.80000	  0	 15	 47	 38	  0	
24-Apr-2013	sub2329	2329	  2	  0	 45	  6	  1	  2	  6	  3	  1	  1	  0	0.39152	  0	0.80000	  0	 12	 40	 41	  1	
24-Apr-2013	sub2329	2329	  2	  0	 46	  6	  1	  2	  6	  3	  1	  1	  0	0.39716	  0	0.80000	  0	 12	 40	 41	  1	
24-Apr-2013	sub2329	2329	  2	  0	 47	  6	  1	  5	  5	  4	  0	  2	  1	0.62540	  0	0.80000	  0	 15	 47	 38	  0	
24-Apr-2013	sub2329	2329	  2	  0	 48	  6	  1	  3	  2	  1	  1	  1	  1	0.49914	  1	0.80000	  0	 13	 32	 33	  1	
24-Apr-2013	sub2329	2329	  2	  0	 49	  6	  1	  3	  2	  1	  1	  1	  1	0.51428	  1	0.80000	  0	 13	 32	 33	  0	
24-Apr-2013	sub2329	2329	  2	  0	 50	  6	  1	  3	  2	  1	  0	  1	  0	0.43376	  1	0.80000	  0	 13	 34	 49	  1	
24-Apr-2013	sub2329	2329	  2	  0	 51	  6	  1	  3	  2	  1	  1	  1	  1	0.47981	  1	0.70000	  0	 13	 32	 33	  1	
24-Apr-2013	sub2329	2329	  2	  0	 52	  6	  1	  1	  3	  5	  1	  1	  1	0.51701	  1	0.70000	  0	 11	 30	 31	  0	
24-Apr-2013	sub2329	2329	  2	  0	 53	  6	  1	  2	  6	  3	  1	  2	  1	0.48014	  1	0.70000	  0	 12	 30	 31	  1	
24-Apr-2013	sub2329	2329	  2	  0	 54	  6	  1	  2	  6	  3	  1	  2	  1	0.40523	  1	0.70000	  0	 12	 30	 31	  1	
24-Apr-2013	sub2329	2329	  2	  0	 55	  6	  1	  2	  6	  3	  1	  2	  1	0.38786	  1	0.70000	  0	 12	 30	 31	  1	
24-Apr-2013	sub2329	2329	  2	  0	 56	  6	  1	  4	  4	  4	  1	  2	  1	0.72371	  1	0.70000	  1	 14	 32	 51	  0	
24-Apr-2013	sub2329	2329	  2	  0	 57	  6	  1	  1	  3	  5	  1	  1	  1	0.60583	  1	0.90000	  0	 11	 30	 31	  0	
24-Apr-2013	sub2329	2329	  2	  0	 58	  6	  1	  2	  6	  3	  1	  2	  1	0.51004	  1	0.90000	  0	 12	 30	 31	  0	
24-Apr-2013	sub2329	2329	  2	  0	 59	  6	  1	  5	  5	  4	  1	  2	  0	0.48332	  0	0.80000	  0	 15	 45	 46	  1	
24-Apr-2013	sub2329	2329	  2	  0	 60	  6	  1	  6	  1	  1	  0	  1	  1	0.53437	  0	0.80000	  0	 16	 47	 38	  0	
24-Apr-2013	sub2329	2329	  2	  0	 61	  6	  1	  5	  5	  4	  1	  2	  0	0.59351	  0	0.80000	  0	 15	 45	 46	  0	
24-Apr-2013	sub2329	2329	  2	  0	 62	  6	  1	  5	  5	  4	  1	  2	  0	0.40292	  0	0.80000	  0	 15	 45	 46	  1	
24-Apr-2013	sub2329	2329	  2	  0	 63	  6	  1	  5	  5	  4	  1	  1	  1	0.39319	  1	0.80000	  0	 15	 35	 36	  1	
24-Apr-2013	sub2329	2329	  2	  0	 64	  6	  1	  5	  5	  4	  0	  1	  0	0.46305	  1	0.80000	  0	 15	 37	 48	  1	
24-Apr-2013	sub2329	2329	  2	  0	 65	  6	  1	  6	  1	  1	  1	  1	  0	0.57259	  0	0.80000	  0	 16	 45	 46	  0	
24-Apr-2013	sub2329	2329	  2	  0	 66	  6	  1	  4	  4	  4	  0	  2	  0	0.51157	  1	0.80000	  0	 14	 34	 49	  0	
24-Apr-2013	sub2329	2329	  2	  0	 67	  6	  1	  6	  1	  1	  0	  2	  0	0.39069	  1	0.80000	  0	 16	 37	 48	  1	
24-Apr-2013	sub2329	2329	  2	  0	 68	  6	  1	  6	  1	  1	  0	  2	  0	0.37446	  1	0.70000	  0	 16	 37	 48	  1	
24-Apr-2013	sub2329	2329	  2	  0	 69	  6	  1	  1	  3	  5	  1	  1	  1	0.46022	  1	0.70000	  0	 11	 30	 31	  1	
24-Apr-2013	sub2329	2329	  2	  0	 70	  6	  1	  1	  3	  5	  1	  1	  1	0.44006	  1	0.70000	  0	 11	 30	 31	  1	
24-Apr-2013	sub2329	2329	  2	  0	 71	  6	  1	  1	  3	  5	  1	  1	  1	0.40920	  1	0.70000	  0	 11	 30	 31	  1	
24-Apr-2013	sub2329	2329	  2	  0	 72	  6	  1	  6	  1	  1	  0	  1	  1	0.65075	  0	0.70000	  0	 16	 47	 38	  0	
24-Apr-2013	sub2329	2329	  2	  0	 73	  6	  1	  1	  3	  5	  1	  1	  1	0.49530	  1	0.70000	  0	 11	 30	 31	  1	
24-Apr-2013	sub2329	2329	  2	  0	 74	  6	  1	  2	  6	  3	  1	  2	  1	0.54487	  1	0.70000	  0	 12	 30	 31	  0	
24-Apr-2013	sub2329	2329	  2	  0	 75	  6	  1	  4	  4	  4	  1	  2	  1	0.41623	  1	0.70000	  0	 14	 32	 33	  1	
24-Apr-2013	sub2329	2329	  2	  0	 76	  6	  2	  4	  4	  4	  1	  2	  1	0.43965	  1	0.70000	  0	 24	 62	 63	  1	
24-Apr-2013	sub2329	2329	  2	  0	 77	  6	  2	  5	  5	  4	  0	  2	  1	0.69787	  0	0.70000	  0	 25	 87	 68	  0	
24-Apr-2013	sub2329	2329	  2	  0	 78	  6	  2	  5	  5	  4	  0	  2	  1	0.42977	  0	0.70000	  0	 25	 87	 68	  1	
24-Apr-2013	sub2329	2329	  2	  0	 79	  6	  2	  2	  6	  3	  1	  1	  0	0.49907	  0	0.70000	  0	 22	 80	 81	  1	
24-Apr-2013	sub2329	2329	  2	  0	 80	  6	  2	  2	  6	  3	  1	  2	  1	0.40607	  1	0.70000	  0	 22	 60	 61	  1	
24-Apr-2013	sub2329	2329	  2	  0	 81	  6	  2	  5	  5	  4	  0	  2	  1	0.46591	  0	0.60000	  0	 25	 87	 68	  1	
24-Apr-2013	sub2329	2329	  2	  0	 82	  6	  2	  6	  1	  1	  0	  1	  1	0.48074	  0	0.60000	  0	 26	 87	 68	  1	
24-Apr-2013	sub2329	2329	  2	  0	 83	  6	  2	  1	  3	  5	  1	  1	  1	0.45897	  1	0.60000	  0	 21	 60	 61	  1	
24-Apr-2013	sub2329	2329	  2	  0	 84	  6	  2	  6	  1	  1	  0	  1	  1	0.44305	  0	0.60000	  0	 26	 87	 68	  1	
24-Apr-2013	sub2329	2329	  2	  0	 85	  6	  2	  6	  1	  1	  1	  1	  0	0.42585	  0	0.60000	  0	 26	 85	 86	  1	
24-Apr-2013	sub2329	2329	  2	  0	 86	  6	  2	  2	  6	  3	  1	  2	  1	0.59254	  1	0.60000	  0	 22	 60	 61	  0	
24-Apr-2013	sub2329	2329	  2	  0	 87	  6	  2	  1	  3	  5	  1	  1	  1	0.57506	  1	0.60000	  0	 21	 60	 61	  0	
24-Apr-2013	sub2329	2329	  2	  0	 88	  6	  2	  2	  6	  3	  1	  1	  0	0.57403	  0	0.60000	  0	 22	 80	 81	  0	
24-Apr-2013	sub2329	2329	  2	  0	 89	  6	  2	  3	  2	  1	  1	  1	  1	0.83066	  1	0.60000	  1	 23	 62	 51	  0	
24-Apr-2013	sub2329	2329	  2	  0	 90	  6	  2	  3	  2	  1	  1	  1	  1	0.53471	  1	0.70000	  0	 23	 62	 63	  0	
24-Apr-2013	sub2329	2329	  2	  0	 91	  6	  2	  5	  5	  4	  0	  2	  1	0.57536	  0	0.70000	  0	 25	 87	 68	  0	
24-Apr-2013	sub2329	2329	  2	  0	 92	  6	  2	  6	  1	  1	  0	  1	  1	0.47171	  0	0.70000	  0	 26	 87	 68	  1	
24-Apr-2013	sub2329	2329	  2	  0	 93	  6	  2	  1	  3	  5	  1	  1	  1	0.32993	  1	0.70000	  0	 21	 60	 61	  1	
24-Apr-2013	sub2329	2329	  2	  0	 94	  6	  2	  1	  3	  5	  1	  1	  1	0.45050	  1	0.70000	  0	 21	 60	 61	  1	
24-Apr-2013	sub2329	2329	  2	  0	 95	  6	  2	  4	  4	  4	  1	  2	  1	0.52510	  1	0.70000	  0	 24	 62	 63	  0	
24-Apr-2013	sub2329	2329	  2	  0	 96	  6	  2	  2	  6	  3	  1	  1	  0	0.50348	  0	0.70000	  0	 22	 80	 81	  0	
24-Apr-2013	sub2329	2329	  2	  0	 97	  6	  2	  1	  3	  5	  1	  1	  1	0.52989	  1	0.70000	  0	 21	 60	 61	  0	
24-Apr-2013	sub2329	2329	  2	  0	 98	  6	  2	  3	  2	  1	  1	  2	  0	0.58600	  0	0.70000	  0	 23	 82	 83	  0	
24-Apr-2013	sub2329	2329	  2	  0	 99	  6	  2	  2	  6	  3	  1	  1	  0	0.48294	  0	0.70000	  0	 22	 80	 81	  1	
24-Apr-2013	sub2329	2329	  2	  0	100	  6	  2	  4	  4	  4	  1	  2	  1	0.48914	  1	0.70000	  0	 24	 62	 63	  1	
24-Apr-2013	sub2329	2329	  2	  0	101	  6	  2	  6	  1	  1	  1	  2	  1	0.44908	  1	0.60000	  0	 26	 65	 66	  1	
24-Apr-2013	sub2329	2329	  2	  0	102	  6	  2	  1	  3	  5	  1	  1	  1	0.47884	  1	0.60000	  0	 21	 60	 61	  1	
24-Apr-2013	sub2329	2329	  2	  0	103	  6	  2	  4	  4	  4	  0	  2	  0	0.52034	  1	0.60000	  0	 24	 64	 89	  0	
24-Apr-2013	sub2329	2329	  2	  0	104	  6	  2	  5	  5	  4	  0	  2	  1	0.55205	  0	0.60000	  0	 25	 87	 68	  0	
24-Apr-2013	sub2329	2329	  2	  0	105	  6	  2	  6	  1	  1	  0	  1	  1	0.55387	  0	0.60000	  0	 26	 87	 68	  0	
24-Apr-2013	sub2329	2329	  2	  0	106	  6	  2	  1	  3	  5	  1	  1	  1	0.53729	  1	0.60000	  0	 21	 60	 61	  0	
24-Apr-2013	sub2329	2329	  2	  0	107	  6	  2	  3	  2	  1	  1	  1	  1	0.54166	  1	0.60000	  0	 23	 62	 63	  0	
24-Apr-2013	sub2329	2329	  2	  0	108	  6	  2	  3	  2	  1	  1	  1	  1	0.59748	  1	0.60000	  0	 23	 62	 63	  0	
24-Apr-2013	sub2329	2329	  2	  0	109	  6	  2	  6	  1	  1	  0	  1	  1	0.50119	  0	0.60000	  0	 26	 87	 68	  0	
24-Apr-2013	sub2329	2329	  2	  0	110	  6	  2	  4	  4	  4	  1	  2	  1	0.48483	  1	0.60000	  0	 24	 62	 63	  1	
24-Apr-2013	sub2329	2329	  2	  0	111	  6	  2	  1	  3	  5	  1	  1	  1	0.50693	  1	0.60000	  0	 21	 60	 61	  0	
24-Apr-2013	sub2329	2329	  2	  0	112	  6	  2	  4	  4	  4	  1	  2	  1	0.51224	  1	0.60000	  0	 24	 62	 63	  0	
24-Apr-2013	sub2329	2329	  2	  0	113	  6	  2	  4	  4	  4	  0	  2	  0	0.55986	  1	0.60000	  0	 24	 64	 89	  0	
24-Apr-2013	sub2329	2329	  2	  0	114	  6	  2	  2	  6	  3	  1	  2	  1	0.57284	  1	0.60000	  0	 22	 60	 61	  0	
24-Apr-2013	sub2329	2329	  2	  0	115	  6	  2	  2	  6	  3	  1	  2	  1	0.52339	  1	0.60000	  0	 22	 60	 61	  0	
24-Apr-2013	sub2329	2329	  2	  0	116	  6	  2	  6	  1	  1	  1	  2	  1	0.52051	  1	0.60000	  0	 26	 65	 66	  0	
24-Apr-2013	sub2329	2329	  2	  0	117	  6	  2	  1	  3	  5	  1	  1	  1	0.52011	  1	0.60000	  0	 21	 60	 61	  0	
24-Apr-2013	sub2329	2329	  2	  0	118	  6	  2	  2	  6	  3	  1	  2	  1	0.54290	  1	0.60000	  0	 22	 60	 61	  0	
24-Apr-2013	sub2329	2329	  2	  0	119	  6	  2	  3	  2	  1	  0	  1	  0	0.55504	  1	0.60000	  0	 23	 64	 89	  0	
24-Apr-2013	sub2329	2329	  2	  0	120	  6	  2	  6	  1	  1	  0	  1	  1	0.49291	  0	0.60000	  0	 26	 87	 68	  1	
24-Apr-2013	sub2329	2329	  2	  0	121	  6	  2	  1	  3	  5	  1	  1	  1	0.46409	  1	0.60000	  0	 21	 60	 61	  1	
24-Apr-2013	sub2329	2329	  2	  0	122	  6	  2	  1	  3	  5	  1	  1	  1	0.49321	  1	0.60000	  0	 21	 60	 61	  1	
24-Apr-2013	sub2329	2329	  2	  0	123	  6	  2	  4	  4	  4	  1	  2	  1	0.55206	  1	0.60000	  0	 24	 62	 63	  0	
24-Apr-2013	sub2329	2329	  2	  0	124	  6	  2	  2	  6	  3	  1	  2	  1	0.44320	  1	0.60000	  0	 22	 60	 61	  1	
24-Apr-2013	sub2329	2329	  2	  0	125	  6	  2	  5	  5	  4	  0	  2	  1	0.61119	  0	0.60000	  1	 25	 87	 51	  0	
24-Apr-2013	sub2329	2329	  2	  0	126	  6	  2	  4	  4	  4	  1	  1	  0	0.46036	  0	0.60000	  0	 24	 82	 83	  1	
24-Apr-2013	sub2329	2329	  2	  0	127	  6	  2	  5	  5	  4	  0	  1	  0	0.44930	  1	0.60000	  0	 25	 67	 88	  1	
24-Apr-2013	sub2329	2329	  2	  0	128	  6	  2	  5	  5	  4	  0	  2	  1	0.34821	  0	0.60000	  0	 25	 87	 68	  1	
24-Apr-2013	sub2329	2329	  2	  0	129	  6	  2	  3	  2	  1	  1	  1	  1	0.58721	  1	0.60000	  0	 23	 62	 63	  0	
24-Apr-2013	sub2329	2329	  2	  0	130	  6	  2	  2	  6	  3	  1	  2	  1	0.49925	  1	0.60000	  0	 22	 60	 61	  1	
24-Apr-2013	sub2329	2329	  2	  0	131	  6	  2	  5	  5	  4	  0	  2	  1	0.46566	  0	0.60000	  0	 25	 87	 68	  1	
24-Apr-2013	sub2329	2329	  2	  0	132	  6	  2	  3	  2	  1	  1	  1	  1	0.54825	  1	0.60000	  0	 23	 62	 63	  0	
24-Apr-2013	sub2329	2329	  2	  0	133	  6	  2	  6	  1	  1	  1	  1	  0	0.51009	  0	0.60000	  0	 26	 85	 86	  0	
24-Apr-2013	sub2329	2329	  2	  0	134	  6	  2	  5	  5	  4	  0	  2	  1	0.49962	  0	0.60000	  0	 25	 87	 68	  1	
24-Apr-2013	sub2329	2329	  2	  0	135	  6	  2	  1	  3	  5	  1	  1	  1	0.34589	  1	0.60000	  0	 21	 60	 61	  1	
24-Apr-2013	sub2329	2329	  2	  0	136	  6	  2	  4	  4	  4	  1	  1	  0	0.40995	  0	0.60000	  0	 24	 82	 83	  1	
24-Apr-2013	sub2329	2329	  2	  0	137	  6	  2	  6	  1	  1	  1	  1	  0	0.42155	  0	0.60000	  0	 26	 85	 86	  1	
24-Apr-2013	sub2329	2329	  2	  0	138	  6	  2	  3	  2	  1	  1	  1	  1	0.56596	  1	0.60000	  0	 23	 62	 63	  0	
24-Apr-2013	sub2329	2329	  2	  0	139	  6	  2	  4	  4	  4	  1	  2	  1	0.49377	  1	0.60000	  0	 24	 62	 63	  1	
24-Apr-2013	sub2329	2329	  2	  0	140	  6	  2	  3	  2	  1	  1	  1	  1	0.59139	  1	0.60000	  0	 23	 62	 63	  0	
24-Apr-2013	sub2329	2329	  2	  0	141	  6	  2	  3	  2	  1	  1	  1	  1	0.45255	  1	0.60000	  0	 23	 62	 63	  1	
24-Apr-2013	sub2329	2329	  2	  0	142	  6	  2	  1	  3	  5	  1	  1	  1	0.56999	  1	0.60000	  0	 21	 60	 61	  0	
24-Apr-2013	sub2329	2329	  2	  0	143	  6	  2	  5	  5	  4	  0	  2	  1	0.50197	  0	0.60000	  0	 25	 87	 68	  0	
24-Apr-2013	sub2329	2329	  2	  0	144	  6	  2	  4	  4	  4	  1	  1	  0	0.56631	  0	0.60000	  0	 24	 82	 83	  0	
24-Apr-2013	sub2329	2329	  2	  0	145	  6	  2	  5	  5	  4	  0	  2	  1	0.63455	  0	0.60000	  1	 25	 87	 51	  0	
24-Apr-2013	sub2329	2329	  2	  0	146	  6	  2	  6	  1	  1	  1	  1	  0	0.42947	  0	0.60000	  0	 26	 85	 86	  1	
24-Apr-2013	sub2329	2329	  2	  0	147	  6	  2	  4	  4	  4	  0	  2	  0	0.47265	  1	0.60000	  0	 24	 64	 89	  1	
24-Apr-2013	sub2329	2329	  2	  0	148	  6	  2	  5	  5	  4	  0	  2	  1	0.42942	  0	0.60000	  0	 25	 87	 68	  1	
24-Apr-2013	sub2329	2329	  2	  0	149	  6	  2	  2	  6	  3	  1	  2	  1	0.44708	  1	0.60000	  0	 22	 60	 61	  1	
24-Apr-2013	sub2329	2329	  2	  0	150	  6	  2	  3	  2	  1	  0	  2	  1	0.46329	  0	0.60000	  0	 23	 84	 69	  1	
