Date 	 Name 	 ID 	 Gender 	 Appearance 	 Trial 	 Block 	 Bin 	 Condition 	 Category 	 Number 	 Valid 	 Keypress 	 Correct 	 RT 	 Realcorrect 	 Deadline 	 Timeout 	 Stimtrigger 	 Resptrigger 	 Fedtrigger 	 WithinTime 	 
25-Apr-2013	sub2330	2330	  1	  0	  1	  1	  1	  1	  3	  5	  1	  1	  1	0.70844	  1	0.60000	  1	 11	 30	 51	  0	
25-Apr-2013	sub2330	2330	  1	  0	  2	  1	  1	  3	  1	  5	  1	  1	  1	0.31036	  1	0.90000	  0	 13	 32	 33	  1	
25-Apr-2013	sub2330	2330	  1	  0	  3	  1	  1	  1	  3	  5	  1	  2	  0	0.28576	  0	0.90000	  0	 11	 40	 41	  1	
25-Apr-2013	sub2330	2330	  1	  0	  4	  1	  1	  5	  4	  3	  0	  1	  0	0.42852	  1	0.90000	  0	 15	 37	 48	  1	
25-Apr-2013	sub2330	2330	  1	  0	  5	  1	  1	  1	  3	  5	  1	  1	  1	0.36548	  1	0.90000	  0	 11	 30	 31	  1	
25-Apr-2013	sub2330	2330	  1	  0	  6	  1	  1	  2	  5	  4	  1	  2	  1	0.43166	  1	0.90000	  0	 12	 30	 31	  1	
25-Apr-2013	sub2330	2330	  1	  0	  7	  1	  1	  1	  3	  5	  1	  2	  0	0.42104	  0	0.90000	  0	 11	 40	 41	  1	
25-Apr-2013	sub2330	2330	  1	  0	  8	  1	  1	  5	  4	  3	  1	  2	  0	0.53565	  0	0.90000	  0	 15	 45	 46	  0	
25-Apr-2013	sub2330	2330	  1	  0	  9	  1	  1	  3	  1	  5	  1	  1	  1	0.54872	  1	0.90000	  0	 13	 32	 33	  0	
25-Apr-2013	sub2330	2330	  1	  0	 10	  1	  1	  5	  4	  3	  1	  2	  0	0.42614	  0	0.90000	  0	 15	 45	 46	  1	
25-Apr-2013	sub2330	2330	  1	  0	 11	  1	  1	  6	  2	  5	  1	  2	  1	0.58141	  1	0.90000	  0	 16	 35	 36	  0	
25-Apr-2013	sub2330	2330	  1	  0	 12	  1	  1	  5	  4	  3	  0	  1	  0	0.28510	  1	0.90000	  0	 15	 37	 48	  1	
25-Apr-2013	sub2330	2330	  1	  0	 13	  1	  1	  4	  6	  4	  1	  1	  0	0.47368	  0	0.90000	  0	 14	 42	 43	  1	
25-Apr-2013	sub2330	2330	  1	  0	 14	  1	  1	  4	  6	  4	  1	  2	  1	0.24556	  1	0.90000	  0	 14	 32	 33	  1	
25-Apr-2013	sub2330	2330	  1	  0	 15	  1	  1	  3	  1	  5	  0	  2	  1	0.41463	  0	0.90000	  0	 13	 44	 39	  1	
25-Apr-2013	sub2330	2330	  1	  0	 16	  1	  1	  1	  3	  5	  1	  1	  1	0.56826	  1	0.80000	  0	 11	 30	 31	  0	
25-Apr-2013	sub2330	2330	  1	  0	 17	  1	  1	  3	  1	  5	  1	  2	  0	0.51391	  0	0.80000	  0	 13	 42	 43	  0	
25-Apr-2013	sub2330	2330	  1	  0	 18	  1	  1	  5	  4	  3	  1	  2	  0	0.69729	  0	0.70000	  0	 15	 45	 46	  0	
25-Apr-2013	sub2330	2330	  1	  0	 19	  1	  1	  1	  3	  5	  1	  1	  1	0.29788	  1	0.70000	  0	 11	 30	 31	  1	
25-Apr-2013	sub2330	2330	  1	  0	 20	  1	  1	  2	  5	  4	  1	  2	  1	1.15545	  1	0.70000	  1	 12	 30	 51	  0	
25-Apr-2013	sub2330	2330	  1	  0	 21	  1	  1	  3	  1	  5	  0	  1	  0	0.69762	  1	0.90000	  0	 13	 34	 49	  0	
25-Apr-2013	sub2330	2330	  1	  0	 22	  1	  1	  1	  3	  5	  1	  1	  1	0.56033	  1	0.90000	  0	 11	 30	 31	  0	
25-Apr-2013	sub2330	2330	  1	  0	 23	  1	  1	  6	  2	  5	  1	  2	  1	0.41629	  1	0.90000	  0	 16	 35	 36	  1	
25-Apr-2013	sub2330	2330	  1	  0	 24	  1	  1	  2	  5	  4	  1	  1	  0	0.38711	  0	0.90000	  0	 12	 40	 41	  1	
25-Apr-2013	sub2330	2330	  1	  0	 25	  1	  1	  4	  6	  4	  0	  2	  0	0.54912	  1	0.90000	  0	 14	 34	 49	  0	
25-Apr-2013	sub2330	2330	  1	  0	 26	  1	  1	  2	  5	  4	  1	  2	  1	0.55766	  1	0.90000	  0	 12	 30	 31	  0	
25-Apr-2013	sub2330	2330	  1	  0	 27	  1	  1	  2	  5	  4	  1	  2	  1	0.46209	  1	0.90000	  0	 12	 30	 31	  1	
25-Apr-2013	sub2330	2330	  1	  0	 28	  1	  1	  1	  3	  5	  1	  1	  1	0.46236	  1	0.90000	  0	 11	 30	 31	  1	
25-Apr-2013	sub2330	2330	  1	  0	 29	  1	  1	  6	  2	  5	  0	  2	  0	0.56875	  1	0.90000	  0	 16	 37	 48	  0	
25-Apr-2013	sub2330	2330	  1	  0	 30	  1	  1	  4	  6	  4	  1	  2	  1	0.60647	  1	0.80000	  0	 14	 32	 33	  0	
25-Apr-2013	sub2330	2330	  1	  0	 31	  1	  1	  1	  3	  5	  1	  1	  1	0.41975	  1	0.80000	  0	 11	 30	 31	  1	
25-Apr-2013	sub2330	2330	  1	  0	 32	  1	  1	  2	  5	  4	  1	  2	  1	0.53578	  1	0.80000	  0	 12	 30	 31	  0	
25-Apr-2013	sub2330	2330	  1	  0	 33	  1	  1	  5	  4	  3	  0	  2	  1	0.42648	  0	0.80000	  0	 15	 47	 38	  1	
25-Apr-2013	sub2330	2330	  1	  0	 34	  1	  1	  6	  2	  5	  0	  2	  0	0.54064	  1	0.80000	  0	 16	 37	 48	  0	
25-Apr-2013	sub2330	2330	  1	  0	 35	  1	  1	  6	  2	  5	  0	  2	  0	0.51854	  1	0.70000	  0	 16	 37	 48	  0	
25-Apr-2013	sub2330	2330	  1	  0	 36	  1	  1	  4	  6	  4	  1	  2	  1	0.62429	  1	0.70000	  0	 14	 32	 33	  0	
25-Apr-2013	sub2330	2330	  1	  0	 37	  1	  1	  2	  5	  4	  1	  2	  1	0.48839	  1	0.70000	  0	 12	 30	 31	  1	
25-Apr-2013	sub2330	2330	  1	  0	 38	  1	  1	  5	  4	  3	  1	  1	  1	0.61919	  1	0.70000	  0	 15	 35	 36	  0	
25-Apr-2013	sub2330	2330	  1	  0	 39	  1	  1	  5	  4	  3	  0	  1	  0	0.41319	  1	0.70000	  0	 15	 37	 48	  1	
25-Apr-2013	sub2330	2330	  1	  0	 40	  1	  1	  3	  1	  5	  1	  1	  1	0.75473	  1	0.70000	  1	 13	 32	 51	  0	
25-Apr-2013	sub2330	2330	  1	  0	 41	  1	  1	  4	  6	  4	  1	  2	  1	0.47267	  1	0.90000	  0	 14	 32	 33	  1	
25-Apr-2013	sub2330	2330	  1	  0	 42	  1	  1	  2	  5	  4	  1	  2	  1	0.40945	  1	0.90000	  0	 12	 30	 31	  1	
25-Apr-2013	sub2330	2330	  1	  0	 43	  1	  1	  3	  1	  5	  1	  2	  0	0.34441	  0	0.90000	  0	 13	 42	 43	  1	
25-Apr-2013	sub2330	2330	  1	  0	 44	  1	  1	  3	  1	  5	  1	  2	  0	0.34788	  0	0.80000	  0	 13	 42	 43	  1	
25-Apr-2013	sub2330	2330	  1	  0	 45	  1	  1	  4	  6	  4	  1	  1	  0	0.29172	  0	0.80000	  0	 14	 42	 43	  1	
25-Apr-2013	sub2330	2330	  1	  0	 46	  1	  1	  6	  2	  5	  1	  2	  1	0.34939	  1	0.80000	  0	 16	 35	 36	  1	
25-Apr-2013	sub2330	2330	  1	  0	 47	  1	  1	  2	  5	  4	  1	  2	  1	0.56112	  1	0.80000	  0	 12	 30	 31	  0	
25-Apr-2013	sub2330	2330	  1	  0	 48	  1	  1	  1	  3	  5	  1	  1	  1	0.56719	  1	0.80000	  0	 11	 30	 31	  0	
25-Apr-2013	sub2330	2330	  1	  0	 49	  1	  1	  5	  4	  3	  1	  2	  0	0.42636	  0	0.80000	  0	 15	 45	 46	  1	
25-Apr-2013	sub2330	2330	  1	  0	 50	  1	  1	  2	  5	  4	  1	  1	  0	0.28993	  0	0.80000	  0	 12	 40	 41	  1	
25-Apr-2013	sub2330	2330	  1	  0	 51	  1	  1	  3	  1	  5	  1	  2	  0	0.17908	  0	0.70000	  0	 13	 42	 43	  1	
25-Apr-2013	sub2330	2330	  1	  0	 52	  1	  1	  5	  4	  3	  1	  1	  1	0.31066	  1	0.70000	  0	 15	 35	 36	  1	
25-Apr-2013	sub2330	2330	  1	  0	 53	  1	  1	  1	  3	  5	  1	  2	  0	0.44666	  0	0.70000	  0	 11	 40	 41	  1	
25-Apr-2013	sub2330	2330	  1	  0	 54	  1	  1	  6	  2	  5	  0	  1	  1	0.27299	  0	0.70000	  0	 16	 47	 38	  1	
25-Apr-2013	sub2330	2330	  1	  0	 55	  1	  1	  6	  2	  5	  0	  2	  0	0.40768	  1	0.70000	  0	 16	 37	 48	  1	
25-Apr-2013	sub2330	2330	  1	  0	 56	  1	  1	  2	  5	  4	  1	  1	  0	0.33607	  0	0.70000	  0	 12	 40	 41	  1	
25-Apr-2013	sub2330	2330	  1	  0	 57	  1	  1	  4	  6	  4	  1	  2	  1	0.37437	  1	0.70000	  0	 14	 32	 33	  1	
25-Apr-2013	sub2330	2330	  1	  0	 58	  1	  1	  6	  2	  5	  0	  2	  0	0.57049	  1	0.70000	  0	 16	 37	 48	  0	
25-Apr-2013	sub2330	2330	  1	  0	 59	  1	  1	  5	  4	  3	  1	  1	  1	0.43254	  1	0.70000	  0	 15	 35	 36	  1	
25-Apr-2013	sub2330	2330	  1	  0	 60	  1	  1	  5	  4	  3	  0	  2	  1	0.45281	  0	0.70000	  0	 15	 47	 38	  1	
25-Apr-2013	sub2330	2330	  1	  0	 61	  1	  1	  4	  6	  4	  1	  2	  1	0.60090	  1	0.60000	  1	 14	 32	 51	  0	
25-Apr-2013	sub2330	2330	  1	  0	 62	  1	  1	  2	  5	  4	  1	  2	  1	0.55538	  1	0.80000	  0	 12	 30	 31	  0	
25-Apr-2013	sub2330	2330	  1	  0	 63	  1	  1	  4	  6	  4	  1	  2	  1	0.41429	  1	0.80000	  0	 14	 32	 33	  1	
25-Apr-2013	sub2330	2330	  1	  0	 64	  1	  1	  6	  2	  5	  1	  2	  1	0.59587	  1	0.80000	  0	 16	 35	 36	  0	
25-Apr-2013	sub2330	2330	  1	  0	 65	  1	  1	  3	  1	  5	  1	  1	  1	0.54801	  1	0.80000	  0	 13	 32	 33	  0	
25-Apr-2013	sub2330	2330	  1	  0	 66	  1	  1	  2	  5	  4	  1	  2	  1	0.53553	  1	0.80000	  0	 12	 30	 31	  0	
25-Apr-2013	sub2330	2330	  1	  0	 67	  1	  1	  4	  6	  4	  1	  2	  1	0.53016	  1	0.80000	  0	 14	 32	 33	  0	
25-Apr-2013	sub2330	2330	  1	  0	 68	  1	  1	  6	  2	  5	  1	  2	  1	0.42914	  1	0.70000	  0	 16	 35	 36	  1	
25-Apr-2013	sub2330	2330	  1	  0	 69	  1	  1	  6	  2	  5	  0	  2	  0	0.43229	  1	0.70000	  0	 16	 37	 48	  1	
25-Apr-2013	sub2330	2330	  1	  0	 70	  1	  1	  1	  3	  5	  1	  1	  1	0.43657	  1	0.70000	  0	 11	 30	 31	  1	
25-Apr-2013	sub2330	2330	  1	  0	 71	  1	  1	  4	  6	  4	  0	  2	  0	0.51808	  1	0.70000	  0	 14	 34	 49	  0	
25-Apr-2013	sub2330	2330	  1	  0	 72	  1	  1	  3	  1	  5	  1	  2	  0	0.60361	  0	0.70000	  0	 13	 42	 43	  0	
25-Apr-2013	sub2330	2330	  1	  0	 73	  1	  1	  3	  1	  5	  0	  2	  1	0.44601	  0	0.70000	  0	 13	 44	 39	  1	
25-Apr-2013	sub2330	2330	  1	  0	 74	  1	  1	  3	  1	  5	  1	  2	  0	0.40671	  0	0.70000	  0	 13	 42	 43	  1	
25-Apr-2013	sub2330	2330	  1	  0	 75	  1	  1	  6	  2	  5	  1	  1	  0	0.48395	  0	0.70000	  0	 16	 45	 46	  1	
25-Apr-2013	sub2330	2330	  1	  0	  1	  2	  1	  3	  2	  4	  1	  1	  1	0.54354	  1	0.60000	  0	 13	 32	 33	  0	
25-Apr-2013	sub2330	2330	  1	  0	  2	  2	  1	  3	  2	  4	  1	  1	  1	0.53013	  1	0.30000	  1	 13	 32	 51	  0	
25-Apr-2013	sub2330	2330	  1	  0	  3	  2	  1	  1	  5	  2	  1	  2	  0	0.42795	  0	0.90000	  0	 11	 40	 41	  1	
25-Apr-2013	sub2330	2330	  1	  0	  4	  2	  1	  1	  5	  2	  1	  2	  0	0.33687	  0	0.90000	  0	 11	 40	 41	  1	
25-Apr-2013	sub2330	2330	  1	  0	  5	  2	  1	  2	  6	  2	  1	  1	  0	0.40417	  0	0.90000	  0	 12	 40	 41	  1	
25-Apr-2013	sub2330	2330	  1	  0	  6	  2	  1	  2	  6	  2	  1	  1	  0	0.50636	  0	0.90000	  0	 12	 40	 41	  0	
25-Apr-2013	sub2330	2330	  1	  0	  7	  2	  1	  3	  2	  4	  1	  2	  0	0.55659	  0	0.90000	  0	 13	 42	 43	  0	
25-Apr-2013	sub2330	2330	  1	  0	  8	  2	  1	  1	  5	  2	  1	  1	  1	0.57516	  1	0.90000	  0	 11	 30	 31	  0	
25-Apr-2013	sub2330	2330	  1	  0	  9	  2	  1	  5	  4	  1	  1	  1	  1	0.58043	  1	0.90000	  0	 15	 35	 36	  0	
25-Apr-2013	sub2330	2330	  1	  0	 10	  2	  1	  4	  3	  4	  1	  2	  1	0.38087	  1	0.90000	  0	 14	 32	 33	  1	
25-Apr-2013	sub2330	2330	  1	  0	 11	  2	  1	  1	  5	  2	  1	  1	  1	0.36170	  1	0.90000	  0	 11	 30	 31	  1	
25-Apr-2013	sub2330	2330	  1	  0	 12	  2	  1	  2	  6	  2	  1	  2	  1	0.46016	  1	0.90000	  0	 12	 30	 31	  1	
25-Apr-2013	sub2330	2330	  1	  0	 13	  2	  1	  6	  1	  1	  1	  1	  0	0.50611	  0	0.90000	  0	 16	 45	 46	  0	
25-Apr-2013	sub2330	2330	  1	  0	 14	  2	  1	  6	  1	  1	  0	  1	  1	0.53901	  0	0.90000	  0	 16	 47	 38	  0	
25-Apr-2013	sub2330	2330	  1	  0	 15	  2	  1	  1	  5	  2	  1	  2	  0	0.53909	  0	0.90000	  0	 11	 40	 41	  0	
25-Apr-2013	sub2330	2330	  1	  0	 16	  2	  1	  6	  1	  1	  0	  1	  1	0.41794	  0	0.80000	  0	 16	 47	 38	  1	
25-Apr-2013	sub2330	2330	  1	  0	 17	  2	  1	  4	  3	  4	  1	  2	  1	0.43892	  1	0.80000	  0	 14	 32	 33	  1	
25-Apr-2013	sub2330	2330	  1	  0	 18	  2	  1	  3	  2	  4	  0	  1	  0	0.34866	  1	0.70000	  0	 13	 34	 49	  1	
25-Apr-2013	sub2330	2330	  1	  0	 19	  2	  1	  6	  1	  1	  0	  2	  0	0.30199	  1	0.70000	  0	 16	 37	 48	  1	
25-Apr-2013	sub2330	2330	  1	  0	 20	  2	  1	  1	  5	  2	  1	  1	  1	0.34253	  1	0.70000	  0	 11	 30	 31	  1	
25-Apr-2013	sub2330	2330	  1	  0	 21	  2	  1	  6	  1	  1	  1	  2	  1	0.34507	  1	0.60000	  0	 16	 35	 36	  1	
25-Apr-2013	sub2330	2330	  1	  0	 22	  2	  1	  4	  3	  4	  1	  1	  0	0.43799	  0	0.60000	  0	 14	 42	 43	  1	
25-Apr-2013	sub2330	2330	  1	  0	 23	  2	  1	  1	  5	  2	  1	  2	  0	0.49681	  0	0.60000	  0	 11	 40	 41	  1	
25-Apr-2013	sub2330	2330	  1	  0	 24	  2	  1	  4	  3	  4	  1	  1	  0	0.33731	  0	0.60000	  0	 14	 42	 43	  1	
25-Apr-2013	sub2330	2330	  1	  0	 25	  2	  1	  2	  6	  2	  1	  2	  1	0.49740	  1	0.60000	  0	 12	 30	 31	  1	
25-Apr-2013	sub2330	2330	  1	  0	 26	  2	  1	  5	  4	  1	  1	  1	  1	0.54841	  1	0.50000	  1	 15	 35	 51	  0	
25-Apr-2013	sub2330	2330	  1	  0	 27	  2	  1	  1	  5	  2	  1	  2	  0	0.44310	  0	0.90000	  0	 11	 40	 41	  1	
25-Apr-2013	sub2330	2330	  1	  0	 28	  2	  1	  5	  4	  1	  0	  1	  0	0.31517	  1	0.90000	  0	 15	 37	 48	  1	
25-Apr-2013	sub2330	2330	  1	  0	 29	  2	  1	  5	  4	  1	  0	  1	  0	0.39937	  1	0.90000	  0	 15	 37	 48	  1	
25-Apr-2013	sub2330	2330	  1	  0	 30	  2	  1	  5	  4	  1	  1	  2	  0	0.39576	  0	0.80000	  0	 15	 45	 46	  1	
25-Apr-2013	sub2330	2330	  1	  0	 31	  2	  1	  5	  4	  1	  1	  2	  0	0.45590	  0	0.80000	  0	 15	 45	 46	  1	
25-Apr-2013	sub2330	2330	  1	  0	 32	  2	  1	  3	  2	  4	  1	  2	  0	2.24587	  0	0.80000	  1	 13	 42	 51	  0	
25-Apr-2013	sub2330	2330	  1	  0	 33	  2	  1	  5	  4	  1	  1	  1	  1	0.95520	  1	0.90000	  1	 15	 35	 51	  0	
25-Apr-2013	sub2330	2330	  1	  0	 34	  2	  1	  1	  5	  2	  1	  2	  0	0.52271	  0	0.90000	  0	 11	 40	 41	  0	
25-Apr-2013	sub2330	2330	  1	  0	 35	  2	  1	  3	  2	  4	  1	  1	  1	0.46034	  1	0.90000	  0	 13	 32	 33	  1	
25-Apr-2013	sub2330	2330	  1	  0	 36	  2	  1	  1	  5	  2	  1	  1	  1	0.54891	  1	0.90000	  0	 11	 30	 31	  0	
25-Apr-2013	sub2330	2330	  1	  0	 37	  2	  1	  3	  2	  4	  1	  1	  1	0.48274	  1	0.90000	  0	 13	 32	 33	  1	
25-Apr-2013	sub2330	2330	  1	  0	 38	  2	  1	  5	  4	  1	  0	  2	  1	0.50333	  0	0.90000	  0	 15	 47	 38	  0	
25-Apr-2013	sub2330	2330	  1	  0	 39	  2	  1	  6	  1	  1	  0	  2	  0	0.40818	  1	0.90000	  0	 16	 37	 48	  1	
25-Apr-2013	sub2330	2330	  1	  0	 40	  2	  1	  1	  5	  2	  1	  1	  1	0.56534	  1	0.90000	  0	 11	 30	 31	  0	
25-Apr-2013	sub2330	2330	  1	  0	 41	  2	  1	  5	  4	  1	  1	  1	  1	0.54993	  1	0.90000	  0	 15	 35	 36	  0	
25-Apr-2013	sub2330	2330	  1	  0	 42	  2	  1	  5	  4	  1	  1	  1	  1	0.41264	  1	0.90000	  0	 15	 35	 36	  1	
25-Apr-2013	sub2330	2330	  1	  0	 43	  2	  1	  3	  2	  4	  0	  2	  1	0.52167	  0	0.90000	  0	 13	 44	 39	  0	
25-Apr-2013	sub2330	2330	  1	  0	 44	  2	  1	  5	  4	  1	  0	  1	  0	0.62922	  1	0.90000	  0	 15	 37	 48	  0	
25-Apr-2013	sub2330	2330	  1	  0	 45	  2	  1	  6	  1	  1	  0	  2	  0	0.46928	  1	0.90000	  0	 16	 37	 48	  1	
25-Apr-2013	sub2330	2330	  1	  0	 46	  2	  1	  1	  5	  2	  1	  1	  1	0.31091	  1	0.90000	  0	 11	 30	 31	  1	
25-Apr-2013	sub2330	2330	  1	  0	 47	  2	  1	  2	  6	  2	  1	  2	  1	0.51354	  1	0.90000	  0	 12	 30	 31	  0	
25-Apr-2013	sub2330	2330	  1	  0	 48	  2	  1	  6	  1	  1	  1	  1	  0	0.45581	  0	0.90000	  0	 16	 45	 46	  1	
25-Apr-2013	sub2330	2330	  1	  0	 49	  2	  1	  6	  1	  1	  1	  1	  0	0.56705	  0	0.90000	  0	 16	 45	 46	  0	
25-Apr-2013	sub2330	2330	  1	  0	 50	  2	  1	  4	  3	  4	  0	  1	  1	0.71271	  0	0.90000	  0	 14	 44	 39	  0	
25-Apr-2013	sub2330	2330	  1	  0	 51	  2	  1	  2	  6	  2	  1	  2	  1	0.47419	  1	0.90000	  0	 12	 30	 31	  1	
25-Apr-2013	sub2330	2330	  1	  0	 52	  2	  1	  4	  3	  4	  1	  1	  0	0.69159	  0	0.90000	  0	 14	 42	 43	  0	
25-Apr-2013	sub2330	2330	  1	  0	 53	  2	  1	  3	  2	  4	  1	  2	  0	0.44798	  0	0.90000	  0	 13	 42	 43	  1	
25-Apr-2013	sub2330	2330	  1	  0	 54	  2	  1	  2	  6	  2	  1	  1	  0	0.32093	  0	0.90000	  0	 12	 40	 41	  1	
25-Apr-2013	sub2330	2330	  1	  0	 55	  2	  1	  4	  3	  4	  1	  2	  1	0.24887	  1	0.90000	  0	 14	 32	 33	  1	
25-Apr-2013	sub2330	2330	  1	  0	 56	  2	  1	  5	  4	  1	  0	  1	  0	0.00009	  1	0.90000	  0	 15	 37	 48	  1	
25-Apr-2013	sub2330	2330	  1	  0	 57	  2	  1	  4	  3	  4	  1	  2	  1	0.09645	  1	0.90000	  0	 14	 32	 33	  1	
25-Apr-2013	sub2330	2330	  1	  0	 58	  2	  1	  2	  6	  2	  1	  1	  0	0.44097	  0	0.90000	  0	 12	 40	 41	  1	
25-Apr-2013	sub2330	2330	  1	  0	 59	  2	  1	  3	  2	  4	  1	  2	  0	0.45631	  0	0.80000	  0	 13	 42	 43	  1	
25-Apr-2013	sub2330	2330	  1	  0	 60	  2	  1	  3	  2	  4	  1	  1	  1	0.39614	  1	0.80000	  0	 13	 32	 33	  1	
25-Apr-2013	sub2330	2330	  1	  0	 61	  2	  1	  4	  3	  4	  1	  2	  1	0.49144	  1	0.80000	  0	 14	 32	 33	  1	
25-Apr-2013	sub2330	2330	  1	  0	 62	  2	  1	  3	  2	  4	  1	  1	  1	0.36568	  1	0.80000	  0	 13	 32	 33	  1	
25-Apr-2013	sub2330	2330	  1	  0	 63	  2	  1	  3	  2	  4	  0	  2	  1	0.20110	  0	0.80000	  0	 13	 44	 39	  1	
25-Apr-2013	sub2330	2330	  1	  0	 64	  2	  1	  4	  3	  4	  1	  1	  0	0.53016	  0	0.80000	  0	 14	 42	 43	  0	
25-Apr-2013	sub2330	2330	  1	  0	 65	  2	  1	  6	  1	  1	  0	  2	  0	0.41843	  1	0.80000	  0	 16	 37	 48	  1	
25-Apr-2013	sub2330	2330	  1	  0	 66	  2	  1	  6	  1	  1	  0	  2	  0	0.39396	  1	0.80000	  0	 16	 37	 48	  1	
25-Apr-2013	sub2330	2330	  1	  0	 67	  2	  1	  2	  6	  2	  1	  1	  0	0.30220	  0	0.80000	  0	 12	 40	 41	  1	
25-Apr-2013	sub2330	2330	  1	  0	 68	  2	  1	  2	  6	  2	  1	  2	  1	0.31454	  1	0.70000	  0	 12	 30	 31	  1	
25-Apr-2013	sub2330	2330	  1	  0	 69	  2	  1	  2	  6	  2	  1	  2	  1	1.76920	  1	0.70000	  1	 12	 30	 51	  0	
25-Apr-2013	sub2330	2330	  1	  0	 70	  2	  1	  4	  3	  4	  1	  2	  1	0.68294	  1	0.90000	  0	 14	 32	 33	  0	
25-Apr-2013	sub2330	2330	  1	  0	 71	  2	  1	  6	  1	  1	  0	  1	  1	0.52046	  0	0.90000	  0	 16	 47	 38	  0	
25-Apr-2013	sub2330	2330	  1	  0	 72	  2	  1	  6	  1	  1	  1	  1	  0	0.39570	  0	0.90000	  0	 16	 45	 46	  1	
25-Apr-2013	sub2330	2330	  1	  0	 73	  2	  1	  2	  6	  2	  1	  2	  1	0.43369	  1	0.80000	  0	 12	 30	 31	  1	
25-Apr-2013	sub2330	2330	  1	  0	 74	  2	  1	  4	  3	  4	  0	  1	  1	0.32965	  0	0.80000	  0	 14	 44	 39	  1	
25-Apr-2013	sub2330	2330	  1	  0	 75	  2	  1	  2	  6	  2	  1	  2	  1	0.38950	  1	0.80000	  0	 12	 30	 31	  1	
25-Apr-2013	sub2330	2330	  1	  0	 76	  2	  2	  6	  1	  1	  1	  2	  1	0.40588	  1	0.80000	  0	 26	 65	 66	  1	
25-Apr-2013	sub2330	2330	  1	  0	 77	  2	  2	  5	  4	  1	  0	  1	  0	0.36506	  1	0.80000	  0	 25	 67	 88	  1	
25-Apr-2013	sub2330	2330	  1	  0	 78	  2	  2	  3	  2	  4	  1	  2	  0	0.48786	  0	0.80000	  0	 23	 82	 83	  1	
25-Apr-2013	sub2330	2330	  1	  0	 79	  2	  2	  1	  5	  2	  1	  1	  1	0.64091	  1	0.80000	  0	 21	 60	 61	  0	
25-Apr-2013	sub2330	2330	  1	  0	 80	  2	  2	  1	  5	  2	  1	  1	  1	0.44180	  1	0.80000	  0	 21	 60	 61	  1	
25-Apr-2013	sub2330	2330	  1	  0	 81	  2	  2	  1	  5	  2	  1	  1	  1	0.43955	  1	0.80000	  0	 21	 60	 61	  1	
25-Apr-2013	sub2330	2330	  1	  0	 82	  2	  2	  4	  3	  4	  0	  1	  1	0.36849	  0	0.80000	  0	 24	 84	 69	  1	
25-Apr-2013	sub2330	2330	  1	  0	 83	  2	  2	  2	  6	  2	  1	  2	  1	0.40750	  1	0.80000	  0	 22	 60	 61	  1	
25-Apr-2013	sub2330	2330	  1	  0	 84	  2	  2	  5	  4	  1	  0	  1	  0	0.65664	  1	0.80000	  0	 25	 67	 88	  0	
25-Apr-2013	sub2330	2330	  1	  0	 85	  2	  2	  1	  5	  2	  1	  1	  1	0.52268	  1	0.70000	  0	 21	 60	 61	  0	
25-Apr-2013	sub2330	2330	  1	  0	 86	  2	  2	  2	  6	  2	  1	  1	  0	0.41147	  0	0.70000	  0	 22	 80	 81	  1	
25-Apr-2013	sub2330	2330	  1	  0	 87	  2	  2	  4	  3	  4	  1	  2	  1	0.35526	  1	0.70000	  0	 24	 62	 63	  1	
25-Apr-2013	sub2330	2330	  1	  0	 88	  2	  2	  6	  1	  1	  1	  2	  1	0.41263	  1	0.70000	  0	 26	 65	 66	  1	
25-Apr-2013	sub2330	2330	  1	  0	 89	  2	  2	  1	  5	  2	  1	  1	  1	0.44695	  1	0.70000	  0	 21	 60	 61	  1	
25-Apr-2013	sub2330	2330	  1	  0	 90	  2	  2	  3	  2	  4	  1	  2	  0	0.40372	  0	0.70000	  0	 23	 82	 83	  1	
25-Apr-2013	sub2330	2330	  1	  0	 91	  2	  2	  6	  1	  1	  0	  1	  1	0.56574	  0	0.70000	  0	 26	 87	 68	  0	
25-Apr-2013	sub2330	2330	  1	  0	 92	  2	  2	  4	  3	  4	  1	  2	  1	0.49182	  1	0.70000	  0	 24	 62	 63	  1	
25-Apr-2013	sub2330	2330	  1	  0	 93	  2	  2	  4	  3	  4	  1	  1	  0	0.41106	  0	0.70000	  0	 24	 82	 83	  1	
25-Apr-2013	sub2330	2330	  1	  0	 94	  2	  2	  4	  3	  4	  0	  2	  0	0.32690	  1	0.70000	  0	 24	 64	 89	  1	
25-Apr-2013	sub2330	2330	  1	  0	 95	  2	  2	  5	  4	  1	  0	  2	  1	0.44375	  0	0.70000	  0	 25	 87	 68	  1	
25-Apr-2013	sub2330	2330	  1	  0	 96	  2	  2	  4	  3	  4	  1	  1	  0	0.43429	  0	0.70000	  0	 24	 82	 83	  1	
25-Apr-2013	sub2330	2330	  1	  0	 97	  2	  2	  1	  5	  2	  1	  2	  0	0.47192	  0	0.70000	  0	 21	 80	 81	  1	
25-Apr-2013	sub2330	2330	  1	  0	 98	  2	  2	  6	  1	  1	  0	  1	  1	0.52404	  0	0.70000	  0	 26	 87	 68	  0	
25-Apr-2013	sub2330	2330	  1	  0	 99	  2	  2	  1	  5	  2	  1	  2	  0	0.94326	  0	0.70000	  1	 21	 80	 51	  0	
25-Apr-2013	sub2330	2330	  1	  0	100	  2	  2	  5	  4	  1	  0	  1	  0	0.43913	  1	0.80000	  0	 25	 67	 88	  1	
25-Apr-2013	sub2330	2330	  1	  0	101	  2	  2	  2	  6	  2	  1	  1	  0	0.55123	  0	0.70000	  0	 22	 80	 81	  0	
25-Apr-2013	sub2330	2330	  1	  0	102	  2	  2	  4	  3	  4	  1	  2	  1	0.44253	  1	0.70000	  0	 24	 62	 63	  1	
25-Apr-2013	sub2330	2330	  1	  0	103	  2	  2	  1	  5	  2	  1	  1	  1	0.53748	  1	0.70000	  0	 21	 60	 61	  0	
25-Apr-2013	sub2330	2330	  1	  0	104	  2	  2	  6	  1	  1	  1	  2	  1	0.39535	  1	0.70000	  0	 26	 65	 66	  1	
25-Apr-2013	sub2330	2330	  1	  0	105	  2	  2	  1	  5	  2	  1	  1	  1	0.44171	  1	0.70000	  0	 21	 60	 61	  1	
25-Apr-2013	sub2330	2330	  1	  0	106	  2	  2	  3	  2	  4	  1	  2	  0	0.40519	  0	0.70000	  0	 23	 82	 83	  1	
25-Apr-2013	sub2330	2330	  1	  0	107	  2	  2	  2	  6	  2	  1	  1	  0	0.38758	  0	0.70000	  0	 22	 80	 81	  1	
25-Apr-2013	sub2330	2330	  1	  0	108	  2	  2	  2	  6	  2	  1	  1	  0	0.54406	  0	0.70000	  0	 22	 80	 81	  0	
25-Apr-2013	sub2330	2330	  1	  0	109	  2	  2	  3	  2	  4	  1	  2	  0	0.51443	  0	0.70000	  0	 23	 82	 83	  0	
25-Apr-2013	sub2330	2330	  1	  0	110	  2	  2	  5	  4	  1	  0	  1	  0	0.63746	  1	0.70000	  0	 25	 67	 88	  0	
25-Apr-2013	sub2330	2330	  1	  0	111	  2	  2	  6	  1	  1	  1	  2	  1	0.63441	  1	0.70000	  0	 26	 65	 66	  0	
25-Apr-2013	sub2330	2330	  1	  0	112	  2	  2	  2	  6	  2	  1	  2	  1	0.55683	  1	0.70000	  0	 22	 60	 61	  0	
25-Apr-2013	sub2330	2330	  1	  0	113	  2	  2	  2	  6	  2	  1	  2	  1	0.39190	  1	0.70000	  0	 22	 60	 61	  1	
25-Apr-2013	sub2330	2330	  1	  0	114	  2	  2	  1	  5	  2	  1	  2	  0	0.45485	  0	0.70000	  0	 21	 80	 81	  1	
25-Apr-2013	sub2330	2330	  1	  0	115	  2	  2	  4	  3	  4	  1	  1	  0	0.49928	  0	0.70000	  0	 24	 82	 83	  1	
25-Apr-2013	sub2330	2330	  1	  0	116	  2	  2	  1	  5	  2	  1	  2	  0	0.55970	  0	0.70000	  0	 21	 80	 81	  0	
25-Apr-2013	sub2330	2330	  1	  0	117	  2	  2	  6	  1	  1	  1	  1	  0	0.52428	  0	0.70000	  0	 26	 85	 86	  0	
25-Apr-2013	sub2330	2330	  1	  0	118	  2	  2	  6	  1	  1	  0	  2	  0	0.19392	  1	0.70000	  0	 26	 67	 88	  1	
25-Apr-2013	sub2330	2330	  1	  0	119	  2	  2	  4	  3	  4	  0	  1	  1	0.42620	  0	0.70000	  0	 24	 84	 69	  1	
25-Apr-2013	sub2330	2330	  1	  0	120	  2	  2	  4	  3	  4	  1	  2	  1	0.00009	  1	0.70000	  0	 24	 62	 63	  1	
25-Apr-2013	sub2330	2330	  1	  0	121	  2	  2	  3	  2	  4	  1	  1	  1	0.44526	  1	0.60000	  0	 23	 62	 63	  1	
25-Apr-2013	sub2330	2330	  1	  0	122	  2	  2	  2	  6	  2	  1	  2	  1	0.39670	  1	0.60000	  0	 22	 60	 61	  1	
25-Apr-2013	sub2330	2330	  1	  0	123	  2	  2	  3	  2	  4	  1	  2	  0	1.61561	  0	0.60000	  1	 23	 82	 51	  0	
25-Apr-2013	sub2330	2330	  1	  0	124	  2	  2	  5	  4	  1	  0	  1	  0	0.39031	  1	0.70000	  0	 25	 67	 88	  1	
25-Apr-2013	sub2330	2330	  1	  0	125	  2	  2	  3	  2	  4	  1	  2	  0	0.34870	  0	0.70000	  0	 23	 82	 83	  1	
25-Apr-2013	sub2330	2330	  1	  0	126	  2	  2	  3	  2	  4	  1	  1	  1	0.37826	  1	0.70000	  0	 23	 62	 63	  1	
25-Apr-2013	sub2330	2330	  1	  0	127	  2	  2	  3	  2	  4	  1	  1	  1	0.43642	  1	0.70000	  0	 23	 62	 63	  1	
25-Apr-2013	sub2330	2330	  1	  0	128	  2	  2	  2	  6	  2	  1	  2	  1	0.49804	  1	0.70000	  0	 22	 60	 61	  1	
25-Apr-2013	sub2330	2330	  1	  0	129	  2	  2	  6	  1	  1	  0	  1	  1	0.63870	  0	0.70000	  0	 26	 87	 68	  0	
25-Apr-2013	sub2330	2330	  1	  0	130	  2	  2	  3	  2	  4	  0	  2	  1	0.37445	  0	0.70000	  0	 23	 84	 69	  1	
25-Apr-2013	sub2330	2330	  1	  0	131	  2	  2	  5	  4	  1	  0	  1	  0	0.34387	  1	0.70000	  0	 25	 67	 88	  1	
25-Apr-2013	sub2330	2330	  1	  0	132	  2	  2	  4	  3	  4	  1	  2	  1	0.17724	  1	0.70000	  0	 24	 62	 63	  1	
25-Apr-2013	sub2330	2330	  1	  0	133	  2	  2	  2	  6	  2	  1	  1	  0	0.60571	  0	0.70000	  0	 22	 80	 81	  0	
25-Apr-2013	sub2330	2330	  1	  0	134	  2	  2	  1	  5	  2	  1	  2	  0	0.39621	  0	0.70000	  0	 21	 80	 81	  1	
25-Apr-2013	sub2330	2330	  1	  0	135	  2	  2	  5	  4	  1	  0	  2	  1	0.66467	  0	0.70000	  0	 25	 87	 68	  0	
25-Apr-2013	sub2330	2330	  1	  0	136	  2	  2	  5	  4	  1	  0	  2	  1	0.40744	  0	0.70000	  0	 25	 87	 68	  1	
25-Apr-2013	sub2330	2330	  1	  0	137	  2	  2	  1	  5	  2	  1	  1	  1	0.45061	  1	0.70000	  0	 21	 60	 61	  1	
25-Apr-2013	sub2330	2330	  1	  0	138	  2	  2	  4	  3	  4	  1	  2	  1	0.76124	  1	0.70000	  1	 24	 62	 51	  0	
25-Apr-2013	sub2330	2330	  1	  0	139	  2	  2	  5	  4	  1	  0	  2	  1	0.38142	  0	0.70000	  0	 25	 87	 68	  1	
25-Apr-2013	sub2330	2330	  1	  0	140	  2	  2	  4	  3	  4	  1	  1	  0	0.44185	  0	0.70000	  0	 24	 82	 83	  1	
25-Apr-2013	sub2330	2330	  1	  0	141	  2	  2	  2	  6	  2	  1	  2	  1	0.00009	  1	0.70000	  0	 22	 60	 61	  1	
25-Apr-2013	sub2330	2330	  1	  0	142	  2	  2	  6	  1	  1	  1	  1	  0	0.30797	  0	0.70000	  0	 26	 85	 86	  1	
25-Apr-2013	sub2330	2330	  1	  0	143	  2	  2	  6	  1	  1	  0	  2	  0	0.13744	  1	0.70000	  0	 26	 67	 88	  1	
25-Apr-2013	sub2330	2330	  1	  0	144	  2	  2	  3	  2	  4	  0	  1	  0	0.27605	  1	0.70000	  0	 23	 64	 89	  1	
25-Apr-2013	sub2330	2330	  1	  0	145	  2	  2	  6	  1	  1	  0	  1	  1	0.33747	  0	0.70000	  0	 26	 87	 68	  1	
25-Apr-2013	sub2330	2330	  1	  0	146	  2	  2	  5	  4	  1	  0	  2	  1	0.30228	  0	0.70000	  0	 25	 87	 68	  1	
25-Apr-2013	sub2330	2330	  1	  0	147	  2	  2	  3	  2	  4	  1	  2	  0	0.55490	  0	0.70000	  0	 23	 82	 83	  0	
25-Apr-2013	sub2330	2330	  1	  0	148	  2	  2	  5	  4	  1	  0	  1	  0	0.35627	  1	0.70000	  0	 25	 67	 88	  1	
25-Apr-2013	sub2330	2330	  1	  0	149	  2	  2	  2	  6	  2	  1	  2	  1	0.52163	  1	0.70000	  0	 22	 60	 61	  0	
25-Apr-2013	sub2330	2330	  1	  0	150	  2	  2	  5	  4	  1	  0	  2	  1	0.42771	  0	0.70000	  0	 25	 87	 68	  1	
25-Apr-2013	sub2330	2330	  1	  0	  1	  3	  1	  2	  4	  4	  1	  2	  1	0.50799	  1	0.60000	  0	 12	 30	 31	  0	
25-Apr-2013	sub2330	2330	  1	  0	  2	  3	  1	  5	  3	  6	  1	  1	  1	0.50022	  1	0.30000	  1	 15	 35	 51	  1	
25-Apr-2013	sub2330	2330	  1	  0	  3	  3	  1	  6	  5	  1	  0	  1	  1	0.53724	  0	0.90000	  0	 16	 47	 38	  0	
25-Apr-2013	sub2330	2330	  1	  0	  4	  3	  1	  2	  4	  4	  1	  2	  1	0.65526	  1	0.90000	  0	 12	 30	 31	  0	
25-Apr-2013	sub2330	2330	  1	  0	  5	  3	  1	  5	  3	  6	  1	  1	  1	0.42038	  1	0.90000	  0	 15	 35	 36	  1	
25-Apr-2013	sub2330	2330	  1	  0	  6	  3	  1	  1	  6	  1	  1	  2	  0	0.53554	  0	0.90000	  0	 11	 40	 41	  0	
25-Apr-2013	sub2330	2330	  1	  0	  7	  3	  1	  5	  3	  6	  1	  1	  1	0.41783	  1	0.90000	  0	 15	 35	 36	  1	
25-Apr-2013	sub2330	2330	  1	  0	  8	  3	  1	  2	  4	  4	  1	  2	  1	0.35747	  1	0.90000	  0	 12	 30	 31	  1	
25-Apr-2013	sub2330	2330	  1	  0	  9	  3	  1	  1	  6	  1	  1	  1	  1	0.55605	  1	0.90000	  0	 11	 30	 31	  0	
25-Apr-2013	sub2330	2330	  1	  0	 10	  3	  1	  4	  1	  4	  1	  2	  1	0.51401	  1	0.90000	  0	 14	 32	 33	  0	
25-Apr-2013	sub2330	2330	  1	  0	 11	  3	  1	  6	  5	  1	  0	  1	  1	0.60955	  0	0.90000	  0	 16	 47	 38	  0	
25-Apr-2013	sub2330	2330	  1	  0	 12	  3	  1	  4	  1	  4	  1	  2	  1	0.45100	  1	0.90000	  0	 14	 32	 33	  1	
25-Apr-2013	sub2330	2330	  1	  0	 13	  3	  1	  4	  1	  4	  1	  1	  0	0.35804	  0	0.90000	  0	 14	 42	 43	  1	
25-Apr-2013	sub2330	2330	  1	  0	 14	  3	  1	  4	  1	  4	  1	  2	  1	0.39247	  1	0.90000	  0	 14	 32	 33	  1	
25-Apr-2013	sub2330	2330	  1	  0	 15	  3	  1	  2	  4	  4	  1	  1	  0	0.56509	  0	0.90000	  0	 12	 40	 41	  0	
25-Apr-2013	sub2330	2330	  1	  0	 16	  3	  1	  3	  2	  6	  1	  2	  0	0.54264	  0	0.80000	  0	 13	 42	 43	  0	
25-Apr-2013	sub2330	2330	  1	  0	 17	  3	  1	  5	  3	  6	  0	  2	  1	0.62660	  0	0.80000	  0	 15	 47	 38	  0	
25-Apr-2013	sub2330	2330	  1	  0	 18	  3	  1	  6	  5	  1	  0	  1	  1	0.46462	  0	0.70000	  0	 16	 47	 38	  1	
25-Apr-2013	sub2330	2330	  1	  0	 19	  3	  1	  1	  6	  1	  1	  2	  0	0.49016	  0	0.70000	  0	 11	 40	 41	  1	
25-Apr-2013	sub2330	2330	  1	  0	 20	  3	  1	  6	  5	  1	  1	  1	  0	0.60087	  0	0.70000	  0	 16	 45	 46	  0	
25-Apr-2013	sub2330	2330	  1	  0	 21	  3	  1	  3	  2	  6	  1	  2	  0	0.49153	  0	0.60000	  0	 13	 42	 43	  1	
25-Apr-2013	sub2330	2330	  1	  0	 22	  3	  1	  4	  1	  4	  1	  2	  1	0.57313	  1	0.60000	  0	 14	 32	 33	  0	
25-Apr-2013	sub2330	2330	  1	  0	 23	  3	  1	  6	  5	  1	  1	  1	  0	0.40399	  0	0.60000	  0	 16	 45	 46	  1	
25-Apr-2013	sub2330	2330	  1	  0	 24	  3	  1	  5	  3	  6	  1	  1	  1	0.55629	  1	0.60000	  0	 15	 35	 36	  0	
25-Apr-2013	sub2330	2330	  1	  0	 25	  3	  1	  4	  1	  4	  0	  2	  0	0.32548	  1	0.60000	  0	 14	 34	 49	  1	
25-Apr-2013	sub2330	2330	  1	  0	 26	  3	  1	  1	  6	  1	  1	  1	  1	0.55843	  1	0.50000	  1	 11	 30	 51	  0	
25-Apr-2013	sub2330	2330	  1	  0	 27	  3	  1	  6	  5	  1	  1	  1	  0	0.44054	  0	0.90000	  0	 16	 45	 46	  1	
25-Apr-2013	sub2330	2330	  1	  0	 28	  3	  1	  2	  4	  4	  1	  1	  0	0.51037	  0	0.90000	  0	 12	 40	 41	  0	
25-Apr-2013	sub2330	2330	  1	  0	 29	  3	  1	  5	  3	  6	  0	  2	  1	0.31760	  0	0.90000	  0	 15	 47	 38	  1	
25-Apr-2013	sub2330	2330	  1	  0	 30	  3	  1	  5	  3	  6	  1	  2	  0	0.38902	  0	0.80000	  0	 15	 45	 46	  1	
25-Apr-2013	sub2330	2330	  1	  0	 31	  3	  1	  3	  2	  6	  1	  1	  1	0.44314	  1	0.80000	  0	 13	 32	 33	  1	
25-Apr-2013	sub2330	2330	  1	  0	 32	  3	  1	  6	  5	  1	  1	  2	  1	0.49364	  1	0.80000	  0	 16	 35	 36	  1	
25-Apr-2013	sub2330	2330	  1	  0	 33	  3	  1	  3	  2	  6	  1	  2	  0	0.39831	  0	0.80000	  0	 13	 42	 43	  1	
25-Apr-2013	sub2330	2330	  1	  0	 34	  3	  1	  3	  2	  6	  0	  2	  1	0.34217	  0	0.80000	  0	 13	 44	 39	  1	
25-Apr-2013	sub2330	2330	  1	  0	 35	  3	  1	  2	  4	  4	  1	  1	  0	0.54029	  0	0.70000	  0	 12	 40	 41	  0	
25-Apr-2013	sub2330	2330	  1	  0	 36	  3	  1	  5	  3	  6	  0	  2	  1	0.28287	  0	0.70000	  0	 15	 47	 38	  1	
25-Apr-2013	sub2330	2330	  1	  0	 37	  3	  1	  1	  6	  1	  1	  2	  0	0.32190	  0	0.70000	  0	 11	 40	 41	  1	
25-Apr-2013	sub2330	2330	  1	  0	 38	  3	  1	  3	  2	  6	  1	  1	  1	0.13490	  1	0.70000	  0	 13	 32	 33	  1	
25-Apr-2013	sub2330	2330	  1	  0	 39	  3	  1	  5	  3	  6	  0	  2	  1	0.30219	  0	0.70000	  0	 15	 47	 38	  1	
25-Apr-2013	sub2330	2330	  1	  0	 40	  3	  1	  3	  2	  6	  1	  2	  0	0.29883	  0	0.70000	  0	 13	 42	 43	  1	
25-Apr-2013	sub2330	2330	  1	  0	 41	  3	  1	  5	  3	  6	  0	  2	  1	0.30315	  0	0.60000	  0	 15	 47	 38	  1	
25-Apr-2013	sub2330	2330	  1	  0	 42	  3	  1	  4	  1	  4	  1	  2	  1	0.31375	  1	0.60000	  0	 14	 32	 33	  1	
25-Apr-2013	sub2330	2330	  1	  0	 43	  3	  1	  5	  3	  6	  0	  2	  1	0.29950	  0	0.60000	  0	 15	 47	 38	  1	
25-Apr-2013	sub2330	2330	  1	  0	 44	  3	  1	  2	  4	  4	  1	  2	  1	0.33093	  1	0.60000	  0	 12	 30	 31	  1	
25-Apr-2013	sub2330	2330	  1	  0	 45	  3	  1	  3	  2	  6	  0	  2	  1	0.28401	  0	0.60000	  0	 13	 44	 39	  1	
25-Apr-2013	sub2330	2330	  1	  0	 46	  3	  1	  5	  3	  6	  1	  2	  0	0.41808	  0	0.60000	  0	 15	 45	 46	  1	
25-Apr-2013	sub2330	2330	  1	  0	 47	  3	  1	  6	  5	  1	  0	  2	  0	0.52228	  1	0.60000	  0	 16	 37	 48	  0	
25-Apr-2013	sub2330	2330	  1	  0	 48	  3	  1	  3	  2	  6	  0	  2	  1	0.51416	  0	0.60000	  0	 13	 44	 39	  0	
25-Apr-2013	sub2330	2330	  1	  0	 49	  3	  1	  6	  5	  1	  0	  1	  1	0.39346	  0	0.60000	  0	 16	 47	 38	  1	
25-Apr-2013	sub2330	2330	  1	  0	 50	  3	  1	  1	  6	  1	  1	  2	  0	0.35375	  0	0.60000	  0	 11	 40	 41	  1	
25-Apr-2013	sub2330	2330	  1	  0	 51	  3	  1	  6	  5	  1	  0	  1	  1	0.77773	  0	0.50000	  1	 16	 47	 51	  0	
25-Apr-2013	sub2330	2330	  1	  0	 52	  3	  1	  4	  1	  4	  0	  2	  0	0.34578	  1	0.70000	  0	 14	 34	 49	  1	
25-Apr-2013	sub2330	2330	  1	  0	 53	  3	  1	  3	  2	  6	  1	  2	  0	0.44134	  0	0.70000	  0	 13	 42	 43	  1	
25-Apr-2013	sub2330	2330	  1	  0	 54	  3	  1	  1	  6	  1	  1	  2	  0	0.34250	  0	0.70000	  0	 11	 40	 41	  1	
25-Apr-2013	sub2330	2330	  1	  0	 55	  3	  1	  2	  4	  4	  1	  2	  1	3.49394	  1	0.70000	  1	 12	 30	 51	  0	
25-Apr-2013	sub2330	2330	  1	  0	 56	  3	  1	  4	  1	  4	  1	  2	  1	0.34826	  1	0.90000	  0	 14	 32	 33	  1	
25-Apr-2013	sub2330	2330	  1	  0	 57	  3	  1	  2	  4	  4	  1	  2	  1	0.51215	  1	0.90000	  0	 12	 30	 31	  0	
25-Apr-2013	sub2330	2330	  1	  0	 58	  3	  1	  2	  4	  4	  1	  2	  1	0.44137	  1	0.90000	  0	 12	 30	 31	  1	
25-Apr-2013	sub2330	2330	  1	  0	 59	  3	  1	  4	  1	  4	  1	  2	  1	0.41585	  1	0.80000	  0	 14	 32	 33	  1	
25-Apr-2013	sub2330	2330	  1	  0	 60	  3	  1	  6	  5	  1	  1	  1	  0	0.45929	  0	0.80000	  0	 16	 45	 46	  1	
25-Apr-2013	sub2330	2330	  1	  0	 61	  3	  1	  4	  1	  4	  1	  2	  1	0.49245	  1	0.80000	  0	 14	 32	 33	  1	
25-Apr-2013	sub2330	2330	  1	  0	 62	  3	  1	  3	  2	  6	  1	  2	  0	0.62292	  0	0.80000	  0	 13	 42	 43	  0	
25-Apr-2013	sub2330	2330	  1	  0	 63	  3	  1	  1	  6	  1	  1	  1	  1	0.64209	  1	0.80000	  0	 11	 30	 31	  0	
25-Apr-2013	sub2330	2330	  1	  0	 64	  3	  1	  6	  5	  1	  1	  1	  0	0.61732	  0	0.80000	  0	 16	 45	 46	  0	
25-Apr-2013	sub2330	2330	  1	  0	 65	  3	  1	  2	  4	  4	  1	  2	  1	0.55987	  1	0.80000	  0	 12	 30	 31	  0	
25-Apr-2013	sub2330	2330	  1	  0	 66	  3	  1	  1	  6	  1	  1	  1	  1	0.68998	  1	0.80000	  0	 11	 30	 31	  0	
25-Apr-2013	sub2330	2330	  1	  0	 67	  3	  1	  2	  4	  4	  1	  2	  1	0.46241	  1	0.80000	  0	 12	 30	 31	  1	
25-Apr-2013	sub2330	2330	  1	  0	 68	  3	  1	  6	  5	  1	  0	  1	  1	0.59106	  0	0.70000	  0	 16	 47	 38	  0	
25-Apr-2013	sub2330	2330	  1	  0	 69	  3	  1	  2	  4	  4	  1	  2	  1	0.58029	  1	0.70000	  0	 12	 30	 31	  0	
25-Apr-2013	sub2330	2330	  1	  0	 70	  3	  1	  1	  6	  1	  1	  1	  1	0.38497	  1	0.70000	  0	 11	 30	 31	  1	
25-Apr-2013	sub2330	2330	  1	  0	 71	  3	  1	  4	  1	  4	  1	  1	  0	0.41674	  0	0.70000	  0	 14	 42	 43	  1	
25-Apr-2013	sub2330	2330	  1	  0	 72	  3	  1	  3	  2	  6	  1	  2	  0	0.60079	  0	0.70000	  0	 13	 42	 43	  0	
25-Apr-2013	sub2330	2330	  1	  0	 73	  3	  1	  1	  6	  1	  1	  1	  1	0.68625	  1	0.70000	  0	 11	 30	 31	  0	
25-Apr-2013	sub2330	2330	  1	  0	 74	  3	  1	  3	  2	  6	  1	  1	  1	0.69071	  1	0.70000	  0	 13	 32	 33	  0	
25-Apr-2013	sub2330	2330	  1	  0	 75	  3	  1	  1	  6	  1	  1	  1	  1	0.55205	  1	0.70000	  0	 11	 30	 31	  0	
25-Apr-2013	sub2330	2330	  1	  0	 76	  3	  2	  3	  2	  6	  1	  1	  1	0.50659	  1	0.70000	  0	 23	 62	 63	  0	
25-Apr-2013	sub2330	2330	  1	  0	 77	  3	  2	  4	  1	  4	  1	  2	  1	0.69164	  1	0.70000	  0	 24	 62	 63	  0	
25-Apr-2013	sub2330	2330	  1	  0	 78	  3	  2	  4	  1	  4	  1	  2	  1	0.44860	  1	0.70000	  0	 24	 62	 63	  1	
25-Apr-2013	sub2330	2330	  1	  0	 79	  3	  2	  2	  4	  4	  1	  1	  0	0.61759	  0	0.70000	  0	 22	 80	 81	  0	
25-Apr-2013	sub2330	2330	  1	  0	 80	  3	  2	  1	  6	  1	  1	  1	  1	0.56910	  1	0.70000	  0	 21	 60	 61	  0	
25-Apr-2013	sub2330	2330	  1	  0	 81	  3	  2	  1	  6	  1	  1	  1	  1	0.43584	  1	0.60000	  0	 21	 60	 61	  1	
25-Apr-2013	sub2330	2330	  1	  0	 82	  3	  2	  4	  1	  4	  1	  1	  0	0.44493	  0	0.60000	  0	 24	 82	 83	  1	
25-Apr-2013	sub2330	2330	  1	  0	 83	  3	  2	  2	  4	  4	  1	  2	  1	0.44091	  1	0.60000	  0	 22	 60	 61	  1	
25-Apr-2013	sub2330	2330	  1	  0	 84	  3	  2	  3	  2	  6	  1	  2	  0	0.43983	  0	0.60000	  0	 23	 82	 83	  1	
25-Apr-2013	sub2330	2330	  1	  0	 85	  3	  2	  2	  4	  4	  1	  2	  1	0.56867	  1	0.60000	  0	 22	 60	 61	  0	
25-Apr-2013	sub2330	2330	  1	  0	 86	  3	  2	  4	  1	  4	  0	  2	  0	0.52579	  1	0.60000	  0	 24	 64	 89	  0	
25-Apr-2013	sub2330	2330	  1	  0	 87	  3	  2	  6	  5	  1	  0	  1	  1	0.67845	  0	0.60000	  1	 26	 87	 51	  0	
25-Apr-2013	sub2330	2330	  1	  0	 88	  3	  2	  2	  4	  4	  1	  1	  0	0.47040	  0	0.70000	  0	 22	 80	 81	  1	
25-Apr-2013	sub2330	2330	  1	  0	 89	  3	  2	  6	  5	  1	  1	  1	  0	0.57615	  0	0.70000	  0	 26	 85	 86	  0	
25-Apr-2013	sub2330	2330	  1	  0	 90	  3	  2	  2	  4	  4	  1	  2	  1	0.86088	  1	0.70000	  1	 22	 60	 51	  0	
25-Apr-2013	sub2330	2330	  1	  0	 91	  3	  2	  3	  2	  6	  1	  2	  0	0.46403	  0	0.80000	  0	 23	 82	 83	  1	
25-Apr-2013	sub2330	2330	  1	  0	 92	  3	  2	  5	  3	  6	  0	  1	  0	0.60948	  1	0.80000	  0	 25	 67	 88	  0	
25-Apr-2013	sub2330	2330	  1	  0	 93	  3	  2	  4	  1	  4	  1	  2	  1	0.50637	  1	0.80000	  0	 24	 62	 63	  0	
25-Apr-2013	sub2330	2330	  1	  0	 94	  3	  2	  5	  3	  6	  0	  2	  1	0.78633	  0	0.80000	  0	 25	 87	 68	  0	
25-Apr-2013	sub2330	2330	  1	  0	 95	  3	  2	  5	  3	  6	  0	  2	  1	0.48146	  0	0.80000	  0	 25	 87	 68	  1	
25-Apr-2013	sub2330	2330	  1	  0	 96	  3	  2	  2	  4	  4	  1	  2	  1	0.54385	  1	0.80000	  0	 22	 60	 61	  0	
25-Apr-2013	sub2330	2330	  1	  0	 97	  3	  2	  2	  4	  4	  1	  2	  1	0.55466	  1	0.80000	  0	 22	 60	 61	  0	
25-Apr-2013	sub2330	2330	  1	  0	 98	  3	  2	  4	  1	  4	  1	  2	  1	0.31069	  1	0.80000	  0	 24	 62	 63	  1	
25-Apr-2013	sub2330	2330	  1	  0	 99	  3	  2	  6	  5	  1	  1	  2	  1	0.31204	  1	0.80000	  0	 26	 65	 66	  1	
25-Apr-2013	sub2330	2330	  1	  0	100	  3	  2	  2	  4	  4	  1	  2	  1	0.39626	  1	0.80000	  0	 22	 60	 61	  1	
25-Apr-2013	sub2330	2330	  1	  0	101	  3	  2	  5	  3	  6	  0	  1	  0	0.59718	  1	0.70000	  0	 25	 67	 88	  0	
25-Apr-2013	sub2330	2330	  1	  0	102	  3	  2	  2	  4	  4	  1	  2	  1	0.44930	  1	0.70000	  0	 22	 60	 61	  1	
25-Apr-2013	sub2330	2330	  1	  0	103	  3	  2	  1	  6	  1	  1	  2	  0	0.53063	  0	0.70000	  0	 21	 80	 81	  0	
25-Apr-2013	sub2330	2330	  1	  0	104	  3	  2	  1	  6	  1	  1	  1	  1	0.43884	  1	0.70000	  0	 21	 60	 61	  1	
25-Apr-2013	sub2330	2330	  1	  0	105	  3	  2	  6	  5	  1	  1	  1	  0	0.75694	  0	0.70000	  1	 26	 85	 51	  0	
25-Apr-2013	sub2330	2330	  1	  0	106	  3	  2	  5	  3	  6	  0	  1	  0	0.53232	  1	0.80000	  0	 25	 67	 88	  0	
25-Apr-2013	sub2330	2330	  1	  0	107	  3	  2	  4	  1	  4	  1	  2	  1	0.36601	  1	0.80000	  0	 24	 62	 63	  1	
25-Apr-2013	sub2330	2330	  1	  0	108	  3	  2	  6	  5	  1	  0	  2	  0	0.34611	  1	0.80000	  0	 26	 67	 88	  1	
25-Apr-2013	sub2330	2330	  1	  0	109	  3	  2	  3	  2	  6	  0	  1	  0	0.01481	  1	0.80000	  0	 23	 64	 89	  1	
25-Apr-2013	sub2330	2330	  1	  0	110	  3	  2	  4	  1	  4	  1	  2	  1	0.22289	  1	0.80000	  0	 24	 62	 63	  1	
25-Apr-2013	sub2330	2330	  1	  0	111	  3	  2	  6	  5	  1	  0	  1	  1	0.64067	  0	0.80000	  0	 26	 87	 68	  0	
25-Apr-2013	sub2330	2330	  1	  0	112	  3	  2	  6	  5	  1	  1	  2	  1	0.40825	  1	0.80000	  0	 26	 65	 66	  1	
25-Apr-2013	sub2330	2330	  1	  0	113	  3	  2	  6	  5	  1	  0	  2	  0	0.47967	  1	0.80000	  0	 26	 67	 88	  1	
25-Apr-2013	sub2330	2330	  1	  0	114	  3	  2	  3	  2	  6	  1	  2	  0	0.60476	  0	0.80000	  0	 23	 82	 83	  0	
25-Apr-2013	sub2330	2330	  1	  0	115	  3	  2	  5	  3	  6	  0	  1	  0	0.40060	  1	0.80000	  0	 25	 67	 88	  1	
25-Apr-2013	sub2330	2330	  1	  0	116	  3	  2	  2	  4	  4	  1	  2	  1	0.32337	  1	0.80000	  0	 22	 60	 61	  1	
25-Apr-2013	sub2330	2330	  1	  0	117	  3	  2	  1	  6	  1	  1	  2	  0	0.00017	  0	0.80000	  0	 21	 80	 81	  1	
25-Apr-2013	sub2330	2330	  1	  0	118	  3	  2	  4	  1	  4	  0	  1	  1	1.60035	  0	0.70000	  1	 24	 84	 51	  0	
25-Apr-2013	sub2330	2330	  1	  0	119	  3	  2	  1	  6	  1	  1	  2	  0	0.36881	  0	0.80000	  0	 21	 80	 81	  1	
25-Apr-2013	sub2330	2330	  1	  0	120	  3	  2	  6	  5	  1	  0	  1	  1	0.38438	  0	0.80000	  0	 26	 87	 68	  1	
25-Apr-2013	sub2330	2330	  1	  0	121	  3	  2	  3	  2	  6	  1	  1	  1	0.50155	  1	0.80000	  0	 23	 62	 63	  0	
25-Apr-2013	sub2330	2330	  1	  0	122	  3	  2	  5	  3	  6	  0	  1	  0	0.46340	  1	0.80000	  0	 25	 67	 88	  1	
25-Apr-2013	sub2330	2330	  1	  0	123	  3	  2	  5	  3	  6	  0	  1	  0	0.47874	  1	0.80000	  0	 25	 67	 88	  1	
25-Apr-2013	sub2330	2330	  1	  0	124	  3	  2	  5	  3	  6	  0	  2	  1	0.27447	  0	0.80000	  0	 25	 87	 68	  1	
25-Apr-2013	sub2330	2330	  1	  0	125	  3	  2	  3	  2	  6	  1	  2	  0	0.48883	  0	0.80000	  0	 23	 82	 83	  1	
25-Apr-2013	sub2330	2330	  1	  0	126	  3	  2	  2	  4	  4	  1	  2	  1	0.62245	  1	0.80000	  0	 22	 60	 61	  0	
25-Apr-2013	sub2330	2330	  1	  0	127	  3	  2	  6	  5	  1	  1	  2	  1	0.41403	  1	0.80000	  0	 26	 65	 66	  1	
25-Apr-2013	sub2330	2330	  1	  0	128	  3	  2	  1	  6	  1	  1	  2	  0	0.53271	  0	0.80000	  0	 21	 80	 81	  0	
25-Apr-2013	sub2330	2330	  1	  0	129	  3	  2	  5	  3	  6	  0	  1	  0	0.41871	  1	0.80000	  0	 25	 67	 88	  1	
25-Apr-2013	sub2330	2330	  1	  0	130	  3	  2	  1	  6	  1	  1	  2	  0	0.47770	  0	0.80000	  0	 21	 80	 81	  1	
25-Apr-2013	sub2330	2330	  1	  0	131	  3	  2	  3	  2	  6	  0	  2	  1	0.59821	  0	0.80000	  0	 23	 84	 69	  0	
25-Apr-2013	sub2330	2330	  1	  0	132	  3	  2	  4	  1	  4	  1	  2	  1	0.71873	  1	0.80000	  0	 24	 62	 63	  0	
25-Apr-2013	sub2330	2330	  1	  0	133	  3	  2	  6	  5	  1	  0	  1	  1	0.50702	  0	0.80000	  0	 26	 87	 68	  0	
25-Apr-2013	sub2330	2330	  1	  0	134	  3	  2	  1	  6	  1	  1	  1	  1	0.75983	  1	0.80000	  0	 21	 60	 61	  0	
25-Apr-2013	sub2330	2330	  1	  0	135	  3	  2	  1	  6	  1	  1	  1	  1	0.41236	  1	0.70000	  0	 21	 60	 61	  1	
25-Apr-2013	sub2330	2330	  1	  0	136	  3	  2	  5	  3	  6	  0	  2	  1	0.75046	  0	0.70000	  1	 25	 87	 51	  0	
25-Apr-2013	sub2330	2330	  1	  0	137	  3	  2	  4	  1	  4	  1	  2	  1	0.60966	  1	0.80000	  0	 24	 62	 63	  0	
25-Apr-2013	sub2330	2330	  1	  0	138	  3	  2	  3	  2	  6	  1	  2	  0	0.56725	  0	0.80000	  0	 23	 82	 83	  0	
25-Apr-2013	sub2330	2330	  1	  0	139	  3	  2	  5	  3	  6	  0	  2	  1	0.60101	  0	0.80000	  0	 25	 87	 68	  0	
25-Apr-2013	sub2330	2330	  1	  0	140	  3	  2	  3	  2	  6	  1	  2	  0	0.47342	  0	0.80000	  0	 23	 82	 83	  1	
25-Apr-2013	sub2330	2330	  1	  0	141	  3	  2	  1	  6	  1	  1	  2	  0	0.73321	  0	0.80000	  0	 21	 80	 81	  0	
25-Apr-2013	sub2330	2330	  1	  0	142	  3	  2	  5	  3	  6	  0	  2	  1	0.66257	  0	0.80000	  0	 25	 87	 68	  0	
25-Apr-2013	sub2330	2330	  1	  0	143	  3	  2	  6	  5	  1	  1	  2	  1	0.52741	  1	0.80000	  0	 26	 65	 66	  0	
25-Apr-2013	sub2330	2330	  1	  0	144	  3	  2	  3	  2	  6	  1	  2	  0	0.55693	  0	0.80000	  0	 23	 82	 83	  0	
25-Apr-2013	sub2330	2330	  1	  0	145	  3	  2	  1	  6	  1	  1	  1	  1	0.49554	  1	0.80000	  0	 21	 60	 61	  1	
25-Apr-2013	sub2330	2330	  1	  0	146	  3	  2	  1	  6	  1	  1	  1	  1	0.50717	  1	0.80000	  0	 21	 60	 61	  0	
25-Apr-2013	sub2330	2330	  1	  0	147	  3	  2	  4	  1	  4	  0	  2	  0	0.61299	  1	0.80000	  0	 24	 64	 89	  0	
25-Apr-2013	sub2330	2330	  1	  0	148	  3	  2	  2	  4	  4	  1	  2	  1	0.56415	  1	0.80000	  0	 22	 60	 61	  0	
25-Apr-2013	sub2330	2330	  1	  0	149	  3	  2	  3	  2	  6	  1	  2	  0	0.47258	  0	0.80000	  0	 23	 82	 83	  1	
25-Apr-2013	sub2330	2330	  1	  0	150	  3	  2	  4	  1	  4	  1	  2	  1	0.32638	  1	0.80000	  0	 24	 62	 63	  1	
25-Apr-2013	sub2330	2330	  1	  0	  1	  4	  1	  1	  4	  2	  1	  2	  0	0.50594	  0	0.60000	  0	 11	 40	 41	  0	
25-Apr-2013	sub2330	2330	  1	  0	  2	  4	  1	  3	  5	  3	  1	  2	  0	0.57214	  0	0.30000	  1	 13	 42	 51	  0	
25-Apr-2013	sub2330	2330	  1	  0	  3	  4	  1	  6	  1	  6	  0	  1	  1	0.47219	  0	0.90000	  0	 16	 47	 38	  1	
25-Apr-2013	sub2330	2330	  1	  0	  4	  4	  1	  2	  3	  3	  1	  1	  0	0.63569	  0	0.90000	  0	 12	 40	 41	  0	
25-Apr-2013	sub2330	2330	  1	  0	  5	  4	  1	  5	  6	  3	  1	  2	  0	0.53657	  0	0.90000	  0	 15	 45	 46	  0	
25-Apr-2013	sub2330	2330	  1	  0	  6	  4	  1	  2	  3	  3	  1	  2	  1	0.49658	  1	0.90000	  0	 12	 30	 31	  1	
25-Apr-2013	sub2330	2330	  1	  0	  7	  4	  1	  5	  6	  3	  0	  1	  0	0.56166	  1	0.90000	  0	 15	 37	 48	  0	
25-Apr-2013	sub2330	2330	  1	  0	  8	  4	  1	  6	  1	  6	  0	  2	  0	0.39603	  1	0.90000	  0	 16	 37	 48	  1	
25-Apr-2013	sub2330	2330	  1	  0	  9	  4	  1	  5	  6	  3	  0	  2	  1	0.68723	  0	0.90000	  0	 15	 47	 38	  0	
25-Apr-2013	sub2330	2330	  1	  0	 10	  4	  1	  6	  1	  6	  0	  1	  1	0.37576	  0	0.90000	  0	 16	 47	 38	  1	
25-Apr-2013	sub2330	2330	  1	  0	 11	  4	  1	  4	  2	  3	  1	  2	  1	0.52401	  1	0.90000	  0	 14	 32	 33	  0	
25-Apr-2013	sub2330	2330	  1	  0	 12	  4	  1	  1	  4	  2	  1	  1	  1	0.58640	  1	0.90000	  0	 11	 30	 31	  0	
25-Apr-2013	sub2330	2330	  1	  0	 13	  4	  1	  6	  1	  6	  1	  2	  1	0.59739	  1	0.90000	  0	 16	 35	 36	  0	
25-Apr-2013	sub2330	2330	  1	  0	 14	  4	  1	  2	  3	  3	  1	  1	  0	0.42792	  0	0.90000	  0	 12	 40	 41	  1	
25-Apr-2013	sub2330	2330	  1	  0	 15	  4	  1	  5	  6	  3	  0	  2	  1	0.45115	  0	0.90000	  0	 15	 47	 38	  1	
25-Apr-2013	sub2330	2330	  1	  0	 16	  4	  1	  4	  2	  3	  1	  1	  0	0.89708	  0	0.80000	  1	 14	 42	 51	  0	
25-Apr-2013	sub2330	2330	  1	  0	 17	  4	  1	  2	  3	  3	  1	  2	  1	0.47673	  1	0.90000	  0	 12	 30	 31	  1	
25-Apr-2013	sub2330	2330	  1	  0	 18	  4	  1	  6	  1	  6	  1	  2	  1	1.62163	  1	0.90000	  1	 16	 35	 51	  0	
25-Apr-2013	sub2330	2330	  1	  0	 19	  4	  1	  6	  1	  6	  0	  2	  0	0.60450	  1	0.90000	  0	 16	 37	 48	  0	
25-Apr-2013	sub2330	2330	  1	  0	 20	  4	  1	  5	  6	  3	  1	  1	  1	0.48389	  1	0.90000	  0	 15	 35	 36	  1	
25-Apr-2013	sub2330	2330	  1	  0	 21	  4	  1	  5	  6	  3	  0	  2	  1	1.30698	  0	0.90000	  1	 15	 47	 51	  0	
25-Apr-2013	sub2330	2330	  1	  0	 22	  4	  1	  4	  2	  3	  1	  2	  1	0.42036	  1	0.90000	  0	 14	 32	 33	  1	
25-Apr-2013	sub2330	2330	  1	  0	 23	  4	  1	  1	  4	  2	  1	  1	  1	0.37276	  1	0.90000	  0	 11	 30	 31	  1	
25-Apr-2013	sub2330	2330	  1	  0	 24	  4	  1	  2	  3	  3	  1	  2	  1	0.30563	  1	0.90000	  0	 12	 30	 31	  1	
25-Apr-2013	sub2330	2330	  1	  0	 25	  4	  1	  2	  3	  3	  1	  1	  0	0.34767	  0	0.90000	  0	 12	 40	 41	  1	
25-Apr-2013	sub2330	2330	  1	  0	 26	  4	  1	  6	  1	  6	  0	  2	  0	0.31439	  1	0.90000	  0	 16	 37	 48	  1	
25-Apr-2013	sub2330	2330	  1	  0	 27	  4	  1	  3	  5	  3	  1	  2	  0	0.41579	  0	0.90000	  0	 13	 42	 43	  1	
25-Apr-2013	sub2330	2330	  1	  0	 28	  4	  1	  3	  5	  3	  1	  1	  1	0.37831	  1	0.90000	  0	 13	 32	 33	  1	
25-Apr-2013	sub2330	2330	  1	  0	 29	  4	  1	  2	  3	  3	  1	  2	  1	0.46052	  1	0.90000	  0	 12	 30	 31	  1	
25-Apr-2013	sub2330	2330	  1	  0	 30	  4	  1	  4	  2	  3	  1	  1	  0	0.59634	  0	0.90000	  0	 14	 42	 43	  0	
25-Apr-2013	sub2330	2330	  1	  0	 31	  4	  1	  4	  2	  3	  1	  2	  1	0.38218	  1	0.90000	  0	 14	 32	 33	  1	
25-Apr-2013	sub2330	2330	  1	  0	 32	  4	  1	  6	  1	  6	  1	  1	  0	0.46624	  0	0.90000	  0	 16	 45	 46	  1	
25-Apr-2013	sub2330	2330	  1	  0	 33	  4	  1	  6	  1	  6	  0	  2	  0	0.44162	  1	0.90000	  0	 16	 37	 48	  1	
25-Apr-2013	sub2330	2330	  1	  0	 34	  4	  1	  4	  2	  3	  1	  1	  0	0.17384	  0	0.90000	  0	 14	 42	 43	  1	
25-Apr-2013	sub2330	2330	  1	  0	 35	  4	  1	  4	  2	  3	  0	  2	  0	0.56340	  1	0.90000	  0	 14	 34	 49	  0	
25-Apr-2013	sub2330	2330	  1	  0	 36	  4	  1	  4	  2	  3	  0	  2	  0	0.65647	  1	0.90000	  0	 14	 34	 49	  0	
25-Apr-2013	sub2330	2330	  1	  0	 37	  4	  1	  1	  4	  2	  1	  1	  1	0.40962	  1	0.90000	  0	 11	 30	 31	  1	
25-Apr-2013	sub2330	2330	  1	  0	 38	  4	  1	  5	  6	  3	  1	  2	  0	0.48240	  0	0.90000	  0	 15	 45	 46	  1	
25-Apr-2013	sub2330	2330	  1	  0	 39	  4	  1	  6	  1	  6	  0	  1	  1	0.48050	  0	0.90000	  0	 16	 47	 38	  1	
25-Apr-2013	sub2330	2330	  1	  0	 40	  4	  1	  5	  6	  3	  1	  2	  0	0.12382	  0	0.90000	  0	 15	 45	 46	  1	
25-Apr-2013	sub2330	2330	  1	  0	 41	  4	  1	  5	  6	  3	  0	  2	  1	1.12373	  0	0.90000	  1	 15	 47	 51	  0	
25-Apr-2013	sub2330	2330	  1	  0	 42	  4	  1	  4	  2	  3	  1	  2	  1	0.52826	  1	0.90000	  0	 14	 32	 33	  0	
25-Apr-2013	sub2330	2330	  1	  0	 43	  4	  1	  2	  3	  3	  1	  1	  0	0.61273	  0	0.90000	  0	 12	 40	 41	  0	
25-Apr-2013	sub2330	2330	  1	  0	 44	  4	  1	  1	  4	  2	  1	  2	  0	0.21517	  0	0.90000	  0	 11	 40	 41	  1	
25-Apr-2013	sub2330	2330	  1	  0	 45	  4	  1	  2	  3	  3	  1	  2	  1	0.24809	  1	0.90000	  0	 12	 30	 31	  1	
25-Apr-2013	sub2330	2330	  1	  0	 46	  4	  1	  2	  3	  3	  1	  2	  1	0.41462	  1	0.90000	  0	 12	 30	 31	  1	
25-Apr-2013	sub2330	2330	  1	  0	 47	  4	  1	  3	  5	  3	  0	  1	  0	0.53704	  1	0.90000	  0	 13	 34	 49	  0	
25-Apr-2013	sub2330	2330	  1	  0	 48	  4	  1	  1	  4	  2	  1	  2	  0	0.43980	  0	0.90000	  0	 11	 40	 41	  1	
25-Apr-2013	sub2330	2330	  1	  0	 49	  4	  1	  5	  6	  3	  1	  2	  0	0.57055	  0	0.90000	  0	 15	 45	 46	  0	
25-Apr-2013	sub2330	2330	  1	  0	 50	  4	  1	  6	  1	  6	  1	  1	  0	0.26659	  0	0.90000	  0	 16	 45	 46	  1	
25-Apr-2013	sub2330	2330	  1	  0	 51	  4	  1	  4	  2	  3	  1	  2	  1	0.40692	  1	0.90000	  0	 14	 32	 33	  1	
25-Apr-2013	sub2330	2330	  1	  0	 52	  4	  1	  3	  5	  3	  1	  2	  0	0.40972	  0	0.90000	  0	 13	 42	 43	  1	
25-Apr-2013	sub2330	2330	  1	  0	 53	  4	  1	  3	  5	  3	  1	  2	  0	0.35955	  0	0.90000	  0	 13	 42	 43	  1	
25-Apr-2013	sub2330	2330	  1	  0	 54	  4	  1	  1	  4	  2	  1	  1	  1	0.27402	  1	0.90000	  0	 11	 30	 31	  1	
25-Apr-2013	sub2330	2330	  1	  0	 55	  4	  1	  2	  3	  3	  1	  1	  0	0.52303	  0	0.90000	  0	 12	 40	 41	  0	
25-Apr-2013	sub2330	2330	  1	  0	 56	  4	  1	  4	  2	  3	  1	  2	  1	0.43318	  1	0.90000	  0	 14	 32	 33	  1	
25-Apr-2013	sub2330	2330	  1	  0	 57	  4	  1	  2	  3	  3	  1	  2	  1	0.42568	  1	0.90000	  0	 12	 30	 31	  1	
25-Apr-2013	sub2330	2330	  1	  0	 58	  4	  1	  3	  5	  3	  1	  1	  1	0.65046	  1	0.90000	  0	 13	 32	 33	  0	
25-Apr-2013	sub2330	2330	  1	  0	 59	  4	  1	  1	  4	  2	  1	  2	  0	0.51620	  0	0.90000	  0	 11	 40	 41	  0	
25-Apr-2013	sub2330	2330	  1	  0	 60	  4	  1	  3	  5	  3	  0	  1	  0	0.44152	  1	0.90000	  0	 13	 34	 49	  1	
25-Apr-2013	sub2330	2330	  1	  0	 61	  4	  1	  6	  1	  6	  1	  1	  0	0.39221	  0	0.90000	  0	 16	 45	 46	  1	
25-Apr-2013	sub2330	2330	  1	  0	 62	  4	  1	  6	  1	  6	  0	  2	  0	0.44914	  1	0.90000	  0	 16	 37	 48	  1	
25-Apr-2013	sub2330	2330	  1	  0	 63	  4	  1	  1	  4	  2	  1	  2	  0	0.49846	  0	0.90000	  0	 11	 40	 41	  1	
25-Apr-2013	sub2330	2330	  1	  0	 64	  4	  1	  5	  6	  3	  1	  1	  1	0.45133	  1	0.90000	  0	 15	 35	 36	  1	
25-Apr-2013	sub2330	2330	  1	  0	 65	  4	  1	  3	  5	  3	  1	  2	  0	0.51701	  0	0.90000	  0	 13	 42	 43	  0	
25-Apr-2013	sub2330	2330	  1	  0	 66	  4	  1	  5	  6	  3	  1	  1	  1	0.44428	  1	0.90000	  0	 15	 35	 36	  1	
25-Apr-2013	sub2330	2330	  1	  0	 67	  4	  1	  3	  5	  3	  1	  1	  1	0.58615	  1	0.90000	  0	 13	 32	 33	  0	
25-Apr-2013	sub2330	2330	  1	  0	 68	  4	  1	  3	  5	  3	  1	  1	  1	0.46944	  1	0.90000	  0	 13	 32	 33	  1	
25-Apr-2013	sub2330	2330	  1	  0	 69	  4	  1	  1	  4	  2	  1	  2	  0	0.68120	  0	0.90000	  0	 11	 40	 41	  0	
25-Apr-2013	sub2330	2330	  1	  0	 70	  4	  1	  3	  5	  3	  0	  2	  1	0.55596	  0	0.90000	  0	 13	 44	 39	  0	
25-Apr-2013	sub2330	2330	  1	  0	 71	  4	  1	  1	  4	  2	  1	  1	  1	0.48987	  1	0.90000	  0	 11	 30	 31	  1	
25-Apr-2013	sub2330	2330	  1	  0	 72	  4	  1	  4	  2	  3	  1	  2	  1	0.56695	  1	0.90000	  0	 14	 32	 33	  0	
25-Apr-2013	sub2330	2330	  1	  0	 73	  4	  1	  1	  4	  2	  1	  1	  1	0.34472	  1	0.80000	  0	 11	 30	 31	  1	
25-Apr-2013	sub2330	2330	  1	  0	 74	  4	  1	  3	  5	  3	  1	  2	  0	0.43100	  0	0.80000	  0	 13	 42	 43	  1	
25-Apr-2013	sub2330	2330	  1	  0	 75	  4	  1	  2	  3	  3	  1	  2	  1	0.49637	  1	0.80000	  0	 12	 30	 31	  1	
25-Apr-2013	sub2330	2330	  1	  0	 76	  4	  2	  2	  3	  3	  1	  2	  1	0.40241	  1	0.80000	  0	 22	 60	 61	  1	
25-Apr-2013	sub2330	2330	  1	  0	 77	  4	  2	  1	  4	  2	  1	  2	  0	0.42432	  0	0.80000	  0	 21	 80	 81	  1	
25-Apr-2013	sub2330	2330	  1	  0	 78	  4	  2	  3	  5	  3	  1	  1	  1	0.40997	  1	0.80000	  0	 23	 62	 63	  1	
25-Apr-2013	sub2330	2330	  1	  0	 79	  4	  2	  3	  5	  3	  1	  1	  1	0.38628	  1	0.80000	  0	 23	 62	 63	  1	
25-Apr-2013	sub2330	2330	  1	  0	 80	  4	  2	  3	  5	  3	  1	  2	  0	0.43093	  0	0.80000	  0	 23	 82	 83	  1	
25-Apr-2013	sub2330	2330	  1	  0	 81	  4	  2	  3	  5	  3	  0	  1	  0	0.39132	  1	0.80000	  0	 23	 64	 89	  1	
25-Apr-2013	sub2330	2330	  1	  0	 82	  4	  2	  6	  1	  6	  0	  1	  1	0.33354	  0	0.80000	  0	 26	 87	 68	  1	
25-Apr-2013	sub2330	2330	  1	  0	 83	  4	  2	  1	  4	  2	  1	  2	  0	0.32027	  0	0.80000	  0	 21	 80	 81	  1	
25-Apr-2013	sub2330	2330	  1	  0	 84	  4	  2	  5	  6	  3	  0	  1	  0	0.34531	  1	0.80000	  0	 25	 67	 88	  1	
25-Apr-2013	sub2330	2330	  1	  0	 85	  4	  2	  3	  5	  3	  1	  2	  0	0.32616	  0	0.70000	  0	 23	 82	 83	  1	
25-Apr-2013	sub2330	2330	  1	  0	 86	  4	  2	  1	  4	  2	  1	  1	  1	0.14297	  1	0.70000	  0	 21	 60	 61	  1	
25-Apr-2013	sub2330	2330	  1	  0	 87	  4	  2	  3	  5	  3	  1	  2	  0	1.39863	  0	0.70000	  1	 23	 82	 51	  0	
25-Apr-2013	sub2330	2330	  1	  0	 88	  4	  2	  6	  1	  6	  1	  2	  1	0.33241	  1	0.80000	  0	 26	 65	 66	  1	
25-Apr-2013	sub2330	2330	  1	  0	 89	  4	  2	  4	  2	  3	  1	  2	  1	2.45615	  1	0.80000	  1	 24	 62	 51	  0	
25-Apr-2013	sub2330	2330	  1	  0	 90	  4	  2	  4	  2	  3	  0	  2	  0	0.47314	  1	0.90000	  0	 24	 64	 89	  1	
25-Apr-2013	sub2330	2330	  1	  0	 91	  4	  2	  1	  4	  2	  1	  1	  1	0.46233	  1	0.90000	  0	 21	 60	 61	  1	
25-Apr-2013	sub2330	2330	  1	  0	 92	  4	  2	  5	  6	  3	  0	  2	  1	0.28748	  0	0.90000	  0	 25	 87	 68	  1	
25-Apr-2013	sub2330	2330	  1	  0	 93	  4	  2	  4	  2	  3	  1	  1	  0	0.20479	  0	0.90000	  0	 24	 82	 83	  1	
25-Apr-2013	sub2330	2330	  1	  0	 94	  4	  2	  3	  5	  3	  1	  2	  0	0.61459	  0	0.90000	  0	 23	 82	 83	  0	
25-Apr-2013	sub2330	2330	  1	  0	 95	  4	  2	  1	  4	  2	  1	  1	  1	0.04390	  1	0.90000	  0	 21	 60	 61	  1	
25-Apr-2013	sub2330	2330	  1	  0	 96	  4	  2	  4	  2	  3	  1	  2	  1	0.48538	  1	0.90000	  0	 24	 62	 63	  1	
25-Apr-2013	sub2330	2330	  1	  0	 97	  4	  2	  2	  3	  3	  1	  1	  0	0.44519	  0	0.90000	  0	 22	 80	 81	  1	
25-Apr-2013	sub2330	2330	  1	  0	 98	  4	  2	  5	  6	  3	  0	  2	  1	0.65584	  0	0.90000	  0	 25	 87	 68	  0	
25-Apr-2013	sub2330	2330	  1	  0	 99	  4	  2	  6	  1	  6	  1	  2	  1	0.63380	  1	0.90000	  0	 26	 65	 66	  0	
25-Apr-2013	sub2330	2330	  1	  0	100	  4	  2	  1	  4	  2	  1	  2	  0	0.50140	  0	0.90000	  0	 21	 80	 81	  0	
25-Apr-2013	sub2330	2330	  1	  0	101	  4	  2	  4	  2	  3	  1	  1	  0	0.44881	  0	0.80000	  0	 24	 82	 83	  1	
25-Apr-2013	sub2330	2330	  1	  0	102	  4	  2	  3	  5	  3	  0	  1	  0	0.66101	  1	0.80000	  0	 23	 64	 89	  0	
25-Apr-2013	sub2330	2330	  1	  0	103	  4	  2	  5	  6	  3	  0	  2	  1	0.48515	  0	0.80000	  0	 25	 87	 68	  1	
25-Apr-2013	sub2330	2330	  1	  0	104	  4	  2	  5	  6	  3	  0	  2	  1	0.42556	  0	0.80000	  0	 25	 87	 68	  1	
25-Apr-2013	sub2330	2330	  1	  0	105	  4	  2	  1	  4	  2	  1	  2	  0	0.44962	  0	0.80000	  0	 21	 80	 81	  1	
25-Apr-2013	sub2330	2330	  1	  0	106	  4	  2	  6	  1	  6	  1	  1	  0	0.42228	  0	0.80000	  0	 26	 85	 86	  1	
25-Apr-2013	sub2330	2330	  1	  0	107	  4	  2	  4	  2	  3	  1	  2	  1	0.32999	  1	0.80000	  0	 24	 62	 63	  1	
25-Apr-2013	sub2330	2330	  1	  0	108	  4	  2	  4	  2	  3	  1	  2	  1	0.48906	  1	0.80000	  0	 24	 62	 63	  1	
25-Apr-2013	sub2330	2330	  1	  0	109	  4	  2	  2	  3	  3	  1	  1	  0	0.70303	  0	0.80000	  0	 22	 80	 81	  0	
25-Apr-2013	sub2330	2330	  1	  0	110	  4	  2	  1	  4	  2	  1	  2	  0	0.05753	  0	0.80000	  0	 21	 80	 81	  1	
25-Apr-2013	sub2330	2330	  1	  0	111	  4	  2	  5	  6	  3	  0	  1	  0	0.31212	  1	0.80000	  0	 25	 67	 88	  1	
25-Apr-2013	sub2330	2330	  1	  0	112	  4	  2	  3	  5	  3	  1	  2	  0	0.35500	  0	0.80000	  0	 23	 82	 83	  1	
25-Apr-2013	sub2330	2330	  1	  0	113	  4	  2	  4	  2	  3	  0	  1	  1	0.44472	  0	0.80000	  0	 24	 84	 69	  1	
25-Apr-2013	sub2330	2330	  1	  0	114	  4	  2	  1	  4	  2	  1	  1	  1	0.45044	  1	0.80000	  0	 21	 60	 61	  1	
25-Apr-2013	sub2330	2330	  1	  0	115	  4	  2	  5	  6	  3	  0	  2	  1	0.34613	  0	0.80000	  0	 25	 87	 68	  1	
25-Apr-2013	sub2330	2330	  1	  0	116	  4	  2	  4	  2	  3	  1	  2	  1	0.36096	  1	0.80000	  0	 24	 62	 63	  1	
25-Apr-2013	sub2330	2330	  1	  0	117	  4	  2	  5	  6	  3	  0	  2	  1	0.38251	  0	0.80000	  0	 25	 87	 68	  1	
25-Apr-2013	sub2330	2330	  1	  0	118	  4	  2	  6	  1	  6	  1	  2	  1	1.91336	  1	0.70000	  1	 26	 65	 51	  0	
25-Apr-2013	sub2330	2330	  1	  0	119	  4	  2	  2	  3	  3	  1	  2	  1	0.43459	  1	0.80000	  0	 22	 60	 61	  1	
25-Apr-2013	sub2330	2330	  1	  0	120	  4	  2	  6	  1	  6	  0	  2	  0	0.23715	  1	0.80000	  0	 26	 67	 88	  1	
25-Apr-2013	sub2330	2330	  1	  0	121	  4	  2	  4	  2	  3	  0	  2	  0	0.50496	  1	0.80000	  0	 24	 64	 89	  0	
25-Apr-2013	sub2330	2330	  1	  0	122	  4	  2	  1	  4	  2	  1	  1	  1	0.25225	  1	0.80000	  0	 21	 60	 61	  1	
25-Apr-2013	sub2330	2330	  1	  0	123	  4	  2	  2	  3	  3	  1	  2	  1	0.55238	  1	0.80000	  0	 22	 60	 61	  0	
25-Apr-2013	sub2330	2330	  1	  0	124	  4	  2	  2	  3	  3	  1	  2	  1	0.35165	  1	0.80000	  0	 22	 60	 61	  1	
25-Apr-2013	sub2330	2330	  1	  0	125	  4	  2	  3	  5	  3	  1	  1	  1	0.49214	  1	0.80000	  0	 23	 62	 63	  1	
25-Apr-2013	sub2330	2330	  1	  0	126	  4	  2	  3	  5	  3	  1	  2	  0	0.39201	  0	0.80000	  0	 23	 82	 83	  1	
25-Apr-2013	sub2330	2330	  1	  0	127	  4	  2	  2	  3	  3	  1	  2	  1	2.44367	  1	0.80000	  1	 22	 60	 51	  0	
25-Apr-2013	sub2330	2330	  1	  0	128	  4	  2	  2	  3	  3	  1	  2	  1	0.37191	  1	0.90000	  0	 22	 60	 61	  1	
25-Apr-2013	sub2330	2330	  1	  0	129	  4	  2	  5	  6	  3	  0	  2	  1	0.49117	  0	0.90000	  0	 25	 87	 68	  1	
25-Apr-2013	sub2330	2330	  1	  0	130	  4	  2	  1	  4	  2	  1	  2	  0	0.00017	  0	0.80000	  0	 21	 80	 81	  1	
25-Apr-2013	sub2330	2330	  1	  0	131	  4	  2	  3	  5	  3	  1	  1	  1	0.50267	  1	0.80000	  0	 23	 62	 63	  0	
25-Apr-2013	sub2330	2330	  1	  0	132	  4	  2	  6	  1	  6	  0	  2	  0	1.87907	  1	0.80000	  1	 26	 67	 51	  0	
25-Apr-2013	sub2330	2330	  1	  0	133	  4	  2	  4	  2	  3	  1	  2	  1	0.44972	  1	0.90000	  0	 24	 62	 63	  1	
25-Apr-2013	sub2330	2330	  1	  0	134	  4	  2	  6	  1	  6	  0	  2	  0	1.97036	  1	0.90000	  1	 26	 67	 51	  0	
25-Apr-2013	sub2330	2330	  1	  0	135	  4	  2	  6	  1	  6	  1	  2	  1	0.29926	  1	0.90000	  0	 26	 65	 66	  1	
25-Apr-2013	sub2330	2330	  1	  0	136	  4	  2	  5	  6	  3	  0	  2	  1	0.18862	  0	0.90000	  0	 25	 87	 68	  1	
25-Apr-2013	sub2330	2330	  1	  0	137	  4	  2	  5	  6	  3	  0	  2	  1	0.38108	  0	0.90000	  0	 25	 87	 68	  1	
25-Apr-2013	sub2330	2330	  1	  0	138	  4	  2	  2	  3	  3	  1	  2	  1	0.03532	  1	0.90000	  0	 22	 60	 61	  1	
25-Apr-2013	sub2330	2330	  1	  0	139	  4	  2	  4	  2	  3	  1	  2	  1	0.40637	  1	0.90000	  0	 24	 62	 63	  1	
25-Apr-2013	sub2330	2330	  1	  0	140	  4	  2	  2	  3	  3	  1	  2	  1	0.47789	  1	0.90000	  0	 22	 60	 61	  1	
25-Apr-2013	sub2330	2330	  1	  0	141	  4	  2	  6	  1	  6	  0	  2	  0	0.65271	  1	0.90000	  0	 26	 67	 88	  0	
25-Apr-2013	sub2330	2330	  1	  0	142	  4	  2	  6	  1	  6	  1	  2	  1	0.31988	  1	0.90000	  0	 26	 65	 66	  1	
25-Apr-2013	sub2330	2330	  1	  0	143	  4	  2	  5	  6	  3	  0	  1	  0	0.47418	  1	0.90000	  0	 25	 67	 88	  1	
25-Apr-2013	sub2330	2330	  1	  0	144	  4	  2	  1	  4	  2	  1	  2	  0	0.55678	  0	0.90000	  0	 21	 80	 81	  0	
25-Apr-2013	sub2330	2330	  1	  0	145	  4	  2	  5	  6	  3	  0	  1	  0	0.50802	  1	0.90000	  0	 25	 67	 88	  0	
25-Apr-2013	sub2330	2330	  1	  0	146	  4	  2	  2	  3	  3	  1	  2	  1	0.36460	  1	0.90000	  0	 22	 60	 61	  1	
25-Apr-2013	sub2330	2330	  1	  0	147	  4	  2	  2	  3	  3	  1	  2	  1	0.39678	  1	0.90000	  0	 22	 60	 61	  1	
25-Apr-2013	sub2330	2330	  1	  0	148	  4	  2	  1	  4	  2	  1	  2	  0	0.61059	  0	0.90000	  0	 21	 80	 81	  0	
25-Apr-2013	sub2330	2330	  1	  0	149	  4	  2	  4	  2	  3	  1	  1	  0	0.36420	  0	0.90000	  0	 24	 82	 83	  1	
25-Apr-2013	sub2330	2330	  1	  0	150	  4	  2	  6	  1	  6	  0	  2	  0	0.26953	  1	0.90000	  0	 26	 67	 88	  1	
25-Apr-2013	sub2330	2330	  1	  0	  1	  5	  1	  6	  4	  6	  0	  2	  0	0.56507	  1	0.60000	  0	 16	 37	 48	  0	
25-Apr-2013	sub2330	2330	  1	  0	  2	  5	  1	  1	  5	  5	  1	  2	  0	0.63848	  0	0.30000	  1	 11	 40	 51	  0	
25-Apr-2013	sub2330	2330	  1	  0	  3	  5	  1	  2	  1	  2	  1	  1	  0	0.44527	  0	0.90000	  0	 12	 40	 41	  1	
25-Apr-2013	sub2330	2330	  1	  0	  4	  5	  1	  3	  6	  5	  1	  2	  0	0.43527	  0	0.90000	  0	 13	 42	 43	  1	
25-Apr-2013	sub2330	2330	  1	  0	  5	  5	  1	  6	  4	  6	  0	  1	  1	0.57709	  0	0.90000	  0	 16	 47	 38	  0	
25-Apr-2013	sub2330	2330	  1	  0	  6	  5	  1	  6	  4	  6	  1	  1	  0	0.49399	  0	0.90000	  0	 16	 45	 46	  1	
25-Apr-2013	sub2330	2330	  1	  0	  7	  5	  1	  4	  2	  2	  1	  2	  1	0.49095	  1	0.90000	  0	 14	 32	 33	  1	
25-Apr-2013	sub2330	2330	  1	  0	  8	  5	  1	  1	  5	  5	  1	  1	  1	0.51261	  1	0.90000	  0	 11	 30	 31	  0	
25-Apr-2013	sub2330	2330	  1	  0	  9	  5	  1	  1	  5	  5	  1	  1	  1	0.94455	  1	0.90000	  1	 11	 30	 51	  0	
25-Apr-2013	sub2330	2330	  1	  0	 10	  5	  1	  6	  4	  6	  0	  1	  1	0.57803	  0	0.90000	  0	 16	 47	 38	  0	
25-Apr-2013	sub2330	2330	  1	  0	 11	  5	  1	  4	  2	  2	  0	  1	  1	0.40380	  0	0.90000	  0	 14	 44	 39	  1	
25-Apr-2013	sub2330	2330	  1	  0	 12	  5	  1	  4	  2	  2	  1	  1	  0	0.50980	  0	0.90000	  0	 14	 42	 43	  0	
25-Apr-2013	sub2330	2330	  1	  0	 13	  5	  1	  1	  5	  5	  1	  2	  0	0.46364	  0	0.90000	  0	 11	 40	 41	  1	
25-Apr-2013	sub2330	2330	  1	  0	 14	  5	  1	  2	  1	  2	  1	  1	  0	0.45057	  0	0.90000	  0	 12	 40	 41	  1	
25-Apr-2013	sub2330	2330	  1	  0	 15	  5	  1	  3	  6	  5	  1	  2	  0	0.51379	  0	0.90000	  0	 13	 42	 43	  0	
25-Apr-2013	sub2330	2330	  1	  0	 16	  5	  1	  2	  1	  2	  1	  1	  0	0.41152	  0	0.90000	  0	 12	 40	 41	  1	
25-Apr-2013	sub2330	2330	  1	  0	 17	  5	  1	  1	  5	  5	  1	  2	  0	0.43517	  0	0.90000	  0	 11	 40	 41	  1	
25-Apr-2013	sub2330	2330	  1	  0	 18	  5	  1	  5	  3	  2	  1	  1	  1	0.49793	  1	0.90000	  0	 15	 35	 36	  1	
25-Apr-2013	sub2330	2330	  1	  0	 19	  5	  1	  3	  6	  5	  0	  1	  0	0.56000	  1	0.90000	  0	 13	 34	 49	  0	
25-Apr-2013	sub2330	2330	  1	  0	 20	  5	  1	  4	  2	  2	  0	  2	  0	0.53456	  1	0.90000	  0	 14	 34	 49	  0	
25-Apr-2013	sub2330	2330	  1	  0	 21	  5	  1	  2	  1	  2	  1	  1	  0	0.44851	  0	0.90000	  0	 12	 40	 41	  1	
25-Apr-2013	sub2330	2330	  1	  0	 22	  5	  1	  3	  6	  5	  0	  2	  1	0.47934	  0	0.90000	  0	 13	 44	 39	  1	
25-Apr-2013	sub2330	2330	  1	  0	 23	  5	  1	  2	  1	  2	  1	  2	  1	0.56262	  1	0.90000	  0	 12	 30	 31	  0	
25-Apr-2013	sub2330	2330	  1	  0	 24	  5	  1	  3	  6	  5	  1	  1	  1	0.68016	  1	0.90000	  0	 13	 32	 33	  0	
25-Apr-2013	sub2330	2330	  1	  0	 25	  5	  1	  4	  2	  2	  1	  2	  1	0.44923	  1	0.90000	  0	 14	 32	 33	  1	
25-Apr-2013	sub2330	2330	  1	  0	 26	  5	  1	  1	  5	  5	  1	  1	  1	0.47355	  1	0.90000	  0	 11	 30	 31	  1	
25-Apr-2013	sub2330	2330	  1	  0	 27	  5	  1	  5	  3	  2	  0	  2	  1	0.58697	  0	0.90000	  0	 15	 47	 38	  0	
25-Apr-2013	sub2330	2330	  1	  0	 28	  5	  1	  5	  3	  2	  1	  2	  0	0.93074	  0	0.90000	  1	 15	 45	 51	  0	
25-Apr-2013	sub2330	2330	  1	  0	 29	  5	  1	  2	  1	  2	  1	  2	  1	0.52358	  1	0.90000	  0	 12	 30	 31	  0	
25-Apr-2013	sub2330	2330	  1	  0	 30	  5	  1	  4	  2	  2	  1	  2	  1	0.43013	  1	0.90000	  0	 14	 32	 33	  1	
25-Apr-2013	sub2330	2330	  1	  0	 31	  5	  1	  3	  6	  5	  1	  1	  1	0.73314	  1	0.90000	  0	 13	 32	 33	  0	
25-Apr-2013	sub2330	2330	  1	  0	 32	  5	  1	  3	  6	  5	  0	  1	  0	0.52198	  1	0.90000	  0	 13	 34	 49	  0	
25-Apr-2013	sub2330	2330	  1	  0	 33	  5	  1	  5	  3	  2	  0	  1	  0	0.43086	  1	0.90000	  0	 15	 37	 48	  1	
25-Apr-2013	sub2330	2330	  1	  0	 34	  5	  1	  1	  5	  5	  1	  2	  0	0.41143	  0	0.90000	  0	 11	 40	 41	  1	
25-Apr-2013	sub2330	2330	  1	  0	 35	  5	  1	  5	  3	  2	  1	  2	  0	0.61332	  0	0.90000	  0	 15	 45	 46	  0	
25-Apr-2013	sub2330	2330	  1	  0	 36	  5	  1	  5	  3	  2	  1	  1	  1	0.37435	  1	0.90000	  0	 15	 35	 36	  1	
25-Apr-2013	sub2330	2330	  1	  0	 37	  5	  1	  4	  2	  2	  1	  2	  1	0.59801	  1	0.90000	  0	 14	 32	 33	  0	
25-Apr-2013	sub2330	2330	  1	  0	 38	  5	  1	  1	  5	  5	  1	  1	  1	0.58932	  1	0.90000	  0	 11	 30	 31	  0	
25-Apr-2013	sub2330	2330	  1	  0	 39	  5	  1	  3	  6	  5	  1	  1	  1	0.40111	  1	0.90000	  0	 13	 32	 33	  1	
25-Apr-2013	sub2330	2330	  1	  0	 40	  5	  1	  6	  4	  6	  0	  1	  1	0.49189	  0	0.90000	  0	 16	 47	 38	  1	
25-Apr-2013	sub2330	2330	  1	  0	 41	  5	  1	  3	  6	  5	  1	  1	  1	0.49650	  1	0.90000	  0	 13	 32	 33	  1	
25-Apr-2013	sub2330	2330	  1	  0	 42	  5	  1	  1	  5	  5	  1	  1	  1	0.47407	  1	0.90000	  0	 11	 30	 31	  1	
25-Apr-2013	sub2330	2330	  1	  0	 43	  5	  1	  6	  4	  6	  0	  1	  1	0.49184	  0	0.90000	  0	 16	 47	 38	  1	
25-Apr-2013	sub2330	2330	  1	  0	 44	  5	  1	  6	  4	  6	  1	  2	  1	0.62588	  1	0.80000	  0	 16	 35	 36	  0	
25-Apr-2013	sub2330	2330	  1	  0	 45	  5	  1	  5	  3	  2	  1	  2	  0	0.65056	  0	0.80000	  0	 15	 45	 46	  0	
25-Apr-2013	sub2330	2330	  1	  0	 46	  5	  1	  4	  2	  2	  1	  1	  0	0.37866	  0	0.80000	  0	 14	 42	 43	  1	
25-Apr-2013	sub2330	2330	  1	  0	 47	  5	  1	  4	  2	  2	  1	  2	  1	0.40786	  1	0.80000	  0	 14	 32	 33	  1	
25-Apr-2013	sub2330	2330	  1	  0	 48	  5	  1	  2	  1	  2	  1	  2	  1	0.50617	  1	0.80000	  0	 12	 30	 31	  0	
25-Apr-2013	sub2330	2330	  1	  0	 49	  5	  1	  4	  2	  2	  1	  2	  1	0.54461	  1	0.80000	  0	 14	 32	 33	  0	
25-Apr-2013	sub2330	2330	  1	  0	 50	  5	  1	  6	  4	  6	  1	  1	  0	0.54772	  0	0.80000	  0	 16	 45	 46	  0	
25-Apr-2013	sub2330	2330	  1	  0	 51	  5	  1	  1	  5	  5	  1	  1	  1	0.48707	  1	0.70000	  0	 11	 30	 31	  1	
25-Apr-2013	sub2330	2330	  1	  0	 52	  5	  1	  6	  4	  6	  0	  1	  1	0.55816	  0	0.70000	  0	 16	 47	 38	  0	
25-Apr-2013	sub2330	2330	  1	  0	 53	  5	  1	  3	  6	  5	  1	  1	  1	0.52247	  1	0.70000	  0	 13	 32	 33	  0	
25-Apr-2013	sub2330	2330	  1	  0	 54	  5	  1	  2	  1	  2	  1	  2	  1	0.58236	  1	0.70000	  0	 12	 30	 31	  0	
25-Apr-2013	sub2330	2330	  1	  0	 55	  5	  1	  4	  2	  2	  1	  2	  1	0.51599	  1	0.70000	  0	 14	 32	 33	  0	
25-Apr-2013	sub2330	2330	  1	  0	 56	  5	  1	  2	  1	  2	  1	  2	  1	0.49923	  1	0.70000	  0	 12	 30	 31	  1	
25-Apr-2013	sub2330	2330	  1	  0	 57	  5	  1	  5	  3	  2	  1	  1	  1	0.64359	  1	0.70000	  0	 15	 35	 36	  0	
25-Apr-2013	sub2330	2330	  1	  0	 58	  5	  1	  6	  4	  6	  0	  1	  1	0.53610	  0	0.70000	  0	 16	 47	 38	  0	
25-Apr-2013	sub2330	2330	  1	  0	 59	  5	  1	  3	  6	  5	  1	  2	  0	0.61627	  0	0.70000	  0	 13	 42	 43	  0	
25-Apr-2013	sub2330	2330	  1	  0	 60	  5	  1	  3	  6	  5	  1	  1	  1	0.40281	  1	0.70000	  0	 13	 32	 33	  1	
25-Apr-2013	sub2330	2330	  1	  0	 61	  5	  1	  6	  4	  6	  0	  1	  1	0.47684	  0	0.60000	  0	 16	 47	 38	  1	
25-Apr-2013	sub2330	2330	  1	  0	 62	  5	  1	  5	  3	  2	  0	  1	  0	0.42983	  1	0.60000	  0	 15	 37	 48	  1	
25-Apr-2013	sub2330	2330	  1	  0	 63	  5	  1	  4	  2	  2	  1	  1	  0	0.56583	  0	0.60000	  0	 14	 42	 43	  0	
25-Apr-2013	sub2330	2330	  1	  0	 64	  5	  1	  2	  1	  2	  1	  2	  1	0.40046	  1	0.60000	  0	 12	 30	 31	  1	
25-Apr-2013	sub2330	2330	  1	  0	 65	  5	  1	  1	  5	  5	  1	  1	  1	0.52167	  1	0.60000	  0	 11	 30	 31	  0	
25-Apr-2013	sub2330	2330	  1	  0	 66	  5	  1	  5	  3	  2	  0	  1	  0	0.41634	  1	0.60000	  0	 15	 37	 48	  1	
25-Apr-2013	sub2330	2330	  1	  0	 67	  5	  1	  5	  3	  2	  0	  2	  1	0.51709	  0	0.60000	  0	 15	 47	 38	  0	
25-Apr-2013	sub2330	2330	  1	  0	 68	  5	  1	  2	  1	  2	  1	  2	  1	0.58521	  1	0.60000	  0	 12	 30	 31	  0	
25-Apr-2013	sub2330	2330	  1	  0	 69	  5	  1	  2	  1	  2	  1	  2	  1	0.47836	  1	0.60000	  0	 12	 30	 31	  1	
25-Apr-2013	sub2330	2330	  1	  0	 70	  5	  1	  5	  3	  2	  1	  2	  0	0.52165	  0	0.60000	  0	 15	 45	 46	  0	
25-Apr-2013	sub2330	2330	  1	  0	 71	  5	  1	  6	  4	  6	  1	  1	  0	0.50866	  0	0.60000	  0	 16	 45	 46	  0	
25-Apr-2013	sub2330	2330	  1	  0	 72	  5	  1	  2	  1	  2	  1	  2	  1	0.64497	  1	0.60000	  1	 12	 30	 51	  0	
25-Apr-2013	sub2330	2330	  1	  0	 73	  5	  1	  1	  5	  5	  1	  1	  1	0.53585	  1	0.70000	  0	 11	 30	 31	  0	
25-Apr-2013	sub2330	2330	  1	  0	 74	  5	  1	  3	  6	  5	  1	  1	  1	0.45893	  1	0.70000	  0	 13	 32	 33	  1	
25-Apr-2013	sub2330	2330	  1	  0	 75	  5	  1	  6	  4	  6	  1	  1	  0	0.41545	  0	0.70000	  0	 16	 45	 46	  1	
25-Apr-2013	sub2330	2330	  1	  0	 76	  5	  2	  1	  5	  5	  1	  1	  1	0.44504	  1	0.70000	  0	 21	 60	 61	  1	
25-Apr-2013	sub2330	2330	  1	  0	 77	  5	  2	  5	  3	  2	  0	  1	  0	0.42321	  1	0.70000	  0	 25	 67	 88	  1	
25-Apr-2013	sub2330	2330	  1	  0	 78	  5	  2	  3	  6	  5	  1	  1	  1	0.33169	  1	0.70000	  0	 23	 62	 63	  1	
25-Apr-2013	sub2330	2330	  1	  0	 79	  5	  2	  1	  5	  5	  1	  1	  1	0.46852	  1	0.70000	  0	 21	 60	 61	  1	
25-Apr-2013	sub2330	2330	  1	  0	 80	  5	  2	  4	  2	  2	  0	  1	  1	0.45985	  0	0.70000	  0	 24	 84	 69	  1	
25-Apr-2013	sub2330	2330	  1	  0	 81	  5	  2	  3	  6	  5	  0	  1	  0	0.48660	  1	0.60000	  0	 23	 64	 89	  1	
25-Apr-2013	sub2330	2330	  1	  0	 82	  5	  2	  1	  5	  5	  1	  1	  1	0.42122	  1	0.60000	  0	 21	 60	 61	  1	
25-Apr-2013	sub2330	2330	  1	  0	 83	  5	  2	  3	  6	  5	  1	  1	  1	0.44589	  1	0.60000	  0	 23	 62	 63	  1	
25-Apr-2013	sub2330	2330	  1	  0	 84	  5	  2	  6	  4	  6	  0	  1	  1	0.46463	  0	0.60000	  0	 26	 87	 68	  1	
25-Apr-2013	sub2330	2330	  1	  0	 85	  5	  2	  5	  3	  2	  0	  2	  1	0.69001	  0	0.60000	  1	 25	 87	 51	  0	
25-Apr-2013	sub2330	2330	  1	  0	 86	  5	  2	  6	  4	  6	  1	  2	  1	0.47698	  1	0.70000	  0	 26	 65	 66	  1	
25-Apr-2013	sub2330	2330	  1	  0	 87	  5	  2	  6	  4	  6	  1	  1	  0	0.40415	  0	0.70000	  0	 26	 85	 86	  1	
25-Apr-2013	sub2330	2330	  1	  0	 88	  5	  2	  5	  3	  2	  0	  1	  0	0.36895	  1	0.70000	  0	 25	 67	 88	  1	
25-Apr-2013	sub2330	2330	  1	  0	 89	  5	  2	  5	  3	  2	  0	  1	  0	0.37113	  1	0.70000	  0	 25	 67	 88	  1	
25-Apr-2013	sub2330	2330	  1	  0	 90	  5	  2	  3	  6	  5	  1	  1	  1	0.52434	  1	0.70000	  0	 23	 62	 63	  0	
25-Apr-2013	sub2330	2330	  1	  0	 91	  5	  2	  3	  6	  5	  1	  2	  0	0.49175	  0	0.70000	  0	 23	 82	 83	  1	
25-Apr-2013	sub2330	2330	  1	  0	 92	  5	  2	  3	  6	  5	  1	  1	  1	0.38206	  1	0.70000	  0	 23	 62	 63	  1	
25-Apr-2013	sub2330	2330	  1	  0	 93	  5	  2	  3	  6	  5	  1	  1	  1	0.34449	  1	0.70000	  0	 23	 62	 63	  1	
25-Apr-2013	sub2330	2330	  1	  0	 94	  5	  2	  6	  4	  6	  1	  1	  0	0.51434	  0	0.70000	  0	 26	 85	 86	  0	
25-Apr-2013	sub2330	2330	  1	  0	 95	  5	  2	  4	  2	  2	  1	  1	  0	0.48417	  0	0.70000	  0	 24	 82	 83	  1	
25-Apr-2013	sub2330	2330	  1	  0	 96	  5	  2	  1	  5	  5	  1	  1	  1	0.48366	  1	0.70000	  0	 21	 60	 61	  1	
25-Apr-2013	sub2330	2330	  1	  0	 97	  5	  2	  5	  3	  2	  0	  2	  1	0.82485	  0	0.70000	  1	 25	 87	 51	  0	
25-Apr-2013	sub2330	2330	  1	  0	 98	  5	  2	  1	  5	  5	  1	  1	  1	0.48615	  1	0.80000	  0	 21	 60	 61	  1	
25-Apr-2013	sub2330	2330	  1	  0	 99	  5	  2	  1	  5	  5	  1	  1	  1	0.46814	  1	0.80000	  0	 21	 60	 61	  1	
25-Apr-2013	sub2330	2330	  1	  0	100	  5	  2	  4	  2	  2	  1	  1	  0	0.54610	  0	0.80000	  0	 24	 82	 83	  0	
25-Apr-2013	sub2330	2330	  1	  0	101	  5	  2	  6	  4	  6	  0	  2	  0	0.36369	  1	0.70000	  0	 26	 67	 88	  1	
25-Apr-2013	sub2330	2330	  1	  0	102	  5	  2	  3	  6	  5	  1	  1	  1	0.27401	  1	0.70000	  0	 23	 62	 63	  1	
25-Apr-2013	sub2330	2330	  1	  0	103	  5	  2	  2	  1	  2	  1	  2	  1	0.56124	  1	0.70000	  0	 22	 60	 61	  0	
25-Apr-2013	sub2330	2330	  1	  0	104	  5	  2	  2	  1	  2	  1	  1	  0	0.62291	  0	0.70000	  0	 22	 80	 81	  0	
25-Apr-2013	sub2330	2330	  1	  0	105	  5	  2	  1	  5	  5	  1	  1	  1	0.56352	  1	0.70000	  0	 21	 60	 61	  0	
25-Apr-2013	sub2330	2330	  1	  0	106	  5	  2	  6	  4	  6	  0	  1	  1	0.30925	  0	0.70000	  0	 26	 87	 68	  1	
25-Apr-2013	sub2330	2330	  1	  0	107	  5	  2	  6	  4	  6	  0	  1	  1	0.26082	  0	0.70000	  0	 26	 87	 68	  1	
25-Apr-2013	sub2330	2330	  1	  0	108	  5	  2	  1	  5	  5	  1	  1	  1	0.49385	  1	0.70000	  0	 21	 60	 61	  1	
25-Apr-2013	sub2330	2330	  1	  0	109	  5	  2	  5	  3	  2	  0	  2	  1	0.62116	  0	0.70000	  0	 25	 87	 68	  0	
25-Apr-2013	sub2330	2330	  1	  0	110	  5	  2	  6	  4	  6	  0	  1	  1	0.53116	  0	0.70000	  0	 26	 87	 68	  0	
25-Apr-2013	sub2330	2330	  1	  0	111	  5	  2	  3	  6	  5	  1	  1	  1	0.62260	  1	0.70000	  0	 23	 62	 63	  0	
25-Apr-2013	sub2330	2330	  1	  0	112	  5	  2	  6	  4	  6	  1	  1	  0	0.43627	  0	0.70000	  0	 26	 85	 86	  1	
25-Apr-2013	sub2330	2330	  1	  0	113	  5	  2	  5	  3	  2	  0	  2	  1	0.63288	  0	0.70000	  0	 25	 87	 68	  0	
25-Apr-2013	sub2330	2330	  1	  0	114	  5	  2	  4	  2	  2	  1	  2	  1	0.58619	  1	0.70000	  0	 24	 62	 63	  0	
25-Apr-2013	sub2330	2330	  1	  0	115	  5	  2	  3	  6	  5	  0	  2	  1	0.51943	  0	0.70000	  0	 23	 84	 69	  0	
25-Apr-2013	sub2330	2330	  1	  0	116	  5	  2	  2	  1	  2	  1	  2	  1	0.59841	  1	0.70000	  0	 22	 60	 61	  0	
25-Apr-2013	sub2330	2330	  1	  0	117	  5	  2	  4	  2	  2	  1	  2	  1	0.57721	  1	0.70000	  0	 24	 62	 63	  0	
25-Apr-2013	sub2330	2330	  1	  0	118	  5	  2	  1	  5	  5	  1	  1	  1	0.48095	  1	0.70000	  0	 21	 60	 61	  1	
25-Apr-2013	sub2330	2330	  1	  0	119	  5	  2	  4	  2	  2	  1	  2	  1	0.60975	  1	0.70000	  0	 24	 62	 63	  0	
25-Apr-2013	sub2330	2330	  1	  0	120	  5	  2	  3	  6	  5	  1	  1	  1	0.71817	  1	0.70000	  1	 23	 62	 51	  0	
25-Apr-2013	sub2330	2330	  1	  0	121	  5	  2	  1	  5	  5	  1	  1	  1	0.57555	  1	0.70000	  0	 21	 60	 61	  0	
25-Apr-2013	sub2330	2330	  1	  0	122	  5	  2	  2	  1	  2	  1	  2	  1	0.52122	  1	0.70000	  0	 22	 60	 61	  0	
25-Apr-2013	sub2330	2330	  1	  0	123	  5	  2	  4	  2	  2	  1	  2	  1	0.57090	  1	0.70000	  0	 24	 62	 63	  0	
25-Apr-2013	sub2330	2330	  1	  0	124	  5	  2	  1	  5	  5	  1	  2	  0	0.39816	  0	0.70000	  0	 21	 80	 81	  1	
25-Apr-2013	sub2330	2330	  1	  0	125	  5	  2	  4	  2	  2	  1	  2	  1	0.60007	  1	0.70000	  0	 24	 62	 63	  0	
25-Apr-2013	sub2330	2330	  1	  0	126	  5	  2	  2	  1	  2	  1	  1	  0	0.39979	  0	0.70000	  0	 22	 80	 81	  1	
25-Apr-2013	sub2330	2330	  1	  0	127	  5	  2	  6	  4	  6	  1	  2	  1	0.47936	  1	0.70000	  0	 26	 65	 66	  1	
25-Apr-2013	sub2330	2330	  1	  0	128	  5	  2	  2	  1	  2	  1	  1	  0	0.46612	  0	0.70000	  0	 22	 80	 81	  1	
25-Apr-2013	sub2330	2330	  1	  0	129	  5	  2	  5	  3	  2	  0	  2	  1	0.43669	  0	0.70000	  0	 25	 87	 68	  1	
25-Apr-2013	sub2330	2330	  1	  0	130	  5	  2	  2	  1	  2	  1	  2	  1	0.44265	  1	0.70000	  0	 22	 60	 61	  1	
25-Apr-2013	sub2330	2330	  1	  0	131	  5	  2	  4	  2	  2	  1	  2	  1	0.41688	  1	0.70000	  0	 24	 62	 63	  1	
25-Apr-2013	sub2330	2330	  1	  0	132	  5	  2	  5	  3	  2	  0	  2	  1	0.83723	  0	0.70000	  1	 25	 87	 51	  0	
25-Apr-2013	sub2330	2330	  1	  0	133	  5	  2	  4	  2	  2	  0	  2	  0	0.44433	  1	0.80000	  0	 24	 64	 89	  1	
25-Apr-2013	sub2330	2330	  1	  0	134	  5	  2	  5	  3	  2	  0	  2	  1	0.37048	  0	0.80000	  0	 25	 87	 68	  1	
25-Apr-2013	sub2330	2330	  1	  0	135	  5	  2	  4	  2	  2	  0	  2	  0	0.47007	  1	0.70000	  0	 24	 64	 89	  1	
25-Apr-2013	sub2330	2330	  1	  0	136	  5	  2	  5	  3	  2	  0	  2	  1	0.41587	  0	0.70000	  0	 25	 87	 68	  1	
25-Apr-2013	sub2330	2330	  1	  0	137	  5	  2	  2	  1	  2	  1	  2	  1	0.46292	  1	0.70000	  0	 22	 60	 61	  1	
25-Apr-2013	sub2330	2330	  1	  0	138	  5	  2	  6	  4	  6	  0	  2	  0	0.38629	  1	0.70000	  0	 26	 67	 88	  1	
25-Apr-2013	sub2330	2330	  1	  0	139	  5	  2	  2	  1	  2	  1	  1	  0	0.38359	  0	0.70000	  0	 22	 80	 81	  1	
25-Apr-2013	sub2330	2330	  1	  0	140	  5	  2	  4	  2	  2	  1	  2	  1	0.34466	  1	0.70000	  0	 24	 62	 63	  1	
25-Apr-2013	sub2330	2330	  1	  0	141	  5	  2	  3	  6	  5	  1	  2	  0	0.47169	  0	0.70000	  0	 23	 82	 83	  1	
25-Apr-2013	sub2330	2330	  1	  0	142	  5	  2	  2	  1	  2	  1	  1	  0	0.28694	  0	0.70000	  0	 22	 80	 81	  1	
25-Apr-2013	sub2330	2330	  1	  0	143	  5	  2	  6	  4	  6	  1	  1	  0	0.51512	  0	0.70000	  0	 26	 85	 86	  0	
25-Apr-2013	sub2330	2330	  1	  0	144	  5	  2	  2	  1	  2	  1	  1	  0	0.55972	  0	0.70000	  0	 22	 80	 81	  0	
25-Apr-2013	sub2330	2330	  1	  0	145	  5	  2	  1	  5	  5	  1	  1	  1	0.56599	  1	0.70000	  0	 21	 60	 61	  0	
25-Apr-2013	sub2330	2330	  1	  0	146	  5	  2	  1	  5	  5	  1	  1	  1	0.47615	  1	0.70000	  0	 21	 60	 61	  1	
25-Apr-2013	sub2330	2330	  1	  0	147	  5	  2	  4	  2	  2	  1	  2	  1	0.55917	  1	0.70000	  0	 24	 62	 63	  0	
25-Apr-2013	sub2330	2330	  1	  0	148	  5	  2	  5	  3	  2	  0	  1	  0	0.36160	  1	0.70000	  0	 25	 67	 88	  1	
25-Apr-2013	sub2330	2330	  1	  0	149	  5	  2	  2	  1	  2	  1	  2	  1	0.46035	  1	0.70000	  0	 22	 60	 61	  1	
25-Apr-2013	sub2330	2330	  1	  0	150	  5	  2	  5	  3	  2	  0	  2	  1	0.44809	  0	0.70000	  0	 25	 87	 68	  1	
25-Apr-2013	sub2330	2330	  1	  0	  1	  6	  1	  5	  4	  5	  1	  2	  0	0.60850	  0	0.60000	  1	 15	 45	 51	  0	
25-Apr-2013	sub2330	2330	  1	  0	  2	  6	  1	  5	  4	  5	  0	  2	  1	0.44833	  0	0.90000	  0	 15	 47	 38	  1	
25-Apr-2013	sub2330	2330	  1	  0	  3	  6	  1	  4	  1	  3	  0	  2	  0	0.48063	  1	0.90000	  0	 14	 34	 49	  1	
25-Apr-2013	sub2330	2330	  1	  0	  4	  6	  1	  3	  6	  6	  1	  2	  0	0.54666	  0	0.90000	  0	 13	 42	 43	  0	
25-Apr-2013	sub2330	2330	  1	  0	  5	  6	  1	  4	  1	  3	  1	  1	  0	0.46091	  0	0.90000	  0	 14	 42	 43	  1	
25-Apr-2013	sub2330	2330	  1	  0	  6	  6	  1	  2	  5	  6	  1	  1	  0	0.61045	  0	0.90000	  0	 12	 40	 41	  0	
25-Apr-2013	sub2330	2330	  1	  0	  7	  6	  1	  1	  3	  1	  1	  2	  0	0.61356	  0	0.90000	  0	 11	 40	 41	  0	
25-Apr-2013	sub2330	2330	  1	  0	  8	  6	  1	  3	  6	  6	  1	  1	  1	0.45869	  1	0.90000	  0	 13	 32	 33	  1	
25-Apr-2013	sub2330	2330	  1	  0	  9	  6	  1	  2	  5	  6	  1	  1	  0	0.55384	  0	0.90000	  0	 12	 40	 41	  0	
25-Apr-2013	sub2330	2330	  1	  0	 10	  6	  1	  4	  1	  3	  1	  1	  0	0.50443	  0	0.90000	  0	 14	 42	 43	  0	
25-Apr-2013	sub2330	2330	  1	  0	 11	  6	  1	  3	  6	  6	  1	  1	  1	0.60585	  1	0.90000	  0	 13	 32	 33	  0	
25-Apr-2013	sub2330	2330	  1	  0	 12	  6	  1	  2	  5	  6	  1	  2	  1	0.45731	  1	0.90000	  0	 12	 30	 31	  1	
25-Apr-2013	sub2330	2330	  1	  0	 13	  6	  1	  4	  1	  3	  1	  1	  0	0.52011	  0	0.90000	  0	 14	 42	 43	  0	
25-Apr-2013	sub2330	2330	  1	  0	 14	  6	  1	  1	  3	  1	  1	  1	  1	0.50859	  1	0.90000	  0	 11	 30	 31	  0	
25-Apr-2013	sub2330	2330	  1	  0	 15	  6	  1	  3	  6	  6	  1	  1	  1	0.58432	  1	0.90000	  0	 13	 32	 33	  0	
25-Apr-2013	sub2330	2330	  1	  0	 16	  6	  1	  2	  5	  6	  1	  2	  1	0.41329	  1	0.80000	  0	 12	 30	 31	  1	
25-Apr-2013	sub2330	2330	  1	  0	 17	  6	  1	  3	  6	  6	  1	  2	  0	0.41625	  0	0.80000	  0	 13	 42	 43	  1	
25-Apr-2013	sub2330	2330	  1	  0	 18	  6	  1	  3	  6	  6	  1	  1	  1	0.35773	  1	0.70000	  0	 13	 32	 33	  1	
25-Apr-2013	sub2330	2330	  1	  0	 19	  6	  1	  5	  4	  5	  1	  2	  0	0.56507	  0	0.70000	  0	 15	 45	 46	  0	
25-Apr-2013	sub2330	2330	  1	  0	 20	  6	  1	  5	  4	  5	  1	  1	  1	0.51730	  1	0.70000	  0	 15	 35	 36	  0	
25-Apr-2013	sub2330	2330	  1	  0	 21	  6	  1	  6	  2	  1	  0	  1	  1	0.56328	  0	0.60000	  0	 16	 47	 38	  0	
25-Apr-2013	sub2330	2330	  1	  0	 22	  6	  1	  6	  2	  1	  0	  2	  0	0.55490	  1	0.60000	  0	 16	 37	 48	  0	
25-Apr-2013	sub2330	2330	  1	  0	 23	  6	  1	  5	  4	  5	  0	  1	  0	0.38640	  1	0.60000	  0	 15	 37	 48	  1	
25-Apr-2013	sub2330	2330	  1	  0	 24	  6	  1	  2	  5	  6	  1	  1	  0	0.51322	  0	0.60000	  0	 12	 40	 41	  0	
25-Apr-2013	sub2330	2330	  1	  0	 25	  6	  1	  1	  3	  1	  1	  1	  1	0.47440	  1	0.60000	  0	 11	 30	 31	  1	
25-Apr-2013	sub2330	2330	  1	  0	 26	  6	  1	  6	  2	  1	  1	  2	  1	0.48403	  1	0.50000	  0	 16	 35	 36	  1	
25-Apr-2013	sub2330	2330	  1	  0	 27	  6	  1	  6	  2	  1	  0	  2	  0	0.46801	  1	0.50000	  0	 16	 37	 48	  1	
25-Apr-2013	sub2330	2330	  1	  0	 28	  6	  1	  5	  4	  5	  1	  1	  1	0.57907	  1	0.50000	  1	 15	 35	 51	  0	
25-Apr-2013	sub2330	2330	  1	  0	 29	  6	  1	  2	  5	  6	  1	  2	  1	0.72678	  1	0.90000	  0	 12	 30	 31	  0	
25-Apr-2013	sub2330	2330	  1	  0	 30	  6	  1	  4	  1	  3	  1	  2	  1	0.60819	  1	0.80000	  0	 14	 32	 33	  0	
25-Apr-2013	sub2330	2330	  1	  0	 31	  6	  1	  5	  4	  5	  1	  1	  1	0.70204	  1	0.80000	  0	 15	 35	 36	  0	
25-Apr-2013	sub2330	2330	  1	  0	 32	  6	  1	  3	  6	  6	  0	  1	  0	0.39539	  1	0.80000	  0	 13	 34	 49	  1	
25-Apr-2013	sub2330	2330	  1	  0	 33	  6	  1	  3	  6	  6	  0	  1	  0	0.46883	  1	0.80000	  0	 13	 34	 49	  1	
25-Apr-2013	sub2330	2330	  1	  0	 34	  6	  1	  3	  6	  6	  1	  2	  0	0.35940	  0	0.80000	  0	 13	 42	 43	  1	
25-Apr-2013	sub2330	2330	  1	  0	 35	  6	  1	  1	  3	  1	  1	  1	  1	0.54109	  1	0.70000	  0	 11	 30	 31	  0	
25-Apr-2013	sub2330	2330	  1	  0	 36	  6	  1	  5	  4	  5	  0	  1	  0	0.48174	  1	0.70000	  0	 15	 37	 48	  1	
25-Apr-2013	sub2330	2330	  1	  0	 37	  6	  1	  6	  2	  1	  0	  2	  0	0.72763	  1	0.70000	  1	 16	 37	 51	  0	
25-Apr-2013	sub2330	2330	  1	  0	 38	  6	  1	  3	  6	  6	  0	  2	  1	0.41693	  0	0.90000	  0	 13	 44	 39	  1	
25-Apr-2013	sub2330	2330	  1	  0	 39	  6	  1	  6	  2	  1	  1	  1	  0	0.55248	  0	0.90000	  0	 16	 45	 46	  0	
25-Apr-2013	sub2330	2330	  1	  0	 40	  6	  1	  5	  4	  5	  1	  1	  1	0.62866	  1	0.90000	  0	 15	 35	 36	  0	
25-Apr-2013	sub2330	2330	  1	  0	 41	  6	  1	  6	  2	  1	  0	  1	  1	0.58257	  0	0.90000	  0	 16	 47	 38	  0	
25-Apr-2013	sub2330	2330	  1	  0	 42	  6	  1	  1	  3	  1	  1	  1	  1	0.51137	  1	0.90000	  0	 11	 30	 31	  0	
25-Apr-2013	sub2330	2330	  1	  0	 43	  6	  1	  1	  3	  1	  1	  1	  1	0.50919	  1	0.90000	  0	 11	 30	 31	  0	
25-Apr-2013	sub2330	2330	  1	  0	 44	  6	  1	  6	  2	  1	  0	  1	  1	0.52013	  0	0.80000	  0	 16	 47	 38	  0	
25-Apr-2013	sub2330	2330	  1	  0	 45	  6	  1	  2	  5	  6	  1	  2	  1	0.64718	  1	0.80000	  0	 12	 30	 31	  0	
25-Apr-2013	sub2330	2330	  1	  0	 46	  6	  1	  4	  1	  3	  1	  2	  1	0.54678	  1	0.80000	  0	 14	 32	 33	  0	
25-Apr-2013	sub2330	2330	  1	  0	 47	  6	  1	  1	  3	  1	  1	  1	  1	0.59917	  1	0.80000	  0	 11	 30	 31	  0	
25-Apr-2013	sub2330	2330	  1	  0	 48	  6	  1	  2	  5	  6	  1	  2	  1	0.64686	  1	0.80000	  0	 12	 30	 31	  0	
25-Apr-2013	sub2330	2330	  1	  0	 49	  6	  1	  1	  3	  1	  1	  2	  0	0.43095	  0	0.80000	  0	 11	 40	 41	  1	
25-Apr-2013	sub2330	2330	  1	  0	 50	  6	  1	  1	  3	  1	  1	  1	  1	0.53033	  1	0.80000	  0	 11	 30	 31	  0	
25-Apr-2013	sub2330	2330	  1	  0	 51	  6	  1	  4	  1	  3	  1	  2	  1	0.51558	  1	0.70000	  0	 14	 32	 33	  0	
25-Apr-2013	sub2330	2330	  1	  0	 52	  6	  1	  1	  3	  1	  1	  2	  0	0.37827	  0	0.70000	  0	 11	 40	 41	  1	
25-Apr-2013	sub2330	2330	  1	  0	 53	  6	  1	  1	  3	  1	  1	  1	  1	0.34620	  1	0.70000	  0	 11	 30	 31	  1	
25-Apr-2013	sub2330	2330	  1	  0	 54	  6	  1	  4	  1	  3	  0	  2	  0	0.63357	  1	0.70000	  0	 14	 34	 49	  0	
25-Apr-2013	sub2330	2330	  1	  0	 55	  6	  1	  2	  5	  6	  1	  2	  1	0.49484	  1	0.70000	  0	 12	 30	 31	  1	
25-Apr-2013	sub2330	2330	  1	  0	 56	  6	  1	  4	  1	  3	  1	  2	  1	0.56414	  1	0.70000	  0	 14	 32	 33	  0	
25-Apr-2013	sub2330	2330	  1	  0	 57	  6	  1	  2	  5	  6	  1	  2	  1	0.42887	  1	0.70000	  0	 12	 30	 31	  1	
25-Apr-2013	sub2330	2330	  1	  0	 58	  6	  1	  6	  2	  1	  1	  1	  0	0.50120	  0	0.70000	  0	 16	 45	 46	  0	
25-Apr-2013	sub2330	2330	  1	  0	 59	  6	  1	  3	  6	  6	  1	  1	  1	0.57909	  1	0.70000	  0	 13	 32	 33	  0	
25-Apr-2013	sub2330	2330	  1	  0	 60	  6	  1	  6	  2	  1	  1	  1	  0	0.48894	  0	0.70000	  0	 16	 45	 46	  1	
25-Apr-2013	sub2330	2330	  1	  0	 61	  6	  1	  5	  4	  5	  1	  1	  1	0.64338	  1	0.60000	  1	 15	 35	 51	  0	
25-Apr-2013	sub2330	2330	  1	  0	 62	  6	  1	  4	  1	  3	  1	  2	  1	0.56623	  1	0.80000	  0	 14	 32	 33	  0	
25-Apr-2013	sub2330	2330	  1	  0	 63	  6	  1	  6	  2	  1	  1	  2	  1	0.45296	  1	0.80000	  0	 16	 35	 36	  1	
25-Apr-2013	sub2330	2330	  1	  0	 64	  6	  1	  3	  6	  6	  1	  1	  1	0.66135	  1	0.80000	  0	 13	 32	 33	  0	
25-Apr-2013	sub2330	2330	  1	  0	 65	  6	  1	  2	  5	  6	  1	  2	  1	0.63618	  1	0.80000	  0	 12	 30	 31	  0	
25-Apr-2013	sub2330	2330	  1	  0	 66	  6	  1	  2	  5	  6	  1	  2	  1	0.44449	  1	0.80000	  0	 12	 30	 31	  1	
25-Apr-2013	sub2330	2330	  1	  0	 67	  6	  1	  6	  2	  1	  0	  1	  1	0.56873	  0	0.80000	  0	 16	 47	 38	  0	
25-Apr-2013	sub2330	2330	  1	  0	 68	  6	  1	  6	  2	  1	  0	  2	  0	0.63485	  1	0.70000	  0	 16	 37	 48	  0	
25-Apr-2013	sub2330	2330	  1	  0	 69	  6	  1	  4	  1	  3	  1	  2	  1	0.61783	  1	0.70000	  0	 14	 32	 33	  0	
25-Apr-2013	sub2330	2330	  1	  0	 70	  6	  1	  4	  1	  3	  1	  2	  1	0.45228	  1	0.70000	  0	 14	 32	 33	  1	
25-Apr-2013	sub2330	2330	  1	  0	 71	  6	  1	  5	  4	  5	  0	  1	  0	0.65521	  1	0.70000	  0	 15	 37	 48	  0	
25-Apr-2013	sub2330	2330	  1	  0	 72	  6	  1	  1	  3	  1	  1	  1	  1	0.62278	  1	0.70000	  0	 11	 30	 31	  0	
25-Apr-2013	sub2330	2330	  1	  0	 73	  6	  1	  3	  6	  6	  1	  1	  1	0.72440	  1	0.70000	  1	 13	 32	 51	  0	
25-Apr-2013	sub2330	2330	  1	  0	 74	  6	  1	  5	  4	  5	  0	  1	  0	0.49683	  1	0.80000	  0	 15	 37	 48	  1	
25-Apr-2013	sub2330	2330	  1	  0	 75	  6	  1	  2	  5	  6	  1	  1	  0	0.49941	  0	0.80000	  0	 12	 40	 41	  1	
25-Apr-2013	sub2330	2330	  1	  0	 76	  6	  2	  2	  5	  6	  1	  1	  0	0.38940	  0	0.80000	  0	 22	 80	 81	  1	
25-Apr-2013	sub2330	2330	  1	  0	 77	  6	  2	  3	  6	  6	  1	  1	  1	0.56377	  1	0.80000	  0	 23	 62	 63	  0	
25-Apr-2013	sub2330	2330	  1	  0	 78	  6	  2	  4	  1	  3	  1	  2	  1	0.57834	  1	0.80000	  0	 24	 62	 63	  0	
25-Apr-2013	sub2330	2330	  1	  0	 79	  6	  2	  6	  2	  1	  0	  2	  0	0.63972	  1	0.80000	  0	 26	 67	 88	  0	
25-Apr-2013	sub2330	2330	  1	  0	 80	  6	  2	  2	  5	  6	  1	  2	  1	0.63273	  1	0.80000	  0	 22	 60	 61	  0	
25-Apr-2013	sub2330	2330	  1	  0	 81	  6	  2	  2	  5	  6	  1	  2	  1	0.39289	  1	0.80000	  0	 22	 60	 61	  1	
25-Apr-2013	sub2330	2330	  1	  0	 82	  6	  2	  3	  6	  6	  1	  1	  1	0.47333	  1	0.80000	  0	 23	 62	 63	  1	
25-Apr-2013	sub2330	2330	  1	  0	 83	  6	  2	  4	  1	  3	  1	  2	  1	0.52582	  1	0.80000	  0	 24	 62	 63	  0	
25-Apr-2013	sub2330	2330	  1	  0	 84	  6	  2	  5	  4	  5	  0	  1	  0	0.87117	  1	0.80000	  1	 25	 67	 51	  0	
25-Apr-2013	sub2330	2330	  1	  0	 85	  6	  2	  2	  5	  6	  1	  2	  1	0.62037	  1	0.90000	  0	 22	 60	 61	  0	
25-Apr-2013	sub2330	2330	  1	  0	 86	  6	  2	  5	  4	  5	  0	  1	  0	0.53525	  1	0.90000	  0	 25	 67	 88	  0	
25-Apr-2013	sub2330	2330	  1	  0	 87	  6	  2	  5	  4	  5	  0	  1	  0	0.61482	  1	0.80000	  0	 25	 67	 88	  0	
25-Apr-2013	sub2330	2330	  1	  0	 88	  6	  2	  6	  2	  1	  0	  2	  0	0.57657	  1	0.80000	  0	 26	 67	 88	  0	
25-Apr-2013	sub2330	2330	  1	  0	 89	  6	  2	  5	  4	  5	  0	  1	  0	0.66322	  1	0.80000	  0	 25	 67	 88	  0	
25-Apr-2013	sub2330	2330	  1	  0	 90	  6	  2	  3	  6	  6	  1	  1	  1	0.59125	  1	0.80000	  0	 23	 62	 63	  0	
25-Apr-2013	sub2330	2330	  1	  0	 91	  6	  2	  3	  6	  6	  1	  1	  1	0.56805	  1	0.80000	  0	 23	 62	 63	  0	
25-Apr-2013	sub2330	2330	  1	  0	 92	  6	  2	  4	  1	  3	  1	  2	  1	0.41461	  1	0.80000	  0	 24	 62	 63	  1	
25-Apr-2013	sub2330	2330	  1	  0	 93	  6	  2	  5	  4	  5	  0	  1	  0	0.52754	  1	0.80000	  0	 25	 67	 88	  0	
25-Apr-2013	sub2330	2330	  1	  0	 94	  6	  2	  4	  1	  3	  0	  2	  0	0.52961	  1	0.80000	  0	 24	 64	 89	  0	
25-Apr-2013	sub2330	2330	  1	  0	 95	  6	  2	  2	  5	  6	  1	  2	  1	0.50115	  1	0.80000	  0	 22	 60	 61	  0	
25-Apr-2013	sub2330	2330	  1	  0	 96	  6	  2	  3	  6	  6	  1	  1	  1	0.63389	  1	0.80000	  0	 23	 62	 63	  0	
25-Apr-2013	sub2330	2330	  1	  0	 97	  6	  2	  6	  2	  1	  0	  2	  0	0.60742	  1	0.80000	  0	 26	 67	 88	  0	
25-Apr-2013	sub2330	2330	  1	  0	 98	  6	  2	  2	  5	  6	  1	  2	  1	0.91819	  1	0.80000	  1	 22	 60	 51	  0	
25-Apr-2013	sub2330	2330	  1	  0	 99	  6	  2	  1	  3	  1	  1	  2	  0	0.40512	  0	0.90000	  0	 21	 80	 81	  1	
25-Apr-2013	sub2330	2330	  1	  0	100	  6	  2	  1	  3	  1	  1	  1	  1	0.00018	  1	0.90000	  0	 21	 60	 61	  1	
25-Apr-2013	sub2330	2330	  1	  0	101	  6	  2	  3	  6	  6	  1	  1	  1	0.55659	  1	0.80000	  0	 23	 62	 63	  0	
25-Apr-2013	sub2330	2330	  1	  0	102	  6	  2	  4	  1	  3	  1	  2	  1	0.58397	  1	0.80000	  0	 24	 62	 63	  0	
25-Apr-2013	sub2330	2330	  1	  0	103	  6	  2	  1	  3	  1	  1	  1	  1	0.49739	  1	0.80000	  0	 21	 60	 61	  1	
25-Apr-2013	sub2330	2330	  1	  0	104	  6	  2	  4	  1	  3	  1	  2	  1	0.69170	  1	0.80000	  0	 24	 62	 63	  0	
25-Apr-2013	sub2330	2330	  1	  0	105	  6	  2	  4	  1	  3	  0	  2	  0	0.33937	  1	0.80000	  0	 24	 64	 89	  1	
25-Apr-2013	sub2330	2330	  1	  0	106	  6	  2	  6	  2	  1	  1	  1	  0	0.54370	  0	0.80000	  0	 26	 85	 86	  0	
25-Apr-2013	sub2330	2330	  1	  0	107	  6	  2	  4	  1	  3	  1	  2	  1	0.55646	  1	0.80000	  0	 24	 62	 63	  0	
25-Apr-2013	sub2330	2330	  1	  0	108	  6	  2	  6	  2	  1	  0	  2	  0	0.59923	  1	0.80000	  0	 26	 67	 88	  0	
25-Apr-2013	sub2330	2330	  1	  0	109	  6	  2	  5	  4	  5	  0	  2	  1	0.76210	  0	0.80000	  0	 25	 87	 68	  0	
25-Apr-2013	sub2330	2330	  1	  0	110	  6	  2	  4	  1	  3	  1	  2	  1	0.61230	  1	0.80000	  0	 24	 62	 63	  0	
25-Apr-2013	sub2330	2330	  1	  0	111	  6	  2	  6	  2	  1	  1	  2	  1	0.47274	  1	0.80000	  0	 26	 65	 66	  1	
25-Apr-2013	sub2330	2330	  1	  0	112	  6	  2	  3	  6	  6	  0	  2	  1	0.50530	  0	0.80000	  0	 23	 84	 69	  0	
25-Apr-2013	sub2330	2330	  1	  0	113	  6	  2	  2	  5	  6	  1	  2	  1	0.55190	  1	0.80000	  0	 22	 60	 61	  0	
25-Apr-2013	sub2330	2330	  1	  0	114	  6	  2	  2	  5	  6	  1	  2	  1	0.41193	  1	0.80000	  0	 22	 60	 61	  1	
25-Apr-2013	sub2330	2330	  1	  0	115	  6	  2	  1	  3	  1	  1	  2	  0	0.57911	  0	0.80000	  0	 21	 80	 81	  0	
25-Apr-2013	sub2330	2330	  1	  0	116	  6	  2	  6	  2	  1	  0	  2	  0	0.45959	  1	0.80000	  0	 26	 67	 88	  1	
25-Apr-2013	sub2330	2330	  1	  0	117	  6	  2	  1	  3	  1	  1	  2	  0	0.44204	  0	0.80000	  0	 21	 80	 81	  1	
25-Apr-2013	sub2330	2330	  1	  0	118	  6	  2	  2	  5	  6	  1	  2	  1	0.55995	  1	0.70000	  0	 22	 60	 61	  0	
25-Apr-2013	sub2330	2330	  1	  0	119	  6	  2	  1	  3	  1	  1	  1	  1	0.55904	  1	0.70000	  0	 21	 60	 61	  0	
25-Apr-2013	sub2330	2330	  1	  0	120	  6	  2	  4	  1	  3	  1	  2	  1	0.49075	  1	0.70000	  0	 24	 62	 63	  1	
25-Apr-2013	sub2330	2330	  1	  0	121	  6	  2	  6	  2	  1	  0	  2	  0	0.50292	  1	0.70000	  0	 26	 67	 88	  0	
25-Apr-2013	sub2330	2330	  1	  0	122	  6	  2	  4	  1	  3	  1	  2	  1	0.63182	  1	0.70000	  0	 24	 62	 63	  0	
25-Apr-2013	sub2330	2330	  1	  0	123	  6	  2	  6	  2	  1	  1	  2	  1	0.52695	  1	0.70000	  0	 26	 65	 66	  0	
25-Apr-2013	sub2330	2330	  1	  0	124	  6	  2	  2	  5	  6	  1	  2	  1	0.52880	  1	0.70000	  0	 22	 60	 61	  0	
25-Apr-2013	sub2330	2330	  1	  0	125	  6	  2	  1	  3	  1	  1	  2	  0	0.47965	  0	0.70000	  0	 21	 80	 81	  1	
25-Apr-2013	sub2330	2330	  1	  0	126	  6	  2	  5	  4	  5	  0	  2	  1	0.74081	  0	0.70000	  1	 25	 87	 51	  0	
25-Apr-2013	sub2330	2330	  1	  0	127	  6	  2	  5	  4	  5	  0	  2	  1	0.42541	  0	0.80000	  0	 25	 87	 68	  1	
25-Apr-2013	sub2330	2330	  1	  0	128	  6	  2	  2	  5	  6	  1	  1	  0	0.69151	  0	0.80000	  0	 22	 80	 81	  0	
25-Apr-2013	sub2330	2330	  1	  0	129	  6	  2	  3	  6	  6	  1	  1	  1	0.64770	  1	0.80000	  0	 23	 62	 63	  0	
25-Apr-2013	sub2330	2330	  1	  0	130	  6	  2	  4	  1	  3	  1	  2	  1	0.63823	  1	0.80000	  0	 24	 62	 63	  0	
25-Apr-2013	sub2330	2330	  1	  0	131	  6	  2	  1	  3	  1	  1	  2	  0	0.55518	  0	0.80000	  0	 21	 80	 81	  0	
25-Apr-2013	sub2330	2330	  1	  0	132	  6	  2	  3	  6	  6	  1	  1	  1	0.65475	  1	0.80000	  0	 23	 62	 63	  0	
25-Apr-2013	sub2330	2330	  1	  0	133	  6	  2	  6	  2	  1	  1	  1	  0	0.57570	  0	0.80000	  0	 26	 85	 86	  0	
25-Apr-2013	sub2330	2330	  1	  0	134	  6	  2	  5	  4	  5	  0	  2	  1	0.74772	  0	0.80000	  0	 25	 87	 68	  0	
25-Apr-2013	sub2330	2330	  1	  0	135	  6	  2	  5	  4	  5	  0	  2	  1	0.54871	  0	0.70000	  0	 25	 87	 68	  0	
25-Apr-2013	sub2330	2330	  1	  0	136	  6	  2	  1	  3	  1	  1	  1	  1	0.88597	  1	0.70000	  1	 21	 60	 51	  0	
25-Apr-2013	sub2330	2330	  1	  0	137	  6	  2	  5	  4	  5	  0	  2	  1	0.55206	  0	0.80000	  0	 25	 87	 68	  0	
25-Apr-2013	sub2330	2330	  1	  0	138	  6	  2	  4	  1	  3	  0	  2	  0	0.62300	  1	0.80000	  0	 24	 64	 89	  0	
25-Apr-2013	sub2330	2330	  1	  0	139	  6	  2	  6	  2	  1	  1	  2	  1	0.00017	  1	0.80000	  0	 26	 65	 66	  1	
25-Apr-2013	sub2330	2330	  1	  0	140	  6	  2	  2	  5	  6	  1	  2	  1	0.54900	  1	0.80000	  0	 22	 60	 61	  0	
25-Apr-2013	sub2330	2330	  1	  0	141	  6	  2	  3	  6	  6	  1	  1	  1	0.56129	  1	0.80000	  0	 23	 62	 63	  0	
25-Apr-2013	sub2330	2330	  1	  0	142	  6	  2	  1	  3	  1	  1	  1	  1	0.48862	  1	0.80000	  0	 21	 60	 61	  1	
25-Apr-2013	sub2330	2330	  1	  0	143	  6	  2	  3	  6	  6	  1	  1	  1	0.45041	  1	0.80000	  0	 23	 62	 63	  1	
25-Apr-2013	sub2330	2330	  1	  0	144	  6	  2	  3	  6	  6	  0	  1	  0	0.51689	  1	0.80000	  0	 23	 64	 89	  0	
25-Apr-2013	sub2330	2330	  1	  0	145	  6	  2	  5	  4	  5	  0	  2	  1	0.61369	  0	0.80000	  0	 25	 87	 68	  0	
25-Apr-2013	sub2330	2330	  1	  0	146	  6	  2	  5	  4	  5	  0	  2	  1	0.63529	  0	0.80000	  0	 25	 87	 68	  0	
25-Apr-2013	sub2330	2330	  1	  0	147	  6	  2	  1	  3	  1	  1	  1	  1	0.82025	  1	0.80000	  1	 21	 60	 51	  0	
25-Apr-2013	sub2330	2330	  1	  0	148	  6	  2	  1	  3	  1	  1	  1	  1	0.43167	  1	0.80000	  0	 21	 60	 61	  1	
25-Apr-2013	sub2330	2330	  1	  0	149	  6	  2	  1	  3	  1	  1	  1	  1	0.39877	  1	0.80000	  0	 21	 60	 61	  1	
25-Apr-2013	sub2330	2330	  1	  0	150	  6	  2	  6	  2	  1	  1	  2	  1	0.58079	  1	0.80000	  0	 26	 65	 66	  0	
