Date 	 Name 	 ID 	 Gender 	 Appearance 	 Trial 	 Block 	 Bin 	 Condition 	 Category 	 Number 	 Valid 	 Keypress 	 Correct 	 RT 	 Realcorrect 	 Deadline 	 Timeout 	 Stimtrigger 	 Resptrigger 	 Fedtrigger 	 WithinTime 	 
25-Apr-2013	sub2331	2331	  1	  1	  1	  1	  1	  1	  1	  6	  1	  1	  1	0.57298	  1	0.60000	  0	 11	 30	 31	  0	
25-Apr-2013	sub2331	2331	  1	  1	  2	  1	  1	  3	  6	  5	  1	  2	  0	0.84800	  0	0.30000	  1	 13	 42	 51	  0	
25-Apr-2013	sub2331	2331	  1	  1	  3	  1	  1	  6	  2	  6	  1	  2	  1	0.49562	  1	0.90000	  0	 16	 35	 36	  1	
25-Apr-2013	sub2331	2331	  1	  1	  4	  1	  1	  3	  6	  5	  0	  1	  0	0.62595	  1	0.90000	  0	 13	 34	 49	  0	
25-Apr-2013	sub2331	2331	  1	  1	  5	  1	  1	  5	  5	  6	  1	  2	  0	0.51236	  0	0.90000	  0	 15	 45	 46	  0	
25-Apr-2013	sub2331	2331	  1	  1	  6	  1	  1	  3	  6	  5	  1	  1	  1	0.60779	  1	0.90000	  0	 13	 32	 33	  0	
25-Apr-2013	sub2331	2331	  1	  1	  7	  1	  1	  2	  4	  6	  1	  2	  1	0.56137	  1	0.90000	  0	 12	 30	 31	  0	
25-Apr-2013	sub2331	2331	  1	  1	  8	  1	  1	  6	  2	  6	  0	  1	  1	0.57958	  0	0.90000	  0	 16	 47	 38	  0	
25-Apr-2013	sub2331	2331	  1	  1	  9	  1	  1	  1	  1	  6	  1	  1	  1	0.64308	  1	0.90000	  0	 11	 30	 31	  0	
25-Apr-2013	sub2331	2331	  1	  1	 10	  1	  1	  5	  5	  6	  0	  2	  1	0.56271	  0	0.90000	  0	 15	 47	 38	  0	
25-Apr-2013	sub2331	2331	  1	  1	 11	  1	  1	  4	  3	  6	  1	  2	  1	0.54767	  1	0.90000	  0	 14	 32	 33	  0	
25-Apr-2013	sub2331	2331	  1	  1	 12	  1	  1	  4	  3	  6	  1	  2	  1	0.46038	  1	0.90000	  0	 14	 32	 33	  1	
25-Apr-2013	sub2331	2331	  1	  1	 13	  1	  1	  6	  2	  6	  0	  1	  1	0.57841	  0	0.90000	  0	 16	 47	 38	  0	
25-Apr-2013	sub2331	2331	  1	  1	 14	  1	  1	  6	  2	  6	  0	  1	  1	0.39319	  0	0.90000	  0	 16	 47	 38	  1	
25-Apr-2013	sub2331	2331	  1	  1	 15	  1	  1	  5	  5	  6	  1	  1	  1	0.38106	  1	0.90000	  0	 15	 35	 36	  1	
25-Apr-2013	sub2331	2331	  1	  1	 16	  1	  1	  3	  6	  5	  0	  1	  0	0.56483	  1	0.80000	  0	 13	 34	 49	  0	
25-Apr-2013	sub2331	2331	  1	  1	 17	  1	  1	  1	  1	  6	  1	  1	  1	0.44234	  1	0.80000	  0	 11	 30	 31	  1	
25-Apr-2013	sub2331	2331	  1	  1	 18	  1	  1	  5	  5	  6	  1	  1	  1	0.45629	  1	0.70000	  0	 15	 35	 36	  1	
25-Apr-2013	sub2331	2331	  1	  1	 19	  1	  1	  1	  1	  6	  1	  1	  1	0.58625	  1	0.70000	  0	 11	 30	 31	  0	
25-Apr-2013	sub2331	2331	  1	  1	 20	  1	  1	  4	  3	  6	  1	  2	  1	0.52223	  1	0.70000	  0	 14	 32	 33	  0	
25-Apr-2013	sub2331	2331	  1	  1	 21	  1	  1	  1	  1	  6	  1	  1	  1	0.52496	  1	0.60000	  0	 11	 30	 31	  0	
25-Apr-2013	sub2331	2331	  1	  1	 22	  1	  1	  3	  6	  5	  1	  1	  1	0.41411	  1	0.60000	  0	 13	 32	 33	  1	
25-Apr-2013	sub2331	2331	  1	  1	 23	  1	  1	  4	  3	  6	  1	  2	  1	0.51729	  1	0.60000	  0	 14	 32	 33	  0	
25-Apr-2013	sub2331	2331	  1	  1	 24	  1	  1	  6	  2	  6	  1	  1	  0	0.48669	  0	0.60000	  0	 16	 45	 46	  1	
25-Apr-2013	sub2331	2331	  1	  1	 25	  1	  1	  6	  2	  6	  1	  2	  1	0.56178	  1	0.60000	  0	 16	 35	 36	  0	
25-Apr-2013	sub2331	2331	  1	  1	 26	  1	  1	  6	  2	  6	  1	  2	  1	0.42601	  1	0.50000	  0	 16	 35	 36	  1	
25-Apr-2013	sub2331	2331	  1	  1	 27	  1	  1	  2	  4	  6	  1	  2	  1	0.58413	  1	0.50000	  1	 12	 30	 51	  0	
25-Apr-2013	sub2331	2331	  1	  1	 28	  1	  1	  5	  5	  6	  0	  1	  0	0.50505	  1	0.90000	  0	 15	 37	 48	  0	
25-Apr-2013	sub2331	2331	  1	  1	 29	  1	  1	  2	  4	  6	  1	  2	  1	0.54097	  1	0.90000	  0	 12	 30	 31	  0	
25-Apr-2013	sub2331	2331	  1	  1	 30	  1	  1	  6	  2	  6	  0	  1	  1	0.46482	  0	0.80000	  0	 16	 47	 38	  1	
25-Apr-2013	sub2331	2331	  1	  1	 31	  1	  1	  5	  5	  6	  1	  1	  1	0.49142	  1	0.80000	  0	 15	 35	 36	  1	
25-Apr-2013	sub2331	2331	  1	  1	 32	  1	  1	  4	  3	  6	  1	  2	  1	0.47178	  1	0.80000	  0	 14	 32	 33	  1	
25-Apr-2013	sub2331	2331	  1	  1	 33	  1	  1	  3	  6	  5	  1	  2	  0	0.46018	  0	0.80000	  0	 13	 42	 43	  1	
25-Apr-2013	sub2331	2331	  1	  1	 34	  1	  1	  1	  1	  6	  1	  1	  1	0.45632	  1	0.80000	  0	 11	 30	 31	  1	
25-Apr-2013	sub2331	2331	  1	  1	 35	  1	  1	  2	  4	  6	  1	  2	  1	0.58827	  1	0.70000	  0	 12	 30	 31	  0	
25-Apr-2013	sub2331	2331	  1	  1	 36	  1	  1	  3	  6	  5	  1	  1	  1	0.49974	  1	0.70000	  0	 13	 32	 33	  1	
25-Apr-2013	sub2331	2331	  1	  1	 37	  1	  1	  2	  4	  6	  1	  1	  0	0.38956	  0	0.70000	  0	 12	 40	 41	  1	
25-Apr-2013	sub2331	2331	  1	  1	 38	  1	  1	  5	  5	  6	  0	  1	  0	0.62217	  1	0.70000	  0	 15	 37	 48	  0	
25-Apr-2013	sub2331	2331	  1	  1	 39	  1	  1	  3	  6	  5	  0	  1	  0	0.44788	  1	0.70000	  0	 13	 34	 49	  1	
25-Apr-2013	sub2331	2331	  1	  1	 40	  1	  1	  3	  6	  5	  1	  2	  0	0.52273	  0	0.70000	  0	 13	 42	 43	  0	
25-Apr-2013	sub2331	2331	  1	  1	 41	  1	  1	  4	  3	  6	  1	  2	  1	0.49776	  1	0.60000	  0	 14	 32	 33	  1	
25-Apr-2013	sub2331	2331	  1	  1	 42	  1	  1	  2	  4	  6	  1	  2	  1	0.54540	  1	0.60000	  0	 12	 30	 31	  0	
25-Apr-2013	sub2331	2331	  1	  1	 43	  1	  1	  3	  6	  5	  1	  2	  0	0.62384	  0	0.60000	  1	 13	 42	 51	  0	
25-Apr-2013	sub2331	2331	  1	  1	 44	  1	  1	  4	  3	  6	  0	  2	  0	0.44521	  1	0.80000	  0	 14	 34	 49	  1	
25-Apr-2013	sub2331	2331	  1	  1	 45	  1	  1	  1	  1	  6	  1	  1	  1	0.52681	  1	0.80000	  0	 11	 30	 31	  0	
25-Apr-2013	sub2331	2331	  1	  1	 46	  1	  1	  1	  1	  6	  1	  1	  1	0.49393	  1	0.80000	  0	 11	 30	 31	  1	
25-Apr-2013	sub2331	2331	  1	  1	 47	  1	  1	  1	  1	  6	  1	  1	  1	0.43748	  1	0.80000	  0	 11	 30	 31	  1	
25-Apr-2013	sub2331	2331	  1	  1	 48	  1	  1	  1	  1	  6	  1	  1	  1	0.47875	  1	0.80000	  0	 11	 30	 31	  1	
25-Apr-2013	sub2331	2331	  1	  1	 49	  1	  1	  3	  6	  5	  1	  1	  1	0.55522	  1	0.80000	  0	 13	 32	 33	  0	
25-Apr-2013	sub2331	2331	  1	  1	 50	  1	  1	  6	  2	  6	  0	  1	  1	0.51464	  0	0.80000	  0	 16	 47	 38	  0	
25-Apr-2013	sub2331	2331	  1	  1	 51	  1	  1	  2	  4	  6	  1	  2	  1	0.56368	  1	0.70000	  0	 12	 30	 31	  0	
25-Apr-2013	sub2331	2331	  1	  1	 52	  1	  1	  4	  3	  6	  1	  2	  1	0.47842	  1	0.70000	  0	 14	 32	 33	  1	
25-Apr-2013	sub2331	2331	  1	  1	 53	  1	  1	  2	  4	  6	  1	  2	  1	0.46835	  1	0.70000	  0	 12	 30	 31	  1	
25-Apr-2013	sub2331	2331	  1	  1	 54	  1	  1	  5	  5	  6	  0	  2	  1	0.64742	  0	0.70000	  0	 15	 47	 38	  0	
25-Apr-2013	sub2331	2331	  1	  1	 55	  1	  1	  4	  3	  6	  1	  2	  1	0.48089	  1	0.70000	  0	 14	 32	 33	  1	
25-Apr-2013	sub2331	2331	  1	  1	 56	  1	  1	  2	  4	  6	  1	  2	  1	0.46761	  1	0.70000	  0	 12	 30	 31	  1	
25-Apr-2013	sub2331	2331	  1	  1	 57	  1	  1	  1	  1	  6	  1	  1	  1	0.54730	  1	0.70000	  0	 11	 30	 31	  0	
25-Apr-2013	sub2331	2331	  1	  1	 58	  1	  1	  2	  4	  6	  1	  2	  1	0.49443	  1	0.70000	  0	 12	 30	 31	  1	
25-Apr-2013	sub2331	2331	  1	  1	 59	  1	  1	  1	  1	  6	  1	  1	  1	0.50893	  1	0.70000	  0	 11	 30	 31	  0	
25-Apr-2013	sub2331	2331	  1	  1	 60	  1	  1	  3	  6	  5	  1	  1	  1	0.46189	  1	0.70000	  0	 13	 32	 33	  1	
25-Apr-2013	sub2331	2331	  1	  1	 61	  1	  1	  3	  6	  5	  1	  1	  1	0.40775	  1	0.60000	  0	 13	 32	 33	  1	
25-Apr-2013	sub2331	2331	  1	  1	 62	  1	  1	  4	  3	  6	  1	  2	  1	0.48213	  1	0.60000	  0	 14	 32	 33	  1	
25-Apr-2013	sub2331	2331	  1	  1	 63	  1	  1	  5	  5	  6	  0	  1	  0	0.53033	  1	0.60000	  0	 15	 37	 48	  0	
25-Apr-2013	sub2331	2331	  1	  1	 64	  1	  1	  6	  2	  6	  0	  1	  1	0.52919	  0	0.60000	  0	 16	 47	 38	  0	
25-Apr-2013	sub2331	2331	  1	  1	 65	  1	  1	  5	  5	  6	  1	  1	  1	0.47542	  1	0.60000	  0	 15	 35	 36	  1	
25-Apr-2013	sub2331	2331	  1	  1	 66	  1	  1	  2	  4	  6	  1	  2	  1	0.51774	  1	0.60000	  0	 12	 30	 31	  0	
25-Apr-2013	sub2331	2331	  1	  1	 67	  1	  1	  6	  2	  6	  1	  1	  0	0.65358	  0	0.60000	  1	 16	 45	 51	  0	
25-Apr-2013	sub2331	2331	  1	  1	 68	  1	  1	  5	  5	  6	  1	  1	  1	0.43864	  1	0.70000	  0	 15	 35	 36	  1	
25-Apr-2013	sub2331	2331	  1	  1	 69	  1	  1	  5	  5	  6	  1	  1	  1	0.43297	  1	0.70000	  0	 15	 35	 36	  1	
25-Apr-2013	sub2331	2331	  1	  1	 70	  1	  1	  4	  3	  6	  0	  2	  0	0.41726	  1	0.70000	  0	 14	 34	 49	  1	
25-Apr-2013	sub2331	2331	  1	  1	 71	  1	  1	  6	  2	  6	  0	  2	  0	0.50092	  1	0.70000	  0	 16	 37	 48	  0	
25-Apr-2013	sub2331	2331	  1	  1	 72	  1	  1	  6	  2	  6	  0	  1	  1	0.51979	  0	0.70000	  0	 16	 47	 38	  0	
25-Apr-2013	sub2331	2331	  1	  1	 73	  1	  1	  2	  4	  6	  1	  2	  1	0.47360	  1	0.70000	  0	 12	 30	 31	  1	
25-Apr-2013	sub2331	2331	  1	  1	 74	  1	  1	  2	  4	  6	  1	  2	  1	0.49420	  1	0.70000	  0	 12	 30	 31	  1	
25-Apr-2013	sub2331	2331	  1	  1	 75	  1	  1	  4	  3	  6	  1	  2	  1	0.47776	  1	0.70000	  0	 14	 32	 33	  1	
25-Apr-2013	sub2331	2331	  1	  1	  1	  2	  1	  6	  5	  2	  0	  1	  1	0.46260	  0	0.60000	  0	 16	 47	 38	  1	
25-Apr-2013	sub2331	2331	  1	  1	  2	  2	  1	  5	  3	  5	  1	  1	  1	0.55773	  1	0.30000	  1	 15	 35	 51	  0	
25-Apr-2013	sub2331	2331	  1	  1	  3	  2	  1	  1	  2	  3	  1	  2	  0	0.32878	  0	0.90000	  0	 11	 40	 41	  1	
25-Apr-2013	sub2331	2331	  1	  1	  4	  2	  1	  6	  5	  2	  1	  2	  1	0.48913	  1	0.90000	  0	 16	 35	 36	  1	
25-Apr-2013	sub2331	2331	  1	  1	  5	  2	  1	  2	  4	  2	  1	  2	  1	0.45102	  1	0.90000	  0	 12	 30	 31	  1	
25-Apr-2013	sub2331	2331	  1	  1	  6	  2	  1	  3	  1	  3	  0	  2	  1	0.35651	  0	0.90000	  0	 13	 44	 39	  1	
25-Apr-2013	sub2331	2331	  1	  1	  7	  2	  1	  3	  1	  3	  1	  2	  0	0.33324	  0	0.90000	  0	 13	 42	 43	  1	
25-Apr-2013	sub2331	2331	  1	  1	  8	  2	  1	  1	  2	  3	  1	  2	  0	0.24092	  0	0.90000	  0	 11	 40	 41	  1	
25-Apr-2013	sub2331	2331	  1	  1	  9	  2	  1	  4	  6	  1	  1	  2	  1	0.40768	  1	0.90000	  0	 14	 32	 33	  1	
25-Apr-2013	sub2331	2331	  1	  1	 10	  2	  1	  6	  5	  2	  0	  2	  0	0.30139	  1	0.90000	  0	 16	 37	 48	  1	
25-Apr-2013	sub2331	2331	  1	  1	 11	  2	  1	  5	  3	  5	  1	  1	  1	0.40094	  1	0.90000	  0	 15	 35	 36	  1	
25-Apr-2013	sub2331	2331	  1	  1	 12	  2	  1	  3	  1	  3	  1	  1	  1	0.57657	  1	0.90000	  0	 13	 32	 33	  0	
25-Apr-2013	sub2331	2331	  1	  1	 13	  2	  1	  2	  4	  2	  1	  2	  1	0.45862	  1	0.90000	  0	 12	 30	 31	  1	
25-Apr-2013	sub2331	2331	  1	  1	 14	  2	  1	  2	  4	  2	  1	  2	  1	0.49834	  1	0.90000	  0	 12	 30	 31	  1	
25-Apr-2013	sub2331	2331	  1	  1	 15	  2	  1	  2	  4	  2	  1	  2	  1	0.39060	  1	0.90000	  0	 12	 30	 31	  1	
25-Apr-2013	sub2331	2331	  1	  1	 16	  2	  1	  5	  3	  5	  1	  1	  1	0.44366	  1	0.80000	  0	 15	 35	 36	  1	
25-Apr-2013	sub2331	2331	  1	  1	 17	  2	  1	  5	  3	  5	  0	  1	  0	0.38379	  1	0.80000	  0	 15	 37	 48	  1	
25-Apr-2013	sub2331	2331	  1	  1	 18	  2	  1	  4	  6	  1	  1	  2	  1	0.46620	  1	0.70000	  0	 14	 32	 33	  1	
25-Apr-2013	sub2331	2331	  1	  1	 19	  2	  1	  4	  6	  1	  1	  2	  1	0.38026	  1	0.70000	  0	 14	 32	 33	  1	
25-Apr-2013	sub2331	2331	  1	  1	 20	  2	  1	  6	  5	  2	  1	  1	  0	0.52366	  0	0.70000	  0	 16	 45	 46	  0	
25-Apr-2013	sub2331	2331	  1	  1	 21	  2	  1	  3	  1	  3	  1	  1	  1	0.45653	  1	0.60000	  0	 13	 32	 33	  1	
25-Apr-2013	sub2331	2331	  1	  1	 22	  2	  1	  2	  4	  2	  1	  1	  0	0.45925	  0	0.60000	  0	 12	 40	 41	  1	
25-Apr-2013	sub2331	2331	  1	  1	 23	  2	  1	  3	  1	  3	  1	  1	  1	0.42788	  1	0.60000	  0	 13	 32	 33	  1	
25-Apr-2013	sub2331	2331	  1	  1	 24	  2	  1	  2	  4	  2	  1	  2	  1	0.36910	  1	0.60000	  0	 12	 30	 31	  1	
25-Apr-2013	sub2331	2331	  1	  1	 25	  2	  1	  2	  4	  2	  1	  2	  1	0.44472	  1	0.60000	  0	 12	 30	 31	  1	
25-Apr-2013	sub2331	2331	  1	  1	 26	  2	  1	  4	  6	  1	  1	  2	  1	0.50935	  1	0.50000	  1	 14	 32	 51	  0	
25-Apr-2013	sub2331	2331	  1	  1	 27	  2	  1	  5	  3	  5	  0	  1	  0	0.43806	  1	0.90000	  0	 15	 37	 48	  1	
25-Apr-2013	sub2331	2331	  1	  1	 28	  2	  1	  1	  2	  3	  1	  2	  0	0.44377	  0	0.90000	  0	 11	 40	 41	  1	
25-Apr-2013	sub2331	2331	  1	  1	 29	  2	  1	  5	  3	  5	  0	  1	  0	0.42729	  1	0.90000	  0	 15	 37	 48	  1	
25-Apr-2013	sub2331	2331	  1	  1	 30	  2	  1	  1	  2	  3	  1	  2	  0	0.42025	  0	0.80000	  0	 11	 40	 41	  1	
25-Apr-2013	sub2331	2331	  1	  1	 31	  2	  1	  6	  5	  2	  0	  1	  1	0.42714	  0	0.80000	  0	 16	 47	 38	  1	
25-Apr-2013	sub2331	2331	  1	  1	 32	  2	  1	  3	  1	  3	  1	  1	  1	0.39886	  1	0.80000	  0	 13	 32	 33	  1	
25-Apr-2013	sub2331	2331	  1	  1	 33	  2	  1	  6	  5	  2	  0	  2	  0	0.47736	  1	0.80000	  0	 16	 37	 48	  1	
25-Apr-2013	sub2331	2331	  1	  1	 34	  2	  1	  3	  1	  3	  1	  1	  1	0.35310	  1	0.80000	  0	 13	 32	 33	  1	
25-Apr-2013	sub2331	2331	  1	  1	 35	  2	  1	  2	  4	  2	  1	  2	  1	0.45742	  1	0.70000	  0	 12	 30	 31	  1	
25-Apr-2013	sub2331	2331	  1	  1	 36	  2	  1	  4	  6	  1	  0	  2	  0	0.42324	  1	0.70000	  0	 14	 34	 49	  1	
25-Apr-2013	sub2331	2331	  1	  1	 37	  2	  1	  4	  6	  1	  0	  2	  0	0.42936	  1	0.70000	  0	 14	 34	 49	  1	
25-Apr-2013	sub2331	2331	  1	  1	 38	  2	  1	  5	  3	  5	  1	  1	  1	0.47197	  1	0.70000	  0	 15	 35	 36	  1	
25-Apr-2013	sub2331	2331	  1	  1	 39	  2	  1	  6	  5	  2	  0	  1	  1	0.41573	  0	0.70000	  0	 16	 47	 38	  1	
25-Apr-2013	sub2331	2331	  1	  1	 40	  2	  1	  1	  2	  3	  1	  2	  0	0.54465	  0	0.70000	  0	 11	 40	 41	  0	
25-Apr-2013	sub2331	2331	  1	  1	 41	  2	  1	  3	  1	  3	  0	  1	  0	0.42686	  1	0.60000	  0	 13	 34	 49	  1	
25-Apr-2013	sub2331	2331	  1	  1	 42	  2	  1	  4	  6	  1	  1	  2	  1	0.46848	  1	0.60000	  0	 14	 32	 33	  1	
25-Apr-2013	sub2331	2331	  1	  1	 43	  2	  1	  5	  3	  5	  1	  1	  1	0.40060	  1	0.60000	  0	 15	 35	 36	  1	
25-Apr-2013	sub2331	2331	  1	  1	 44	  2	  1	  4	  6	  1	  1	  2	  1	0.47884	  1	0.60000	  0	 14	 32	 33	  1	
25-Apr-2013	sub2331	2331	  1	  1	 45	  2	  1	  5	  3	  5	  0	  1	  0	0.48993	  1	0.60000	  0	 15	 37	 48	  1	
25-Apr-2013	sub2331	2331	  1	  1	 46	  2	  1	  1	  2	  3	  1	  2	  0	0.45395	  0	0.60000	  0	 11	 40	 41	  1	
25-Apr-2013	sub2331	2331	  1	  1	 47	  2	  1	  4	  6	  1	  1	  1	  0	0.36856	  0	0.60000	  0	 14	 42	 43	  1	
25-Apr-2013	sub2331	2331	  1	  1	 48	  2	  1	  6	  5	  2	  0	  1	  1	0.53692	  0	0.60000	  0	 16	 47	 38	  0	
25-Apr-2013	sub2331	2331	  1	  1	 49	  2	  1	  5	  3	  5	  1	  1	  1	0.49580	  1	0.60000	  0	 15	 35	 36	  1	
25-Apr-2013	sub2331	2331	  1	  1	 50	  2	  1	  2	  4	  2	  1	  2	  1	0.33696	  1	0.60000	  0	 12	 30	 31	  1	
25-Apr-2013	sub2331	2331	  1	  1	 51	  2	  1	  5	  3	  5	  0	  1	  0	0.41541	  1	0.50000	  0	 15	 37	 48	  1	
25-Apr-2013	sub2331	2331	  1	  1	 52	  2	  1	  3	  1	  3	  1	  2	  0	0.47123	  0	0.50000	  0	 13	 42	 43	  1	
25-Apr-2013	sub2331	2331	  1	  1	 53	  2	  1	  6	  5	  2	  1	  1	  0	0.39337	  0	0.50000	  0	 16	 45	 46	  1	
25-Apr-2013	sub2331	2331	  1	  1	 54	  2	  1	  3	  1	  3	  0	  1	  0	0.30846	  1	0.50000	  0	 13	 34	 49	  1	
25-Apr-2013	sub2331	2331	  1	  1	 55	  2	  1	  2	  4	  2	  1	  1	  0	0.36183	  0	0.50000	  0	 12	 40	 41	  1	
25-Apr-2013	sub2331	2331	  1	  1	 56	  2	  1	  6	  5	  2	  1	  1	  0	0.44528	  0	0.50000	  0	 16	 45	 46	  1	
25-Apr-2013	sub2331	2331	  1	  1	 57	  2	  1	  1	  2	  3	  1	  2	  0	0.51275	  0	0.50000	  1	 11	 40	 51	  0	
25-Apr-2013	sub2331	2331	  1	  1	 58	  2	  1	  1	  2	  3	  1	  2	  0	0.43333	  0	0.70000	  0	 11	 40	 41	  1	
25-Apr-2013	sub2331	2331	  1	  1	 59	  2	  1	  1	  2	  3	  1	  1	  1	0.38013	  1	0.70000	  0	 11	 30	 31	  1	
25-Apr-2013	sub2331	2331	  1	  1	 60	  2	  1	  3	  1	  3	  1	  1	  1	0.41384	  1	0.70000	  0	 13	 32	 33	  1	
25-Apr-2013	sub2331	2331	  1	  1	 61	  2	  1	  5	  3	  5	  1	  1	  1	0.38909	  1	0.60000	  0	 15	 35	 36	  1	
25-Apr-2013	sub2331	2331	  1	  1	 62	  2	  1	  1	  2	  3	  1	  1	  1	0.37386	  1	0.60000	  0	 11	 30	 31	  1	
25-Apr-2013	sub2331	2331	  1	  1	 63	  2	  1	  3	  1	  3	  1	  1	  1	0.43326	  1	0.60000	  0	 13	 32	 33	  1	
25-Apr-2013	sub2331	2331	  1	  1	 64	  2	  1	  4	  6	  1	  1	  2	  1	0.45143	  1	0.60000	  0	 14	 32	 33	  1	
25-Apr-2013	sub2331	2331	  1	  1	 65	  2	  1	  2	  4	  2	  1	  2	  1	0.45217	  1	0.60000	  0	 12	 30	 31	  1	
25-Apr-2013	sub2331	2331	  1	  1	 66	  2	  1	  6	  5	  2	  0	  2	  0	0.50335	  1	0.60000	  0	 16	 37	 48	  0	
25-Apr-2013	sub2331	2331	  1	  1	 67	  2	  1	  4	  6	  1	  1	  2	  1	0.45801	  1	0.60000	  0	 14	 32	 33	  1	
25-Apr-2013	sub2331	2331	  1	  1	 68	  2	  1	  1	  2	  3	  1	  1	  1	0.47710	  1	0.60000	  0	 11	 30	 31	  1	
25-Apr-2013	sub2331	2331	  1	  1	 69	  2	  1	  2	  4	  2	  1	  1	  0	0.39897	  0	0.60000	  0	 12	 40	 41	  1	
25-Apr-2013	sub2331	2331	  1	  1	 70	  2	  1	  2	  4	  2	  1	  2	  1	0.54094	  1	0.60000	  0	 12	 30	 31	  0	
25-Apr-2013	sub2331	2331	  1	  1	 71	  2	  1	  3	  1	  3	  1	  1	  1	0.44042	  1	0.60000	  0	 13	 32	 33	  1	
25-Apr-2013	sub2331	2331	  1	  1	 72	  2	  1	  6	  5	  2	  1	  2	  1	0.46976	  1	0.60000	  0	 16	 35	 36	  1	
25-Apr-2013	sub2331	2331	  1	  1	 73	  2	  1	  6	  5	  2	  0	  2	  0	0.42486	  1	0.60000	  0	 16	 37	 48	  1	
25-Apr-2013	sub2331	2331	  1	  1	 74	  2	  1	  1	  2	  3	  1	  1	  1	0.42329	  1	0.60000	  0	 11	 30	 31	  1	
25-Apr-2013	sub2331	2331	  1	  1	 75	  2	  1	  4	  6	  1	  1	  2	  1	0.45955	  1	0.60000	  0	 14	 32	 33	  1	
25-Apr-2013	sub2331	2331	  1	  1	 76	  2	  2	  5	  3	  5	  0	  1	  0	0.48221	  1	0.50000	  0	 25	 67	 88	  1	
25-Apr-2013	sub2331	2331	  1	  1	 77	  2	  2	  6	  5	  2	  1	  2	  1	0.52923	  1	0.50000	  1	 26	 65	 51	  0	
25-Apr-2013	sub2331	2331	  1	  1	 78	  2	  2	  3	  1	  3	  1	  1	  1	0.41586	  1	0.70000	  0	 23	 62	 63	  1	
25-Apr-2013	sub2331	2331	  1	  1	 79	  2	  2	  3	  1	  3	  1	  1	  1	0.46411	  1	0.70000	  0	 23	 62	 63	  1	
25-Apr-2013	sub2331	2331	  1	  1	 80	  2	  2	  1	  2	  3	  1	  1	  1	0.48679	  1	0.70000	  0	 21	 60	 61	  1	
25-Apr-2013	sub2331	2331	  1	  1	 81	  2	  2	  3	  1	  3	  1	  1	  1	0.49588	  1	0.60000	  0	 23	 62	 63	  1	
25-Apr-2013	sub2331	2331	  1	  1	 82	  2	  2	  6	  5	  2	  0	  1	  1	0.53984	  0	0.60000	  0	 26	 87	 68	  0	
25-Apr-2013	sub2331	2331	  1	  1	 83	  2	  2	  4	  6	  1	  1	  2	  1	0.48806	  1	0.60000	  0	 24	 62	 63	  1	
25-Apr-2013	sub2331	2331	  1	  1	 84	  2	  2	  6	  5	  2	  1	  1	  0	0.61918	  0	0.60000	  1	 26	 85	 51	  0	
25-Apr-2013	sub2331	2331	  1	  1	 85	  2	  2	  6	  5	  2	  1	  1	  0	0.38137	  0	0.70000	  0	 26	 85	 86	  1	
25-Apr-2013	sub2331	2331	  1	  1	 86	  2	  2	  4	  6	  1	  1	  1	  0	0.39956	  0	0.70000	  0	 24	 82	 83	  1	
25-Apr-2013	sub2331	2331	  1	  1	 87	  2	  2	  1	  2	  3	  1	  1	  1	0.42962	  1	0.70000	  0	 21	 60	 61	  1	
25-Apr-2013	sub2331	2331	  1	  1	 88	  2	  2	  6	  5	  2	  1	  1	  0	0.42067	  0	0.70000	  0	 26	 85	 86	  1	
25-Apr-2013	sub2331	2331	  1	  1	 89	  2	  2	  1	  2	  3	  1	  1	  1	0.43268	  1	0.70000	  0	 21	 60	 61	  1	
25-Apr-2013	sub2331	2331	  1	  1	 90	  2	  2	  2	  4	  2	  1	  2	  1	0.52214	  1	0.70000	  0	 22	 60	 61	  0	
25-Apr-2013	sub2331	2331	  1	  1	 91	  2	  2	  6	  5	  2	  1	  2	  1	0.52910	  1	0.70000	  0	 26	 65	 66	  0	
25-Apr-2013	sub2331	2331	  1	  1	 92	  2	  2	  1	  2	  3	  1	  1	  1	0.59068	  1	0.70000	  0	 21	 60	 61	  0	
25-Apr-2013	sub2331	2331	  1	  1	 93	  2	  2	  1	  2	  3	  1	  1	  1	0.40915	  1	0.70000	  0	 21	 60	 61	  1	
25-Apr-2013	sub2331	2331	  1	  1	 94	  2	  2	  3	  1	  3	  0	  1	  0	0.47919	  1	0.70000	  0	 23	 64	 89	  1	
25-Apr-2013	sub2331	2331	  1	  1	 95	  2	  2	  2	  4	  2	  1	  2	  1	0.57002	  1	0.70000	  0	 22	 60	 61	  0	
25-Apr-2013	sub2331	2331	  1	  1	 96	  2	  2	  3	  1	  3	  1	  1	  1	0.37707	  1	0.70000	  0	 23	 62	 63	  1	
25-Apr-2013	sub2331	2331	  1	  1	 97	  2	  2	  5	  3	  5	  0	  1	  0	0.41156	  1	0.70000	  0	 25	 67	 88	  1	
25-Apr-2013	sub2331	2331	  1	  1	 98	  2	  2	  4	  6	  1	  1	  2	  1	0.56119	  1	0.70000	  0	 24	 62	 63	  0	
25-Apr-2013	sub2331	2331	  1	  1	 99	  2	  2	  3	  1	  3	  1	  1	  1	0.50658	  1	0.70000	  0	 23	 62	 63	  0	
25-Apr-2013	sub2331	2331	  1	  1	100	  2	  2	  4	  6	  1	  1	  2	  1	0.58222	  1	0.70000	  0	 24	 62	 63	  0	
25-Apr-2013	sub2331	2331	  1	  1	101	  2	  2	  1	  2	  3	  1	  1	  1	0.54033	  1	0.60000	  0	 21	 60	 61	  0	
25-Apr-2013	sub2331	2331	  1	  1	102	  2	  2	  2	  4	  2	  1	  2	  1	0.54406	  1	0.60000	  0	 22	 60	 61	  0	
25-Apr-2013	sub2331	2331	  1	  1	103	  2	  2	  2	  4	  2	  1	  2	  1	0.50167	  1	0.60000	  0	 22	 60	 61	  0	
25-Apr-2013	sub2331	2331	  1	  1	104	  2	  2	  1	  2	  3	  1	  1	  1	0.55778	  1	0.60000	  0	 21	 60	 61	  0	
25-Apr-2013	sub2331	2331	  1	  1	105	  2	  2	  3	  1	  3	  1	  1	  1	0.52814	  1	0.60000	  0	 23	 62	 63	  0	
25-Apr-2013	sub2331	2331	  1	  1	106	  2	  2	  1	  2	  3	  1	  1	  1	0.53633	  1	0.60000	  0	 21	 60	 61	  0	
25-Apr-2013	sub2331	2331	  1	  1	107	  2	  2	  6	  5	  2	  1	  2	  1	0.56164	  1	0.60000	  0	 26	 65	 66	  0	
25-Apr-2013	sub2331	2331	  1	  1	108	  2	  2	  3	  1	  3	  0	  1	  0	0.48923	  1	0.60000	  0	 23	 64	 89	  1	
25-Apr-2013	sub2331	2331	  1	  1	109	  2	  2	  3	  1	  3	  1	  1	  1	0.47476	  1	0.60000	  0	 23	 62	 63	  1	
25-Apr-2013	sub2331	2331	  1	  1	110	  2	  2	  3	  1	  3	  1	  1	  1	0.43595	  1	0.60000	  0	 23	 62	 63	  1	
25-Apr-2013	sub2331	2331	  1	  1	111	  2	  2	  5	  3	  5	  0	  1	  0	0.52097	  1	0.60000	  0	 25	 67	 88	  0	
25-Apr-2013	sub2331	2331	  1	  1	112	  2	  2	  4	  6	  1	  0	  2	  0	0.52982	  1	0.60000	  0	 24	 64	 89	  0	
25-Apr-2013	sub2331	2331	  1	  1	113	  2	  2	  6	  5	  2	  0	  2	  0	0.59875	  1	0.60000	  0	 26	 67	 88	  0	
25-Apr-2013	sub2331	2331	  1	  1	114	  2	  2	  4	  6	  1	  0	  2	  0	0.54280	  1	0.60000	  0	 24	 64	 89	  0	
25-Apr-2013	sub2331	2331	  1	  1	115	  2	  2	  2	  4	  2	  1	  2	  1	0.55553	  1	0.60000	  0	 22	 60	 61	  0	
25-Apr-2013	sub2331	2331	  1	  1	116	  2	  2	  5	  3	  5	  0	  1	  0	0.50192	  1	0.60000	  0	 25	 67	 88	  0	
25-Apr-2013	sub2331	2331	  1	  1	117	  2	  2	  1	  2	  3	  1	  1	  1	0.45844	  1	0.60000	  0	 21	 60	 61	  1	
25-Apr-2013	sub2331	2331	  1	  1	118	  2	  2	  5	  3	  5	  0	  1	  0	0.48581	  1	0.60000	  0	 25	 67	 88	  1	
25-Apr-2013	sub2331	2331	  1	  1	119	  2	  2	  2	  4	  2	  1	  2	  1	0.51064	  1	0.60000	  0	 22	 60	 61	  0	
25-Apr-2013	sub2331	2331	  1	  1	120	  2	  2	  5	  3	  5	  0	  2	  1	0.51419	  0	0.60000	  0	 25	 87	 68	  0	
25-Apr-2013	sub2331	2331	  1	  1	121	  2	  2	  5	  3	  5	  0	  2	  1	0.43288	  0	0.60000	  0	 25	 87	 68	  1	
25-Apr-2013	sub2331	2331	  1	  1	122	  2	  2	  4	  6	  1	  1	  2	  1	0.56917	  1	0.60000	  0	 24	 62	 63	  0	
25-Apr-2013	sub2331	2331	  1	  1	123	  2	  2	  5	  3	  5	  0	  2	  1	0.47122	  0	0.60000	  0	 25	 87	 68	  1	
25-Apr-2013	sub2331	2331	  1	  1	124	  2	  2	  4	  6	  1	  1	  2	  1	0.46801	  1	0.60000	  0	 24	 62	 63	  1	
25-Apr-2013	sub2331	2331	  1	  1	125	  2	  2	  1	  2	  3	  1	  2	  0	0.54200	  0	0.60000	  0	 21	 80	 81	  0	
25-Apr-2013	sub2331	2331	  1	  1	126	  2	  2	  5	  3	  5	  0	  2	  1	0.59912	  0	0.50000	  1	 25	 87	 51	  0	
25-Apr-2013	sub2331	2331	  1	  1	127	  2	  2	  4	  6	  1	  1	  2	  1	0.46992	  1	0.60000	  0	 24	 62	 63	  1	
25-Apr-2013	sub2331	2331	  1	  1	128	  2	  2	  2	  4	  2	  1	  2	  1	0.52339	  1	0.60000	  0	 22	 60	 61	  0	
25-Apr-2013	sub2331	2331	  1	  1	129	  2	  2	  2	  4	  2	  1	  2	  1	0.50794	  1	0.60000	  0	 22	 60	 61	  0	
25-Apr-2013	sub2331	2331	  1	  1	130	  2	  2	  3	  1	  3	  1	  1	  1	0.45312	  1	0.60000	  0	 23	 62	 63	  1	
25-Apr-2013	sub2331	2331	  1	  1	131	  2	  2	  5	  3	  5	  0	  1	  0	0.41806	  1	0.60000	  0	 25	 67	 88	  1	
25-Apr-2013	sub2331	2331	  1	  1	132	  2	  2	  2	  4	  2	  1	  2	  1	0.51174	  1	0.60000	  0	 22	 60	 61	  0	
25-Apr-2013	sub2331	2331	  1	  1	133	  2	  2	  5	  3	  5	  0	  2	  1	0.55702	  0	0.60000	  0	 25	 87	 68	  0	
25-Apr-2013	sub2331	2331	  1	  1	134	  2	  2	  2	  4	  2	  1	  2	  1	0.49098	  1	0.60000	  0	 22	 60	 61	  1	
25-Apr-2013	sub2331	2331	  1	  1	135	  2	  2	  2	  4	  2	  1	  2	  1	0.52681	  1	0.60000	  0	 22	 60	 61	  0	
25-Apr-2013	sub2331	2331	  1	  1	136	  2	  2	  1	  2	  3	  1	  2	  0	0.59844	  0	0.60000	  0	 21	 80	 81	  0	
25-Apr-2013	sub2331	2331	  1	  1	137	  2	  2	  5	  3	  5	  0	  2	  1	0.52216	  0	0.60000	  0	 25	 87	 68	  0	
25-Apr-2013	sub2331	2331	  1	  1	138	  2	  2	  4	  6	  1	  1	  2	  1	0.46908	  1	0.60000	  0	 24	 62	 63	  1	
25-Apr-2013	sub2331	2331	  1	  1	139	  2	  2	  4	  6	  1	  1	  2	  1	0.51414	  1	0.60000	  0	 24	 62	 63	  0	
25-Apr-2013	sub2331	2331	  1	  1	140	  2	  2	  6	  5	  2	  0	  2	  0	0.54331	  1	0.60000	  0	 26	 67	 88	  0	
25-Apr-2013	sub2331	2331	  1	  1	141	  2	  2	  2	  4	  2	  1	  2	  1	0.50403	  1	0.60000	  0	 22	 60	 61	  0	
25-Apr-2013	sub2331	2331	  1	  1	142	  2	  2	  5	  3	  5	  0	  2	  1	0.62684	  0	0.60000	  1	 25	 87	 51	  0	
25-Apr-2013	sub2331	2331	  1	  1	143	  2	  2	  4	  6	  1	  1	  2	  1	0.48315	  1	0.60000	  0	 24	 62	 63	  1	
25-Apr-2013	sub2331	2331	  1	  1	144	  2	  2	  1	  2	  3	  1	  1	  1	0.57489	  1	0.60000	  0	 21	 60	 61	  0	
25-Apr-2013	sub2331	2331	  1	  1	145	  2	  2	  1	  2	  3	  1	  1	  1	0.63689	  1	0.60000	  1	 21	 60	 51	  0	
25-Apr-2013	sub2331	2331	  1	  1	146	  2	  2	  6	  5	  2	  0	  1	  1	0.57300	  0	0.70000	  0	 26	 87	 68	  0	
25-Apr-2013	sub2331	2331	  1	  1	147	  2	  2	  6	  5	  2	  0	  1	  1	0.44703	  0	0.70000	  0	 26	 87	 68	  1	
25-Apr-2013	sub2331	2331	  1	  1	148	  2	  2	  3	  1	  3	  1	  1	  1	0.45095	  1	0.70000	  0	 23	 62	 63	  1	
25-Apr-2013	sub2331	2331	  1	  1	149	  2	  2	  6	  5	  2	  0	  1	  1	0.44783	  0	0.70000	  0	 26	 87	 68	  1	
25-Apr-2013	sub2331	2331	  1	  1	150	  2	  2	  4	  6	  1	  0	  2	  0	0.50778	  1	0.70000	  0	 24	 64	 89	  0	
25-Apr-2013	sub2331	2331	  1	  1	  1	  3	  1	  5	  2	  4	  0	  1	  0	0.47174	  1	0.60000	  0	 15	 37	 48	  1	
25-Apr-2013	sub2331	2331	  1	  1	  2	  3	  1	  4	  3	  1	  1	  1	  0	0.54413	  0	0.30000	  1	 14	 42	 51	  0	
25-Apr-2013	sub2331	2331	  1	  1	  3	  3	  1	  3	  6	  6	  1	  1	  1	0.45343	  1	0.90000	  0	 13	 32	 33	  1	
25-Apr-2013	sub2331	2331	  1	  1	  4	  3	  1	  1	  4	  3	  1	  1	  1	0.51461	  1	0.90000	  0	 11	 30	 31	  0	
25-Apr-2013	sub2331	2331	  1	  1	  5	  3	  1	  3	  6	  6	  1	  1	  1	0.49763	  1	0.90000	  0	 13	 32	 33	  1	
25-Apr-2013	sub2331	2331	  1	  1	  6	  3	  1	  5	  2	  4	  1	  1	  1	0.45758	  1	0.90000	  0	 15	 35	 36	  1	
25-Apr-2013	sub2331	2331	  1	  1	  7	  3	  1	  5	  2	  4	  1	  1	  1	0.46516	  1	0.90000	  0	 15	 35	 36	  1	
25-Apr-2013	sub2331	2331	  1	  1	  8	  3	  1	  2	  1	  4	  1	  2	  1	0.55310	  1	0.90000	  0	 12	 30	 31	  0	
25-Apr-2013	sub2331	2331	  1	  1	  9	  3	  1	  6	  5	  3	  1	  2	  1	0.48653	  1	0.90000	  0	 16	 35	 36	  1	
25-Apr-2013	sub2331	2331	  1	  1	 10	  3	  1	  3	  6	  6	  1	  1	  1	0.56087	  1	0.90000	  0	 13	 32	 33	  0	
25-Apr-2013	sub2331	2331	  1	  1	 11	  3	  1	  6	  5	  3	  1	  2	  1	0.53393	  1	0.90000	  0	 16	 35	 36	  0	
25-Apr-2013	sub2331	2331	  1	  1	 12	  3	  1	  4	  3	  1	  1	  2	  1	0.52696	  1	0.90000	  0	 14	 32	 33	  0	
25-Apr-2013	sub2331	2331	  1	  1	 13	  3	  1	  1	  4	  3	  1	  1	  1	0.46064	  1	0.90000	  0	 11	 30	 31	  1	
25-Apr-2013	sub2331	2331	  1	  1	 14	  3	  1	  2	  1	  4	  1	  1	  0	0.45033	  0	0.90000	  0	 12	 40	 41	  1	
25-Apr-2013	sub2331	2331	  1	  1	 15	  3	  1	  2	  1	  4	  1	  1	  0	0.48400	  0	0.90000	  0	 12	 40	 41	  1	
25-Apr-2013	sub2331	2331	  1	  1	 16	  3	  1	  4	  3	  1	  1	  1	  0	0.55084	  0	0.80000	  0	 14	 42	 43	  0	
25-Apr-2013	sub2331	2331	  1	  1	 17	  3	  1	  4	  3	  1	  1	  2	  1	0.44476	  1	0.80000	  0	 14	 32	 33	  1	
25-Apr-2013	sub2331	2331	  1	  1	 18	  3	  1	  6	  5	  3	  1	  2	  1	0.51221	  1	0.70000	  0	 16	 35	 36	  0	
25-Apr-2013	sub2331	2331	  1	  1	 19	  3	  1	  2	  1	  4	  1	  2	  1	0.44541	  1	0.70000	  0	 12	 30	 31	  1	
25-Apr-2013	sub2331	2331	  1	  1	 20	  3	  1	  2	  1	  4	  1	  1	  0	0.45743	  0	0.70000	  0	 12	 40	 41	  1	
25-Apr-2013	sub2331	2331	  1	  1	 21	  3	  1	  2	  1	  4	  1	  2	  1	0.39928	  1	0.60000	  0	 12	 30	 31	  1	
25-Apr-2013	sub2331	2331	  1	  1	 22	  3	  1	  6	  5	  3	  0	  2	  0	0.53099	  1	0.60000	  0	 16	 37	 48	  0	
25-Apr-2013	sub2331	2331	  1	  1	 23	  3	  1	  1	  4	  3	  1	  1	  1	0.52615	  1	0.60000	  0	 11	 30	 31	  0	
25-Apr-2013	sub2331	2331	  1	  1	 24	  3	  1	  1	  4	  3	  1	  1	  1	0.52158	  1	0.60000	  0	 11	 30	 31	  0	
25-Apr-2013	sub2331	2331	  1	  1	 25	  3	  1	  3	  6	  6	  1	  2	  0	0.58715	  0	0.60000	  0	 13	 42	 43	  0	
25-Apr-2013	sub2331	2331	  1	  1	 26	  3	  1	  3	  6	  6	  1	  1	  1	0.49112	  1	0.50000	  0	 13	 32	 33	  1	
25-Apr-2013	sub2331	2331	  1	  1	 27	  3	  1	  2	  1	  4	  1	  2	  1	0.58544	  1	0.50000	  1	 12	 30	 51	  0	
25-Apr-2013	sub2331	2331	  1	  1	 28	  3	  1	  1	  4	  3	  1	  2	  0	0.61727	  0	0.90000	  0	 11	 40	 41	  0	
25-Apr-2013	sub2331	2331	  1	  1	 29	  3	  1	  3	  6	  6	  0	  1	  0	0.52342	  1	0.90000	  0	 13	 34	 49	  0	
25-Apr-2013	sub2331	2331	  1	  1	 30	  3	  1	  5	  2	  4	  0	  1	  0	0.42064	  1	0.80000	  0	 15	 37	 48	  1	
25-Apr-2013	sub2331	2331	  1	  1	 31	  3	  1	  6	  5	  3	  1	  2	  1	0.61290	  1	0.80000	  0	 16	 35	 36	  0	
25-Apr-2013	sub2331	2331	  1	  1	 32	  3	  1	  5	  2	  4	  0	  2	  1	0.57745	  0	0.80000	  0	 15	 47	 38	  0	
25-Apr-2013	sub2331	2331	  1	  1	 33	  3	  1	  6	  5	  3	  1	  2	  1	0.50510	  1	0.80000	  0	 16	 35	 36	  0	
25-Apr-2013	sub2331	2331	  1	  1	 34	  3	  1	  6	  5	  3	  1	  2	  1	0.40371	  1	0.80000	  0	 16	 35	 36	  1	
25-Apr-2013	sub2331	2331	  1	  1	 35	  3	  1	  1	  4	  3	  1	  1	  1	0.52497	  1	0.70000	  0	 11	 30	 31	  0	
25-Apr-2013	sub2331	2331	  1	  1	 36	  3	  1	  3	  6	  6	  0	  2	  1	0.50851	  0	0.70000	  0	 13	 44	 39	  0	
25-Apr-2013	sub2331	2331	  1	  1	 37	  3	  1	  5	  2	  4	  1	  2	  0	0.57923	  0	0.70000	  0	 15	 45	 46	  0	
25-Apr-2013	sub2331	2331	  1	  1	 38	  3	  1	  4	  3	  1	  1	  2	  1	0.47786	  1	0.70000	  0	 14	 32	 33	  1	
25-Apr-2013	sub2331	2331	  1	  1	 39	  3	  1	  5	  2	  4	  0	  2	  1	0.43960	  0	0.70000	  0	 15	 47	 38	  1	
25-Apr-2013	sub2331	2331	  1	  1	 40	  3	  1	  6	  5	  3	  0	  2	  0	0.48654	  1	0.70000	  0	 16	 37	 48	  1	
25-Apr-2013	sub2331	2331	  1	  1	 41	  3	  1	  3	  6	  6	  0	  2	  1	0.39001	  0	0.60000	  0	 13	 44	 39	  1	
25-Apr-2013	sub2331	2331	  1	  1	 42	  3	  1	  3	  6	  6	  1	  1	  1	0.59072	  1	0.60000	  0	 13	 32	 33	  0	
25-Apr-2013	sub2331	2331	  1	  1	 43	  3	  1	  3	  6	  6	  1	  1	  1	0.40961	  1	0.60000	  0	 13	 32	 33	  1	
25-Apr-2013	sub2331	2331	  1	  1	 44	  3	  1	  2	  1	  4	  1	  1	  0	0.55272	  0	0.60000	  0	 12	 40	 41	  0	
25-Apr-2013	sub2331	2331	  1	  1	 45	  3	  1	  6	  5	  3	  0	  2	  0	0.55157	  1	0.60000	  0	 16	 37	 48	  0	
25-Apr-2013	sub2331	2331	  1	  1	 46	  3	  1	  1	  4	  3	  1	  1	  1	0.53686	  1	0.60000	  0	 11	 30	 31	  0	
25-Apr-2013	sub2331	2331	  1	  1	 47	  3	  1	  3	  6	  6	  1	  1	  1	0.56550	  1	0.60000	  0	 13	 32	 33	  0	
25-Apr-2013	sub2331	2331	  1	  1	 48	  3	  1	  2	  1	  4	  1	  2	  1	0.57786	  1	0.60000	  0	 12	 30	 31	  0	
25-Apr-2013	sub2331	2331	  1	  1	 49	  3	  1	  5	  2	  4	  1	  2	  0	0.57142	  0	0.60000	  0	 15	 45	 46	  0	
25-Apr-2013	sub2331	2331	  1	  1	 50	  3	  1	  5	  2	  4	  0	  1	  0	0.59635	  1	0.60000	  0	 15	 37	 48	  0	
25-Apr-2013	sub2331	2331	  1	  1	 51	  3	  1	  1	  4	  3	  1	  1	  1	0.55704	  1	0.50000	  1	 11	 30	 51	  0	
25-Apr-2013	sub2331	2331	  1	  1	 52	  3	  1	  6	  5	  3	  0	  2	  0	0.54548	  1	0.70000	  0	 16	 37	 48	  0	
25-Apr-2013	sub2331	2331	  1	  1	 53	  3	  1	  2	  1	  4	  1	  2	  1	0.55141	  1	0.70000	  0	 12	 30	 31	  0	
25-Apr-2013	sub2331	2331	  1	  1	 54	  3	  1	  1	  4	  3	  1	  2	  0	0.45704	  0	0.70000	  0	 11	 40	 41	  1	
25-Apr-2013	sub2331	2331	  1	  1	 55	  3	  1	  1	  4	  3	  1	  1	  1	0.51171	  1	0.70000	  0	 11	 30	 31	  0	
25-Apr-2013	sub2331	2331	  1	  1	 56	  3	  1	  3	  6	  6	  1	  1	  1	0.55710	  1	0.70000	  0	 13	 32	 33	  0	
25-Apr-2013	sub2331	2331	  1	  1	 57	  3	  1	  4	  3	  1	  1	  2	  1	0.46707	  1	0.70000	  0	 14	 32	 33	  1	
25-Apr-2013	sub2331	2331	  1	  1	 58	  3	  1	  4	  3	  1	  1	  2	  1	0.50176	  1	0.70000	  0	 14	 32	 33	  0	
25-Apr-2013	sub2331	2331	  1	  1	 59	  3	  1	  2	  1	  4	  1	  2	  1	0.51043	  1	0.70000	  0	 12	 30	 31	  0	
25-Apr-2013	sub2331	2331	  1	  1	 60	  3	  1	  6	  5	  3	  1	  2	  1	0.55547	  1	0.70000	  0	 16	 35	 36	  0	
25-Apr-2013	sub2331	2331	  1	  1	 61	  3	  1	  1	  4	  3	  1	  1	  1	0.57717	  1	0.60000	  0	 11	 30	 31	  0	
25-Apr-2013	sub2331	2331	  1	  1	 62	  3	  1	  4	  3	  1	  1	  2	  1	0.47799	  1	0.60000	  0	 14	 32	 33	  1	
25-Apr-2013	sub2331	2331	  1	  1	 63	  3	  1	  5	  2	  4	  1	  2	  0	0.52522	  0	0.60000	  0	 15	 45	 46	  0	
25-Apr-2013	sub2331	2331	  1	  1	 64	  3	  1	  1	  4	  3	  1	  1	  1	0.58802	  1	0.60000	  0	 11	 30	 31	  0	
25-Apr-2013	sub2331	2331	  1	  1	 65	  3	  1	  4	  3	  1	  1	  2	  1	0.49426	  1	0.60000	  0	 14	 32	 33	  1	
25-Apr-2013	sub2331	2331	  1	  1	 66	  3	  1	  5	  2	  4	  0	  2	  1	0.59602	  0	0.60000	  0	 15	 47	 38	  0	
25-Apr-2013	sub2331	2331	  1	  1	 67	  3	  1	  6	  5	  3	  0	  2	  0	0.47300	  1	0.60000	  0	 16	 37	 48	  1	
25-Apr-2013	sub2331	2331	  1	  1	 68	  3	  1	  4	  3	  1	  0	  2	  0	0.45264	  1	0.60000	  0	 14	 34	 49	  1	
25-Apr-2013	sub2331	2331	  1	  1	 69	  3	  1	  4	  3	  1	  0	  2	  0	0.45066	  1	0.60000	  0	 14	 34	 49	  1	
25-Apr-2013	sub2331	2331	  1	  1	 70	  3	  1	  2	  1	  4	  1	  2	  1	0.49148	  1	0.60000	  0	 12	 30	 31	  1	
25-Apr-2013	sub2331	2331	  1	  1	 71	  3	  1	  2	  1	  4	  1	  2	  1	0.44767	  1	0.60000	  0	 12	 30	 31	  1	
25-Apr-2013	sub2331	2331	  1	  1	 72	  3	  1	  4	  3	  1	  1	  2	  1	0.43668	  1	0.60000	  0	 14	 32	 33	  1	
25-Apr-2013	sub2331	2331	  1	  1	 73	  3	  1	  6	  5	  3	  0	  2	  0	0.47386	  1	0.60000	  0	 16	 37	 48	  1	
25-Apr-2013	sub2331	2331	  1	  1	 74	  3	  1	  5	  2	  4	  1	  1	  1	0.53682	  1	0.60000	  0	 15	 35	 36	  0	
25-Apr-2013	sub2331	2331	  1	  1	 75	  3	  1	  3	  6	  6	  1	  1	  1	0.52112	  1	0.60000	  0	 13	 32	 33	  0	
25-Apr-2013	sub2331	2331	  1	  1	 76	  3	  2	  5	  2	  4	  0	  1	  0	0.49413	  1	0.50000	  0	 25	 67	 88	  1	
25-Apr-2013	sub2331	2331	  1	  1	 77	  3	  2	  1	  4	  3	  1	  1	  1	0.46767	  1	0.50000	  0	 21	 60	 61	  1	
25-Apr-2013	sub2331	2331	  1	  1	 78	  3	  2	  3	  6	  6	  1	  1	  1	0.40327	  1	0.50000	  0	 23	 62	 63	  1	
25-Apr-2013	sub2331	2331	  1	  1	 79	  3	  2	  3	  6	  6	  1	  1	  1	0.38981	  1	0.50000	  0	 23	 62	 63	  1	
25-Apr-2013	sub2331	2331	  1	  1	 80	  3	  2	  4	  3	  1	  1	  1	  0	0.45352	  0	0.50000	  0	 24	 82	 83	  1	
25-Apr-2013	sub2331	2331	  1	  1	 81	  3	  2	  2	  1	  4	  1	  2	  1	0.46342	  1	0.50000	  0	 22	 60	 61	  1	
25-Apr-2013	sub2331	2331	  1	  1	 82	  3	  2	  1	  4	  3	  1	  1	  1	0.55650	  1	0.50000	  1	 21	 60	 51	  0	
25-Apr-2013	sub2331	2331	  1	  1	 83	  3	  2	  4	  3	  1	  1	  2	  1	0.44302	  1	0.60000	  0	 24	 62	 63	  1	
25-Apr-2013	sub2331	2331	  1	  1	 84	  3	  2	  2	  1	  4	  1	  2	  1	0.45763	  1	0.60000	  0	 22	 60	 61	  1	
25-Apr-2013	sub2331	2331	  1	  1	 85	  3	  2	  1	  4	  3	  1	  1	  1	0.54031	  1	0.60000	  0	 21	 60	 61	  0	
25-Apr-2013	sub2331	2331	  1	  1	 86	  3	  2	  2	  1	  4	  1	  2	  1	0.49804	  1	0.60000	  0	 22	 60	 61	  1	
25-Apr-2013	sub2331	2331	  1	  1	 87	  3	  2	  5	  2	  4	  0	  1	  0	0.51929	  1	0.60000	  0	 25	 67	 88	  0	
25-Apr-2013	sub2331	2331	  1	  1	 88	  3	  2	  5	  2	  4	  0	  1	  0	0.43664	  1	0.60000	  0	 25	 67	 88	  1	
25-Apr-2013	sub2331	2331	  1	  1	 89	  3	  2	  6	  5	  3	  0	  2	  0	0.53662	  1	0.60000	  0	 26	 67	 88	  0	
25-Apr-2013	sub2331	2331	  1	  1	 90	  3	  2	  2	  1	  4	  1	  2	  1	0.55578	  1	0.60000	  0	 22	 60	 61	  0	
25-Apr-2013	sub2331	2331	  1	  1	 91	  3	  2	  1	  4	  3	  1	  2	  0	0.45323	  0	0.60000	  0	 21	 80	 81	  1	
25-Apr-2013	sub2331	2331	  1	  1	 92	  3	  2	  4	  3	  1	  0	  2	  0	0.56678	  1	0.60000	  0	 24	 64	 89	  0	
25-Apr-2013	sub2331	2331	  1	  1	 93	  3	  2	  5	  2	  4	  0	  2	  1	0.61250	  0	0.60000	  1	 25	 87	 51	  0	
25-Apr-2013	sub2331	2331	  1	  1	 94	  3	  2	  4	  3	  1	  1	  2	  1	0.52830	  1	0.70000	  0	 24	 62	 63	  0	
25-Apr-2013	sub2331	2331	  1	  1	 95	  3	  2	  3	  6	  6	  1	  1	  1	0.54252	  1	0.70000	  0	 23	 62	 63	  0	
25-Apr-2013	sub2331	2331	  1	  1	 96	  3	  2	  4	  3	  1	  1	  2	  1	0.50774	  1	0.70000	  0	 24	 62	 63	  0	
25-Apr-2013	sub2331	2331	  1	  1	 97	  3	  2	  4	  3	  1	  1	  2	  1	0.38500	  1	0.70000	  0	 24	 62	 63	  1	
25-Apr-2013	sub2331	2331	  1	  1	 98	  3	  2	  2	  1	  4	  1	  2	  1	0.49603	  1	0.70000	  0	 22	 60	 61	  1	
25-Apr-2013	sub2331	2331	  1	  1	 99	  3	  2	  3	  6	  6	  1	  2	  0	0.40939	  0	0.70000	  0	 23	 82	 83	  1	
25-Apr-2013	sub2331	2331	  1	  1	100	  3	  2	  5	  2	  4	  0	  1	  0	0.45124	  1	0.70000	  0	 25	 67	 88	  1	
25-Apr-2013	sub2331	2331	  1	  1	101	  3	  2	  2	  1	  4	  1	  2	  1	0.45427	  1	0.60000	  0	 22	 60	 61	  1	
25-Apr-2013	sub2331	2331	  1	  1	102	  3	  2	  6	  5	  3	  0	  2	  0	0.49452	  1	0.60000	  0	 26	 67	 88	  1	
25-Apr-2013	sub2331	2331	  1	  1	103	  3	  2	  1	  4	  3	  1	  1	  1	0.53165	  1	0.60000	  0	 21	 60	 61	  0	
25-Apr-2013	sub2331	2331	  1	  1	104	  3	  2	  4	  3	  1	  1	  2	  1	0.48061	  1	0.60000	  0	 24	 62	 63	  1	
25-Apr-2013	sub2331	2331	  1	  1	105	  3	  2	  6	  5	  3	  0	  2	  0	0.46037	  1	0.60000	  0	 26	 67	 88	  1	
25-Apr-2013	sub2331	2331	  1	  1	106	  3	  2	  2	  1	  4	  1	  2	  1	0.40620	  1	0.60000	  0	 22	 60	 61	  1	
25-Apr-2013	sub2331	2331	  1	  1	107	  3	  2	  6	  5	  3	  0	  2	  0	0.47039	  1	0.60000	  0	 26	 67	 88	  1	
25-Apr-2013	sub2331	2331	  1	  1	108	  3	  2	  1	  4	  3	  1	  2	  0	0.41337	  0	0.60000	  0	 21	 80	 81	  1	
25-Apr-2013	sub2331	2331	  1	  1	109	  3	  2	  5	  2	  4	  0	  2	  1	0.69408	  0	0.60000	  1	 25	 87	 51	  0	
25-Apr-2013	sub2331	2331	  1	  1	110	  3	  2	  3	  6	  6	  1	  1	  1	0.50282	  1	0.70000	  0	 23	 62	 63	  0	
25-Apr-2013	sub2331	2331	  1	  1	111	  3	  2	  4	  3	  1	  1	  2	  1	0.43410	  1	0.70000	  0	 24	 62	 63	  1	
25-Apr-2013	sub2331	2331	  1	  1	112	  3	  2	  5	  2	  4	  0	  2	  1	0.39913	  0	0.70000	  0	 25	 87	 68	  1	
25-Apr-2013	sub2331	2331	  1	  1	113	  3	  2	  3	  6	  6	  1	  2	  0	0.33331	  0	0.70000	  0	 23	 82	 83	  1	
25-Apr-2013	sub2331	2331	  1	  1	114	  3	  2	  6	  5	  3	  0	  2	  0	0.53676	  1	0.70000	  0	 26	 67	 88	  0	
25-Apr-2013	sub2331	2331	  1	  1	115	  3	  2	  5	  2	  4	  0	  2	  1	0.50322	  0	0.70000	  0	 25	 87	 68	  0	
25-Apr-2013	sub2331	2331	  1	  1	116	  3	  2	  1	  4	  3	  1	  2	  0	0.45986	  0	0.70000	  0	 21	 80	 81	  1	
25-Apr-2013	sub2331	2331	  1	  1	117	  3	  2	  6	  5	  3	  1	  2	  1	0.51862	  1	0.70000	  0	 26	 65	 66	  0	
25-Apr-2013	sub2331	2331	  1	  1	118	  3	  2	  5	  2	  4	  0	  1	  0	0.58900	  1	0.70000	  0	 25	 67	 88	  0	
25-Apr-2013	sub2331	2331	  1	  1	119	  3	  2	  5	  2	  4	  0	  1	  0	0.48623	  1	0.70000	  0	 25	 67	 88	  1	
25-Apr-2013	sub2331	2331	  1	  1	120	  3	  2	  2	  1	  4	  1	  2	  1	0.66350	  1	0.70000	  0	 22	 60	 61	  0	
25-Apr-2013	sub2331	2331	  1	  1	121	  3	  2	  6	  5	  3	  1	  2	  1	0.47399	  1	0.60000	  0	 26	 65	 66	  1	
25-Apr-2013	sub2331	2331	  1	  1	122	  3	  2	  5	  2	  4	  0	  1	  0	0.55425	  1	0.60000	  0	 25	 67	 88	  0	
25-Apr-2013	sub2331	2331	  1	  1	123	  3	  2	  3	  6	  6	  1	  1	  1	0.59017	  1	0.60000	  0	 23	 62	 63	  0	
25-Apr-2013	sub2331	2331	  1	  1	124	  3	  2	  3	  6	  6	  1	  1	  1	0.48217	  1	0.60000	  0	 23	 62	 63	  1	
25-Apr-2013	sub2331	2331	  1	  1	125	  3	  2	  6	  5	  3	  1	  2	  1	0.54413	  1	0.60000	  0	 26	 65	 66	  0	
25-Apr-2013	sub2331	2331	  1	  1	126	  3	  2	  4	  3	  1	  1	  2	  1	0.48639	  1	0.60000	  0	 24	 62	 63	  1	
25-Apr-2013	sub2331	2331	  1	  1	127	  3	  2	  1	  4	  3	  1	  1	  1	0.49518	  1	0.60000	  0	 21	 60	 61	  1	
25-Apr-2013	sub2331	2331	  1	  1	128	  3	  2	  3	  6	  6	  0	  1	  0	0.52673	  1	0.60000	  0	 23	 64	 89	  0	
25-Apr-2013	sub2331	2331	  1	  1	129	  3	  2	  4	  3	  1	  1	  2	  1	0.47188	  1	0.60000	  0	 24	 62	 63	  1	
25-Apr-2013	sub2331	2331	  1	  1	130	  3	  2	  6	  5	  3	  0	  2	  0	0.52470	  1	0.60000	  0	 26	 67	 88	  0	
25-Apr-2013	sub2331	2331	  1	  1	131	  3	  2	  2	  1	  4	  1	  2	  1	0.51226	  1	0.60000	  0	 22	 60	 61	  0	
25-Apr-2013	sub2331	2331	  1	  1	132	  3	  2	  4	  3	  1	  0	  2	  0	0.43531	  1	0.60000	  0	 24	 64	 89	  1	
25-Apr-2013	sub2331	2331	  1	  1	133	  3	  2	  2	  1	  4	  1	  2	  1	0.55722	  1	0.60000	  0	 22	 60	 61	  0	
25-Apr-2013	sub2331	2331	  1	  1	134	  3	  2	  1	  4	  3	  1	  1	  1	0.52952	  1	0.60000	  0	 21	 60	 61	  0	
25-Apr-2013	sub2331	2331	  1	  1	135	  3	  2	  1	  4	  3	  1	  1	  1	0.42296	  1	0.60000	  0	 21	 60	 61	  1	
25-Apr-2013	sub2331	2331	  1	  1	136	  3	  2	  6	  5	  3	  1	  2	  1	0.55965	  1	0.60000	  0	 26	 65	 66	  0	
25-Apr-2013	sub2331	2331	  1	  1	137	  3	  2	  6	  5	  3	  1	  2	  1	0.44159	  1	0.60000	  0	 26	 65	 66	  1	
25-Apr-2013	sub2331	2331	  1	  1	138	  3	  2	  1	  4	  3	  1	  1	  1	0.59765	  1	0.60000	  0	 21	 60	 61	  0	
25-Apr-2013	sub2331	2331	  1	  1	139	  3	  2	  2	  1	  4	  1	  2	  1	0.45968	  1	0.60000	  0	 22	 60	 61	  1	
25-Apr-2013	sub2331	2331	  1	  1	140	  3	  2	  1	  4	  3	  1	  1	  1	0.48990	  1	0.60000	  0	 21	 60	 61	  1	
25-Apr-2013	sub2331	2331	  1	  1	141	  3	  2	  1	  4	  3	  1	  1	  1	0.45363	  1	0.60000	  0	 21	 60	 61	  1	
25-Apr-2013	sub2331	2331	  1	  1	142	  3	  2	  3	  6	  6	  1	  1	  1	0.49049	  1	0.60000	  0	 23	 62	 63	  1	
25-Apr-2013	sub2331	2331	  1	  1	143	  3	  2	  3	  6	  6	  0	  1	  0	0.44071	  1	0.60000	  0	 23	 64	 89	  1	
25-Apr-2013	sub2331	2331	  1	  1	144	  3	  2	  6	  5	  3	  1	  2	  1	0.56016	  1	0.60000	  0	 26	 65	 66	  0	
25-Apr-2013	sub2331	2331	  1	  1	145	  3	  2	  5	  2	  4	  0	  1	  0	0.60824	  1	0.60000	  1	 25	 67	 51	  0	
25-Apr-2013	sub2331	2331	  1	  1	146	  3	  2	  4	  3	  1	  0	  2	  0	0.46871	  1	0.60000	  0	 24	 64	 89	  1	
25-Apr-2013	sub2331	2331	  1	  1	147	  3	  2	  5	  2	  4	  0	  2	  1	0.49266	  0	0.60000	  0	 25	 87	 68	  1	
25-Apr-2013	sub2331	2331	  1	  1	148	  3	  2	  2	  1	  4	  1	  2	  1	0.48775	  1	0.60000	  0	 22	 60	 61	  1	
25-Apr-2013	sub2331	2331	  1	  1	149	  3	  2	  3	  6	  6	  1	  1	  1	0.54068	  1	0.60000	  0	 23	 62	 63	  0	
25-Apr-2013	sub2331	2331	  1	  1	150	  3	  2	  4	  3	  1	  1	  2	  1	0.42494	  1	0.60000	  0	 24	 62	 63	  1	
25-Apr-2013	sub2331	2331	  1	  1	  1	  4	  1	  6	  2	  5	  1	  2	  1	0.44820	  1	0.60000	  0	 16	 35	 36	  1	
25-Apr-2013	sub2331	2331	  1	  1	  2	  4	  1	  6	  2	  5	  1	  2	  1	0.36271	  1	0.30000	  1	 16	 35	 51	  1	
25-Apr-2013	sub2331	2331	  1	  1	  3	  4	  1	  4	  3	  2	  1	  1	  0	0.57735	  0	0.90000	  0	 14	 42	 43	  0	
25-Apr-2013	sub2331	2331	  1	  1	  4	  4	  1	  3	  4	  5	  1	  1	  1	0.29602	  1	0.90000	  0	 13	 32	 33	  1	
25-Apr-2013	sub2331	2331	  1	  1	  5	  4	  1	  4	  3	  2	  1	  2	  1	0.48880	  1	0.90000	  0	 14	 32	 33	  1	
25-Apr-2013	sub2331	2331	  1	  1	  6	  4	  1	  5	  1	  5	  1	  2	  0	0.38494	  0	0.90000	  0	 15	 45	 46	  1	
25-Apr-2013	sub2331	2331	  1	  1	  7	  4	  1	  1	  5	  5	  1	  2	  0	0.49301	  0	0.90000	  0	 11	 40	 41	  1	
25-Apr-2013	sub2331	2331	  1	  1	  8	  4	  1	  2	  6	  2	  1	  2	  1	0.43096	  1	0.90000	  0	 12	 30	 31	  1	
25-Apr-2013	sub2331	2331	  1	  1	  9	  4	  1	  1	  5	  5	  1	  2	  0	0.47571	  0	0.90000	  0	 11	 40	 41	  1	
25-Apr-2013	sub2331	2331	  1	  1	 10	  4	  1	  4	  3	  2	  1	  2	  1	0.39074	  1	0.90000	  0	 14	 32	 33	  1	
25-Apr-2013	sub2331	2331	  1	  1	 11	  4	  1	  6	  2	  5	  0	  2	  0	0.42464	  1	0.90000	  0	 16	 37	 48	  1	
25-Apr-2013	sub2331	2331	  1	  1	 12	  4	  1	  1	  5	  5	  1	  2	  0	0.37297	  0	0.90000	  0	 11	 40	 41	  1	
25-Apr-2013	sub2331	2331	  1	  1	 13	  4	  1	  1	  5	  5	  1	  2	  0	0.36356	  0	0.90000	  0	 11	 40	 41	  1	
25-Apr-2013	sub2331	2331	  1	  1	 14	  4	  1	  1	  5	  5	  1	  1	  1	0.34335	  1	0.90000	  0	 11	 30	 31	  1	
25-Apr-2013	sub2331	2331	  1	  1	 15	  4	  1	  2	  6	  2	  1	  2	  1	0.58240	  1	0.90000	  0	 12	 30	 31	  0	
25-Apr-2013	sub2331	2331	  1	  1	 16	  4	  1	  6	  2	  5	  1	  2	  1	0.49688	  1	0.80000	  0	 16	 35	 36	  1	
25-Apr-2013	sub2331	2331	  1	  1	 17	  4	  1	  5	  1	  5	  1	  2	  0	0.52625	  0	0.80000	  0	 15	 45	 46	  0	
25-Apr-2013	sub2331	2331	  1	  1	 18	  4	  1	  6	  2	  5	  0	  1	  1	0.48693	  0	0.70000	  0	 16	 47	 38	  1	
25-Apr-2013	sub2331	2331	  1	  1	 19	  4	  1	  3	  4	  5	  1	  1	  1	0.45059	  1	0.70000	  0	 13	 32	 33	  1	
25-Apr-2013	sub2331	2331	  1	  1	 20	  4	  1	  1	  5	  5	  1	  1	  1	0.36158	  1	0.70000	  0	 11	 30	 31	  1	
25-Apr-2013	sub2331	2331	  1	  1	 21	  4	  1	  4	  3	  2	  1	  1	  0	0.45654	  0	0.60000	  0	 14	 42	 43	  1	
25-Apr-2013	sub2331	2331	  1	  1	 22	  4	  1	  1	  5	  5	  1	  2	  0	0.56083	  0	0.60000	  0	 11	 40	 41	  0	
25-Apr-2013	sub2331	2331	  1	  1	 23	  4	  1	  6	  2	  5	  0	  2	  0	0.38973	  1	0.60000	  0	 16	 37	 48	  1	
25-Apr-2013	sub2331	2331	  1	  1	 24	  4	  1	  5	  1	  5	  0	  2	  1	0.48595	  0	0.60000	  0	 15	 47	 38	  1	
25-Apr-2013	sub2331	2331	  1	  1	 25	  4	  1	  5	  1	  5	  0	  2	  1	0.48984	  0	0.60000	  0	 15	 47	 38	  1	
25-Apr-2013	sub2331	2331	  1	  1	 26	  4	  1	  2	  6	  2	  1	  2	  1	0.46867	  1	0.50000	  0	 12	 30	 31	  1	
25-Apr-2013	sub2331	2331	  1	  1	 27	  4	  1	  5	  1	  5	  1	  2	  0	0.38826	  0	0.50000	  0	 15	 45	 46	  1	
25-Apr-2013	sub2331	2331	  1	  1	 28	  4	  1	  5	  1	  5	  0	  2	  1	0.33405	  0	0.50000	  0	 15	 47	 38	  1	
25-Apr-2013	sub2331	2331	  1	  1	 29	  4	  1	  6	  2	  5	  1	  2	  1	0.38146	  1	0.50000	  0	 16	 35	 36	  1	
25-Apr-2013	sub2331	2331	  1	  1	 30	  4	  1	  6	  2	  5	  0	  2	  0	0.38589	  1	0.50000	  0	 16	 37	 48	  1	
25-Apr-2013	sub2331	2331	  1	  1	 31	  4	  1	  2	  6	  2	  1	  1	  0	0.42002	  0	0.50000	  0	 12	 40	 41	  1	
25-Apr-2013	sub2331	2331	  1	  1	 32	  4	  1	  3	  4	  5	  1	  2	  0	0.51434	  0	0.50000	  1	 13	 42	 51	  0	
25-Apr-2013	sub2331	2331	  1	  1	 33	  4	  1	  2	  6	  2	  1	  2	  1	0.49334	  1	0.80000	  0	 12	 30	 31	  1	
25-Apr-2013	sub2331	2331	  1	  1	 34	  4	  1	  2	  6	  2	  1	  2	  1	0.35047	  1	0.80000	  0	 12	 30	 31	  1	
25-Apr-2013	sub2331	2331	  1	  1	 35	  4	  1	  3	  4	  5	  1	  1	  1	0.49866	  1	0.70000	  0	 13	 32	 33	  1	
25-Apr-2013	sub2331	2331	  1	  1	 36	  4	  1	  1	  5	  5	  1	  1	  1	0.45481	  1	0.70000	  0	 11	 30	 31	  1	
25-Apr-2013	sub2331	2331	  1	  1	 37	  4	  1	  5	  1	  5	  1	  2	  0	0.62074	  0	0.70000	  0	 15	 45	 46	  0	
25-Apr-2013	sub2331	2331	  1	  1	 38	  4	  1	  3	  4	  5	  1	  2	  0	0.37038	  0	0.70000	  0	 13	 42	 43	  1	
25-Apr-2013	sub2331	2331	  1	  1	 39	  4	  1	  5	  1	  5	  0	  2	  1	0.43496	  0	0.70000	  0	 15	 47	 38	  1	
25-Apr-2013	sub2331	2331	  1	  1	 40	  4	  1	  3	  4	  5	  1	  2	  0	0.40436	  0	0.70000	  0	 13	 42	 43	  1	
25-Apr-2013	sub2331	2331	  1	  1	 41	  4	  1	  6	  2	  5	  1	  2	  1	0.51643	  1	0.60000	  0	 16	 35	 36	  0	
25-Apr-2013	sub2331	2331	  1	  1	 42	  4	  1	  4	  3	  2	  1	  2	  1	0.50839	  1	0.60000	  0	 14	 32	 33	  0	
25-Apr-2013	sub2331	2331	  1	  1	 43	  4	  1	  4	  3	  2	  1	  2	  1	0.46419	  1	0.60000	  0	 14	 32	 33	  1	
25-Apr-2013	sub2331	2331	  1	  1	 44	  4	  1	  6	  2	  5	  0	  1	  1	0.46155	  0	0.60000	  0	 16	 47	 38	  1	
25-Apr-2013	sub2331	2331	  1	  1	 45	  4	  1	  5	  1	  5	  1	  2	  0	0.45100	  0	0.60000	  0	 15	 45	 46	  1	
25-Apr-2013	sub2331	2331	  1	  1	 46	  4	  1	  4	  3	  2	  1	  2	  1	0.54127	  1	0.60000	  0	 14	 32	 33	  0	
25-Apr-2013	sub2331	2331	  1	  1	 47	  4	  1	  3	  4	  5	  1	  2	  0	0.50314	  0	0.60000	  0	 13	 42	 43	  0	
25-Apr-2013	sub2331	2331	  1	  1	 48	  4	  1	  1	  5	  5	  1	  1	  1	0.50847	  1	0.60000	  0	 11	 30	 31	  0	
25-Apr-2013	sub2331	2331	  1	  1	 49	  4	  1	  4	  3	  2	  1	  1	  0	0.51803	  0	0.60000	  0	 14	 42	 43	  0	
25-Apr-2013	sub2331	2331	  1	  1	 50	  4	  1	  6	  2	  5	  1	  1	  0	0.42839	  0	0.60000	  0	 16	 45	 46	  1	
25-Apr-2013	sub2331	2331	  1	  1	 51	  4	  1	  4	  3	  2	  1	  2	  1	0.46254	  1	0.50000	  0	 14	 32	 33	  1	
25-Apr-2013	sub2331	2331	  1	  1	 52	  4	  1	  4	  3	  2	  0	  2	  0	0.42633	  1	0.50000	  0	 14	 34	 49	  1	
25-Apr-2013	sub2331	2331	  1	  1	 53	  4	  1	  2	  6	  2	  1	  2	  1	0.54414	  1	0.50000	  1	 12	 30	 51	  0	
25-Apr-2013	sub2331	2331	  1	  1	 54	  4	  1	  1	  5	  5	  1	  2	  0	0.29352	  0	0.70000	  0	 11	 40	 41	  1	
25-Apr-2013	sub2331	2331	  1	  1	 55	  4	  1	  4	  3	  2	  0	  1	  1	0.35242	  0	0.70000	  0	 14	 44	 39	  1	
25-Apr-2013	sub2331	2331	  1	  1	 56	  4	  1	  3	  4	  5	  0	  1	  0	0.43446	  1	0.70000	  0	 13	 34	 49	  1	
25-Apr-2013	sub2331	2331	  1	  1	 57	  4	  1	  2	  6	  2	  1	  1	  0	0.49078	  0	0.70000	  0	 12	 40	 41	  1	
25-Apr-2013	sub2331	2331	  1	  1	 58	  4	  1	  1	  5	  5	  1	  1	  1	0.53291	  1	0.70000	  0	 11	 30	 31	  0	
25-Apr-2013	sub2331	2331	  1	  1	 59	  4	  1	  2	  6	  2	  1	  1	  0	0.38379	  0	0.70000	  0	 12	 40	 41	  1	
25-Apr-2013	sub2331	2331	  1	  1	 60	  4	  1	  3	  4	  5	  1	  1	  1	0.49548	  1	0.70000	  0	 13	 32	 33	  1	
25-Apr-2013	sub2331	2331	  1	  1	 61	  4	  1	  1	  5	  5	  1	  1	  1	0.39589	  1	0.60000	  0	 11	 30	 31	  1	
25-Apr-2013	sub2331	2331	  1	  1	 62	  4	  1	  2	  6	  2	  1	  2	  1	0.52410	  1	0.60000	  0	 12	 30	 31	  0	
25-Apr-2013	sub2331	2331	  1	  1	 63	  4	  1	  3	  4	  5	  0	  1	  0	0.47353	  1	0.60000	  0	 13	 34	 49	  1	
25-Apr-2013	sub2331	2331	  1	  1	 64	  4	  1	  5	  1	  5	  0	  2	  1	0.48400	  0	0.60000	  0	 15	 47	 38	  1	
25-Apr-2013	sub2331	2331	  1	  1	 65	  4	  1	  2	  6	  2	  1	  2	  1	0.55371	  1	0.60000	  0	 12	 30	 31	  0	
25-Apr-2013	sub2331	2331	  1	  1	 66	  4	  1	  2	  6	  2	  1	  2	  1	0.43013	  1	0.60000	  0	 12	 30	 31	  1	
25-Apr-2013	sub2331	2331	  1	  1	 67	  4	  1	  5	  1	  5	  1	  1	  1	0.45001	  1	0.60000	  0	 15	 35	 36	  1	
25-Apr-2013	sub2331	2331	  1	  1	 68	  4	  1	  5	  1	  5	  0	  2	  1	0.38877	  0	0.60000	  0	 15	 47	 38	  1	
25-Apr-2013	sub2331	2331	  1	  1	 69	  4	  1	  3	  4	  5	  1	  2	  0	0.43820	  0	0.60000	  0	 13	 42	 43	  1	
25-Apr-2013	sub2331	2331	  1	  1	 70	  4	  1	  3	  4	  5	  1	  1	  1	0.38026	  1	0.60000	  0	 13	 32	 33	  1	
25-Apr-2013	sub2331	2331	  1	  1	 71	  4	  1	  4	  3	  2	  1	  2	  1	0.43153	  1	0.60000	  0	 14	 32	 33	  1	
25-Apr-2013	sub2331	2331	  1	  1	 72	  4	  1	  2	  6	  2	  1	  2	  1	0.48785	  1	0.60000	  0	 12	 30	 31	  1	
25-Apr-2013	sub2331	2331	  1	  1	 73	  4	  1	  3	  4	  5	  0	  1	  0	0.46082	  1	0.60000	  0	 13	 34	 49	  1	
25-Apr-2013	sub2331	2331	  1	  1	 74	  4	  1	  6	  2	  5	  0	  2	  0	0.54334	  1	0.60000	  0	 16	 37	 48	  0	
25-Apr-2013	sub2331	2331	  1	  1	 75	  4	  1	  6	  2	  5	  0	  2	  0	0.38483	  1	0.60000	  0	 16	 37	 48	  1	
25-Apr-2013	sub2331	2331	  1	  1	 76	  4	  2	  5	  1	  5	  0	  2	  1	0.43852	  0	0.50000	  0	 25	 87	 68	  1	
25-Apr-2013	sub2331	2331	  1	  1	 77	  4	  2	  6	  2	  5	  1	  2	  1	0.36138	  1	0.50000	  0	 26	 65	 66	  1	
25-Apr-2013	sub2331	2331	  1	  1	 78	  4	  2	  6	  2	  5	  0	  2	  0	0.38046	  1	0.50000	  0	 26	 67	 88	  1	
25-Apr-2013	sub2331	2331	  1	  1	 79	  4	  2	  5	  1	  5	  0	  2	  1	0.56127	  0	0.50000	  1	 25	 87	 51	  0	
25-Apr-2013	sub2331	2331	  1	  1	 80	  4	  2	  3	  4	  5	  1	  2	  0	0.42171	  0	0.70000	  0	 23	 82	 83	  1	
25-Apr-2013	sub2331	2331	  1	  1	 81	  4	  2	  4	  3	  2	  1	  2	  1	0.45780	  1	0.60000	  0	 24	 62	 63	  1	
25-Apr-2013	sub2331	2331	  1	  1	 82	  4	  2	  4	  3	  2	  1	  2	  1	0.36056	  1	0.60000	  0	 24	 62	 63	  1	
25-Apr-2013	sub2331	2331	  1	  1	 83	  4	  2	  6	  2	  5	  0	  2	  0	0.51384	  1	0.60000	  0	 26	 67	 88	  0	
25-Apr-2013	sub2331	2331	  1	  1	 84	  4	  2	  1	  5	  5	  1	  2	  0	0.42979	  0	0.60000	  0	 21	 80	 81	  1	
25-Apr-2013	sub2331	2331	  1	  1	 85	  4	  2	  3	  4	  5	  0	  1	  0	0.52952	  1	0.60000	  0	 23	 64	 89	  0	
25-Apr-2013	sub2331	2331	  1	  1	 86	  4	  2	  5	  1	  5	  0	  1	  0	0.42745	  1	0.60000	  0	 25	 67	 88	  1	
25-Apr-2013	sub2331	2331	  1	  1	 87	  4	  2	  6	  2	  5	  0	  1	  1	0.34919	  0	0.60000	  0	 26	 87	 68	  1	
25-Apr-2013	sub2331	2331	  1	  1	 88	  4	  2	  5	  1	  5	  0	  2	  1	0.53496	  0	0.60000	  0	 25	 87	 68	  0	
25-Apr-2013	sub2331	2331	  1	  1	 89	  4	  2	  1	  5	  5	  1	  1	  1	0.59052	  1	0.60000	  0	 21	 60	 61	  0	
25-Apr-2013	sub2331	2331	  1	  1	 90	  4	  2	  3	  4	  5	  1	  1	  1	0.43502	  1	0.60000	  0	 23	 62	 63	  1	
25-Apr-2013	sub2331	2331	  1	  1	 91	  4	  2	  1	  5	  5	  1	  1	  1	0.50513	  1	0.60000	  0	 21	 60	 61	  0	
25-Apr-2013	sub2331	2331	  1	  1	 92	  4	  2	  3	  4	  5	  1	  1	  1	0.34264	  1	0.60000	  0	 23	 62	 63	  1	
25-Apr-2013	sub2331	2331	  1	  1	 93	  4	  2	  5	  1	  5	  0	  2	  1	0.45100	  0	0.60000	  0	 25	 87	 68	  1	
25-Apr-2013	sub2331	2331	  1	  1	 94	  4	  2	  5	  1	  5	  0	  2	  1	0.31813	  0	0.60000	  0	 25	 87	 68	  1	
25-Apr-2013	sub2331	2331	  1	  1	 95	  4	  2	  5	  1	  5	  0	  2	  1	0.38771	  0	0.60000	  0	 25	 87	 68	  1	
25-Apr-2013	sub2331	2331	  1	  1	 96	  4	  2	  2	  6	  2	  1	  2	  1	0.48173	  1	0.60000	  0	 22	 60	 61	  1	
25-Apr-2013	sub2331	2331	  1	  1	 97	  4	  2	  4	  3	  2	  1	  2	  1	0.46099	  1	0.60000	  0	 24	 62	 63	  1	
25-Apr-2013	sub2331	2331	  1	  1	 98	  4	  2	  3	  4	  5	  1	  1	  1	0.41922	  1	0.60000	  0	 23	 62	 63	  1	
25-Apr-2013	sub2331	2331	  1	  1	 99	  4	  2	  6	  2	  5	  0	  1	  1	0.44970	  0	0.60000	  0	 26	 87	 68	  1	
25-Apr-2013	sub2331	2331	  1	  1	100	  4	  2	  4	  3	  2	  0	  2	  0	0.43836	  1	0.60000	  0	 24	 64	 89	  1	
25-Apr-2013	sub2331	2331	  1	  1	101	  4	  2	  1	  5	  5	  1	  1	  1	0.40687	  1	0.50000	  0	 21	 60	 61	  1	
25-Apr-2013	sub2331	2331	  1	  1	102	  4	  2	  1	  5	  5	  1	  1	  1	0.43396	  1	0.50000	  0	 21	 60	 61	  1	
25-Apr-2013	sub2331	2331	  1	  1	103	  4	  2	  1	  5	  5	  1	  1	  1	0.39915	  1	0.50000	  0	 21	 60	 61	  1	
25-Apr-2013	sub2331	2331	  1	  1	104	  4	  2	  2	  6	  2	  1	  2	  1	0.51069	  1	0.50000	  1	 22	 60	 51	  0	
25-Apr-2013	sub2331	2331	  1	  1	105	  4	  2	  2	  6	  2	  1	  2	  1	0.35938	  1	0.60000	  0	 22	 60	 61	  1	
25-Apr-2013	sub2331	2331	  1	  1	106	  4	  2	  3	  4	  5	  0	  1	  0	0.45767	  1	0.60000	  0	 23	 64	 89	  1	
25-Apr-2013	sub2331	2331	  1	  1	107	  4	  2	  4	  3	  2	  1	  2	  1	0.59365	  1	0.60000	  0	 24	 62	 63	  0	
25-Apr-2013	sub2331	2331	  1	  1	108	  4	  2	  5	  1	  5	  0	  2	  1	0.49757	  0	0.60000	  0	 25	 87	 68	  1	
25-Apr-2013	sub2331	2331	  1	  1	109	  4	  2	  6	  2	  5	  1	  1	  0	0.60406	  0	0.60000	  1	 26	 85	 51	  0	
25-Apr-2013	sub2331	2331	  1	  1	110	  4	  2	  3	  4	  5	  1	  1	  1	0.47297	  1	0.70000	  0	 23	 62	 63	  1	
25-Apr-2013	sub2331	2331	  1	  1	111	  4	  2	  4	  3	  2	  0	  1	  1	0.43568	  0	0.70000	  0	 24	 84	 69	  1	
25-Apr-2013	sub2331	2331	  1	  1	112	  4	  2	  1	  5	  5	  1	  1	  1	0.54894	  1	0.70000	  0	 21	 60	 61	  0	
25-Apr-2013	sub2331	2331	  1	  1	113	  4	  2	  5	  1	  5	  0	  2	  1	0.46259	  0	0.70000	  0	 25	 87	 68	  1	
25-Apr-2013	sub2331	2331	  1	  1	114	  4	  2	  2	  6	  2	  1	  2	  1	0.37455	  1	0.70000	  0	 22	 60	 61	  1	
25-Apr-2013	sub2331	2331	  1	  1	115	  4	  2	  5	  1	  5	  0	  1	  0	0.43106	  1	0.70000	  0	 25	 67	 88	  1	
25-Apr-2013	sub2331	2331	  1	  1	116	  4	  2	  4	  3	  2	  1	  2	  1	0.33831	  1	0.70000	  0	 24	 62	 63	  1	
25-Apr-2013	sub2331	2331	  1	  1	117	  4	  2	  3	  4	  5	  1	  1	  1	0.46948	  1	0.70000	  0	 23	 62	 63	  1	
25-Apr-2013	sub2331	2331	  1	  1	118	  4	  2	  2	  6	  2	  1	  2	  1	0.41101	  1	0.70000	  0	 22	 60	 61	  1	
25-Apr-2013	sub2331	2331	  1	  1	119	  4	  2	  5	  1	  5	  0	  2	  1	0.51104	  0	0.70000	  0	 25	 87	 68	  0	
25-Apr-2013	sub2331	2331	  1	  1	120	  4	  2	  2	  6	  2	  1	  2	  1	0.42955	  1	0.70000	  0	 22	 60	 61	  1	
25-Apr-2013	sub2331	2331	  1	  1	121	  4	  2	  6	  2	  5	  1	  1	  0	0.62720	  0	0.60000	  1	 26	 85	 51	  0	
25-Apr-2013	sub2331	2331	  1	  1	122	  4	  2	  4	  3	  2	  1	  2	  1	0.36598	  1	0.70000	  0	 24	 62	 63	  1	
25-Apr-2013	sub2331	2331	  1	  1	123	  4	  2	  3	  4	  5	  1	  1	  1	0.46236	  1	0.70000	  0	 23	 62	 63	  1	
25-Apr-2013	sub2331	2331	  1	  1	124	  4	  2	  1	  5	  5	  1	  2	  0	0.39763	  0	0.70000	  0	 21	 80	 81	  1	
25-Apr-2013	sub2331	2331	  1	  1	125	  4	  2	  2	  6	  2	  1	  2	  1	0.40980	  1	0.70000	  0	 22	 60	 61	  1	
25-Apr-2013	sub2331	2331	  1	  1	126	  4	  2	  5	  1	  5	  0	  2	  1	0.44876	  0	0.70000	  0	 25	 87	 68	  1	
25-Apr-2013	sub2331	2331	  1	  1	127	  4	  2	  4	  3	  2	  1	  2	  1	0.44324	  1	0.70000	  0	 24	 62	 63	  1	
25-Apr-2013	sub2331	2331	  1	  1	128	  4	  2	  3	  4	  5	  1	  2	  0	0.36776	  0	0.70000	  0	 23	 82	 83	  1	
25-Apr-2013	sub2331	2331	  1	  1	129	  4	  2	  1	  5	  5	  1	  1	  1	0.42545	  1	0.70000	  0	 21	 60	 61	  1	
25-Apr-2013	sub2331	2331	  1	  1	130	  4	  2	  3	  4	  5	  1	  1	  1	0.42384	  1	0.70000	  0	 23	 62	 63	  1	
25-Apr-2013	sub2331	2331	  1	  1	131	  4	  2	  5	  1	  5	  0	  2	  1	0.46972	  0	0.70000	  0	 25	 87	 68	  1	
25-Apr-2013	sub2331	2331	  1	  1	132	  4	  2	  4	  3	  2	  0	  2	  0	0.45215	  1	0.70000	  0	 24	 64	 89	  1	
25-Apr-2013	sub2331	2331	  1	  1	133	  4	  2	  6	  2	  5	  1	  2	  1	0.29564	  1	0.70000	  0	 26	 65	 66	  1	
25-Apr-2013	sub2331	2331	  1	  1	134	  4	  2	  1	  5	  5	  1	  1	  1	0.36651	  1	0.70000	  0	 21	 60	 61	  1	
25-Apr-2013	sub2331	2331	  1	  1	135	  4	  2	  4	  3	  2	  1	  2	  1	0.50501	  1	0.70000	  0	 24	 62	 63	  0	
25-Apr-2013	sub2331	2331	  1	  1	136	  4	  2	  2	  6	  2	  1	  2	  1	0.48232	  1	0.70000	  0	 22	 60	 61	  1	
25-Apr-2013	sub2331	2331	  1	  1	137	  4	  2	  2	  6	  2	  1	  2	  1	0.37847	  1	0.70000	  0	 22	 60	 61	  1	
25-Apr-2013	sub2331	2331	  1	  1	138	  4	  2	  4	  3	  2	  1	  2	  1	0.33136	  1	0.70000	  0	 24	 62	 63	  1	
25-Apr-2013	sub2331	2331	  1	  1	139	  4	  2	  6	  2	  5	  0	  1	  1	0.53132	  0	0.70000	  0	 26	 87	 68	  0	
25-Apr-2013	sub2331	2331	  1	  1	140	  4	  2	  1	  5	  5	  1	  1	  1	0.50417	  1	0.70000	  0	 21	 60	 61	  0	
25-Apr-2013	sub2331	2331	  1	  1	141	  4	  2	  2	  6	  2	  1	  2	  1	0.39650	  1	0.60000	  0	 22	 60	 61	  1	
25-Apr-2013	sub2331	2331	  1	  1	142	  4	  2	  3	  4	  5	  1	  1	  1	0.55956	  1	0.60000	  0	 23	 62	 63	  0	
25-Apr-2013	sub2331	2331	  1	  1	143	  4	  2	  6	  2	  5	  1	  2	  1	0.38707	  1	0.60000	  0	 26	 65	 66	  1	
25-Apr-2013	sub2331	2331	  1	  1	144	  4	  2	  4	  3	  2	  1	  2	  1	0.37388	  1	0.60000	  0	 24	 62	 63	  1	
25-Apr-2013	sub2331	2331	  1	  1	145	  4	  2	  2	  6	  2	  1	  2	  1	0.38802	  1	0.60000	  0	 22	 60	 61	  1	
25-Apr-2013	sub2331	2331	  1	  1	146	  4	  2	  6	  2	  5	  0	  1	  1	0.44311	  0	0.60000	  0	 26	 87	 68	  1	
25-Apr-2013	sub2331	2331	  1	  1	147	  4	  2	  2	  6	  2	  1	  2	  1	0.39683	  1	0.60000	  0	 22	 60	 61	  1	
25-Apr-2013	sub2331	2331	  1	  1	148	  4	  2	  1	  5	  5	  1	  1	  1	0.48796	  1	0.60000	  0	 21	 60	 61	  1	
25-Apr-2013	sub2331	2331	  1	  1	149	  4	  2	  6	  2	  5	  1	  1	  0	0.53829	  0	0.60000	  0	 26	 85	 86	  0	
25-Apr-2013	sub2331	2331	  1	  1	150	  4	  2	  1	  5	  5	  1	  1	  1	0.46710	  1	0.60000	  0	 21	 60	 61	  1	
25-Apr-2013	sub2331	2331	  1	  1	  1	  5	  1	  4	  6	  4	  1	  1	  0	0.40577	  0	0.60000	  0	 14	 42	 43	  1	
25-Apr-2013	sub2331	2331	  1	  1	  2	  5	  1	  2	  1	  2	  1	  2	  1	0.50945	  1	0.30000	  1	 12	 30	 51	  0	
25-Apr-2013	sub2331	2331	  1	  1	  3	  5	  1	  5	  2	  2	  1	  2	  0	0.34210	  0	0.90000	  0	 15	 45	 46	  1	
25-Apr-2013	sub2331	2331	  1	  1	  4	  5	  1	  4	  6	  4	  0	  2	  0	0.41350	  1	0.90000	  0	 14	 34	 49	  1	
25-Apr-2013	sub2331	2331	  1	  1	  5	  5	  1	  5	  2	  2	  1	  2	  0	0.47066	  0	0.90000	  0	 15	 45	 46	  1	
25-Apr-2013	sub2331	2331	  1	  1	  6	  5	  1	  5	  2	  2	  1	  2	  0	0.37663	  0	0.90000	  0	 15	 45	 46	  1	
25-Apr-2013	sub2331	2331	  1	  1	  7	  5	  1	  5	  2	  2	  0	  2	  1	0.30632	  0	0.90000	  0	 15	 47	 38	  1	
25-Apr-2013	sub2331	2331	  1	  1	  8	  5	  1	  4	  6	  4	  1	  2	  1	0.36120	  1	0.90000	  0	 14	 32	 33	  1	
25-Apr-2013	sub2331	2331	  1	  1	  9	  5	  1	  3	  4	  4	  1	  2	  0	0.39497	  0	0.90000	  0	 13	 42	 43	  1	
25-Apr-2013	sub2331	2331	  1	  1	 10	  5	  1	  2	  1	  2	  1	  2	  1	0.42079	  1	0.90000	  0	 12	 30	 31	  1	
25-Apr-2013	sub2331	2331	  1	  1	 11	  5	  1	  2	  1	  2	  1	  2	  1	0.43494	  1	0.90000	  0	 12	 30	 31	  1	
25-Apr-2013	sub2331	2331	  1	  1	 12	  5	  1	  1	  3	  3	  1	  2	  0	0.47296	  0	0.90000	  0	 11	 40	 41	  1	
25-Apr-2013	sub2331	2331	  1	  1	 13	  5	  1	  6	  5	  4	  1	  1	  0	0.50558	  0	0.90000	  0	 16	 45	 46	  0	
25-Apr-2013	sub2331	2331	  1	  1	 14	  5	  1	  2	  1	  2	  1	  1	  0	0.40915	  0	0.90000	  0	 12	 40	 41	  1	
25-Apr-2013	sub2331	2331	  1	  1	 15	  5	  1	  4	  6	  4	  1	  1	  0	0.29679	  0	0.90000	  0	 14	 42	 43	  1	
25-Apr-2013	sub2331	2331	  1	  1	 16	  5	  1	  5	  2	  2	  0	  1	  0	0.35733	  1	0.80000	  0	 15	 37	 48	  1	
25-Apr-2013	sub2331	2331	  1	  1	 17	  5	  1	  6	  5	  4	  0	  1	  1	0.42670	  0	0.80000	  0	 16	 47	 38	  1	
25-Apr-2013	sub2331	2331	  1	  1	 18	  5	  1	  1	  3	  3	  1	  2	  0	0.40065	  0	0.70000	  0	 11	 40	 41	  1	
25-Apr-2013	sub2331	2331	  1	  1	 19	  5	  1	  2	  1	  2	  1	  2	  1	0.32016	  1	0.70000	  0	 12	 30	 31	  1	
25-Apr-2013	sub2331	2331	  1	  1	 20	  5	  1	  2	  1	  2	  1	  2	  1	0.35047	  1	0.70000	  0	 12	 30	 31	  1	
25-Apr-2013	sub2331	2331	  1	  1	 21	  5	  1	  6	  5	  4	  1	  2	  1	0.40071	  1	0.60000	  0	 16	 35	 36	  1	
25-Apr-2013	sub2331	2331	  1	  1	 22	  5	  1	  6	  5	  4	  0	  2	  0	0.33119	  1	0.60000	  0	 16	 37	 48	  1	
25-Apr-2013	sub2331	2331	  1	  1	 23	  5	  1	  3	  4	  4	  1	  2	  0	0.27249	  0	0.60000	  0	 13	 42	 43	  1	
25-Apr-2013	sub2331	2331	  1	  1	 24	  5	  1	  5	  2	  2	  1	  2	  0	0.31408	  0	0.60000	  0	 15	 45	 46	  1	
25-Apr-2013	sub2331	2331	  1	  1	 25	  5	  1	  1	  3	  3	  1	  2	  0	0.36453	  0	0.60000	  0	 11	 40	 41	  1	
25-Apr-2013	sub2331	2331	  1	  1	 26	  5	  1	  3	  4	  4	  1	  1	  1	0.51297	  1	0.50000	  1	 13	 32	 51	  0	
25-Apr-2013	sub2331	2331	  1	  1	 27	  5	  1	  4	  6	  4	  1	  1	  0	0.32184	  0	0.90000	  0	 14	 42	 43	  1	
25-Apr-2013	sub2331	2331	  1	  1	 28	  5	  1	  1	  3	  3	  1	  1	  1	0.37966	  1	0.90000	  0	 11	 30	 31	  1	
25-Apr-2013	sub2331	2331	  1	  1	 29	  5	  1	  1	  3	  3	  1	  1	  1	0.36981	  1	0.90000	  0	 11	 30	 31	  1	
25-Apr-2013	sub2331	2331	  1	  1	 30	  5	  1	  3	  4	  4	  1	  2	  0	0.41937	  0	0.80000	  0	 13	 42	 43	  1	
25-Apr-2013	sub2331	2331	  1	  1	 31	  5	  1	  1	  3	  3	  1	  1	  1	0.44027	  1	0.80000	  0	 11	 30	 31	  1	
25-Apr-2013	sub2331	2331	  1	  1	 32	  5	  1	  3	  4	  4	  1	  2	  0	0.39126	  0	0.80000	  0	 13	 42	 43	  1	
25-Apr-2013	sub2331	2331	  1	  1	 33	  5	  1	  2	  1	  2	  1	  1	  0	0.48037	  0	0.80000	  0	 12	 40	 41	  1	
25-Apr-2013	sub2331	2331	  1	  1	 34	  5	  1	  6	  5	  4	  0	  2	  0	0.51657	  1	0.80000	  0	 16	 37	 48	  0	
25-Apr-2013	sub2331	2331	  1	  1	 35	  5	  1	  3	  4	  4	  1	  1	  1	0.49435	  1	0.70000	  0	 13	 32	 33	  1	
25-Apr-2013	sub2331	2331	  1	  1	 36	  5	  1	  5	  2	  2	  0	  2	  1	0.56352	  0	0.70000	  0	 15	 47	 38	  0	
25-Apr-2013	sub2331	2331	  1	  1	 37	  5	  1	  3	  4	  4	  1	  1	  1	0.41270	  1	0.70000	  0	 13	 32	 33	  1	
25-Apr-2013	sub2331	2331	  1	  1	 38	  5	  1	  6	  5	  4	  0	  1	  1	0.47483	  0	0.70000	  0	 16	 47	 38	  1	
25-Apr-2013	sub2331	2331	  1	  1	 39	  5	  1	  4	  6	  4	  1	  2	  1	0.44051	  1	0.70000	  0	 14	 32	 33	  1	
25-Apr-2013	sub2331	2331	  1	  1	 40	  5	  1	  6	  5	  4	  1	  2	  1	0.41920	  1	0.70000	  0	 16	 35	 36	  1	
25-Apr-2013	sub2331	2331	  1	  1	 41	  5	  1	  4	  6	  4	  1	  1	  0	0.31674	  0	0.60000	  0	 14	 42	 43	  1	
25-Apr-2013	sub2331	2331	  1	  1	 42	  5	  1	  1	  3	  3	  1	  1	  1	0.44141	  1	0.60000	  0	 11	 30	 31	  1	
25-Apr-2013	sub2331	2331	  1	  1	 43	  5	  1	  6	  5	  4	  0	  2	  0	0.40630	  1	0.60000	  0	 16	 37	 48	  1	
25-Apr-2013	sub2331	2331	  1	  1	 44	  5	  1	  4	  6	  4	  0	  2	  0	0.39836	  1	0.60000	  0	 14	 34	 49	  1	
25-Apr-2013	sub2331	2331	  1	  1	 45	  5	  1	  4	  6	  4	  1	  2	  1	0.36971	  1	0.60000	  0	 14	 32	 33	  1	
25-Apr-2013	sub2331	2331	  1	  1	 46	  5	  1	  5	  2	  2	  0	  1	  0	0.58650	  1	0.60000	  0	 15	 37	 48	  0	
25-Apr-2013	sub2331	2331	  1	  1	 47	  5	  1	  2	  1	  2	  1	  2	  1	0.45420	  1	0.60000	  0	 12	 30	 31	  1	
25-Apr-2013	sub2331	2331	  1	  1	 48	  5	  1	  4	  6	  4	  1	  1	  0	0.44214	  0	0.60000	  0	 14	 42	 43	  1	
25-Apr-2013	sub2331	2331	  1	  1	 49	  5	  1	  5	  2	  2	  1	  2	  0	0.40708	  0	0.60000	  0	 15	 45	 46	  1	
25-Apr-2013	sub2331	2331	  1	  1	 50	  5	  1	  1	  3	  3	  1	  2	  0	0.42490	  0	0.60000	  0	 11	 40	 41	  1	
25-Apr-2013	sub2331	2331	  1	  1	 51	  5	  1	  1	  3	  3	  1	  1	  1	0.49373	  1	0.50000	  0	 11	 30	 31	  1	
25-Apr-2013	sub2331	2331	  1	  1	 52	  5	  1	  5	  2	  2	  0	  1	  0	0.45448	  1	0.50000	  0	 15	 37	 48	  1	
25-Apr-2013	sub2331	2331	  1	  1	 53	  5	  1	  6	  5	  4	  1	  1	  0	0.41716	  0	0.50000	  0	 16	 45	 46	  1	
25-Apr-2013	sub2331	2331	  1	  1	 54	  5	  1	  4	  6	  4	  1	  2	  1	0.42766	  1	0.50000	  0	 14	 32	 33	  1	
25-Apr-2013	sub2331	2331	  1	  1	 55	  5	  1	  2	  1	  2	  1	  2	  1	0.58712	  1	0.50000	  1	 12	 30	 51	  0	
25-Apr-2013	sub2331	2331	  1	  1	 56	  5	  1	  2	  1	  2	  1	  2	  1	0.42593	  1	0.70000	  0	 12	 30	 31	  1	
25-Apr-2013	sub2331	2331	  1	  1	 57	  5	  1	  1	  3	  3	  1	  1	  1	0.43857	  1	0.70000	  0	 11	 30	 31	  1	
25-Apr-2013	sub2331	2331	  1	  1	 58	  5	  1	  5	  2	  2	  1	  2	  0	0.38510	  0	0.70000	  0	 15	 45	 46	  1	
25-Apr-2013	sub2331	2331	  1	  1	 59	  5	  1	  2	  1	  2	  1	  2	  1	0.41858	  1	0.70000	  0	 12	 30	 31	  1	
25-Apr-2013	sub2331	2331	  1	  1	 60	  5	  1	  3	  4	  4	  0	  1	  0	0.42003	  1	0.70000	  0	 13	 34	 49	  1	
25-Apr-2013	sub2331	2331	  1	  1	 61	  5	  1	  6	  5	  4	  1	  1	  0	0.37278	  0	0.60000	  0	 16	 45	 46	  1	
25-Apr-2013	sub2331	2331	  1	  1	 62	  5	  1	  4	  6	  4	  1	  1	  0	0.32558	  0	0.60000	  0	 14	 42	 43	  1	
25-Apr-2013	sub2331	2331	  1	  1	 63	  5	  1	  3	  4	  4	  1	  2	  0	0.44106	  0	0.60000	  0	 13	 42	 43	  1	
25-Apr-2013	sub2331	2331	  1	  1	 64	  5	  1	  3	  4	  4	  1	  2	  0	0.46084	  0	0.60000	  0	 13	 42	 43	  1	
25-Apr-2013	sub2331	2331	  1	  1	 65	  5	  1	  3	  4	  4	  0	  1	  0	0.46285	  1	0.60000	  0	 13	 34	 49	  1	
25-Apr-2013	sub2331	2331	  1	  1	 66	  5	  1	  5	  2	  2	  1	  2	  0	0.63602	  0	0.60000	  1	 15	 45	 51	  0	
25-Apr-2013	sub2331	2331	  1	  1	 67	  5	  1	  6	  5	  4	  0	  2	  0	0.40217	  1	0.80000	  0	 16	 37	 48	  1	
25-Apr-2013	sub2331	2331	  1	  1	 68	  5	  1	  2	  1	  2	  1	  2	  1	0.36103	  1	0.70000	  0	 12	 30	 31	  1	
25-Apr-2013	sub2331	2331	  1	  1	 69	  5	  1	  6	  5	  4	  0	  2	  0	0.39411	  1	0.70000	  0	 16	 37	 48	  1	
25-Apr-2013	sub2331	2331	  1	  1	 70	  5	  1	  2	  1	  2	  1	  2	  1	0.38683	  1	0.70000	  0	 12	 30	 31	  1	
25-Apr-2013	sub2331	2331	  1	  1	 71	  5	  1	  3	  4	  4	  0	  2	  1	0.36299	  0	0.70000	  0	 13	 44	 39	  1	
25-Apr-2013	sub2331	2331	  1	  1	 72	  5	  1	  1	  3	  3	  1	  2	  0	0.27003	  0	0.70000	  0	 11	 40	 41	  1	
25-Apr-2013	sub2331	2331	  1	  1	 73	  5	  1	  3	  4	  4	  1	  2	  0	0.42191	  0	0.70000	  0	 13	 42	 43	  1	
25-Apr-2013	sub2331	2331	  1	  1	 74	  5	  1	  1	  3	  3	  1	  1	  1	0.42949	  1	0.70000	  0	 11	 30	 31	  1	
25-Apr-2013	sub2331	2331	  1	  1	 75	  5	  1	  6	  5	  4	  1	  1	  0	0.47301	  0	0.70000	  0	 16	 45	 46	  1	
25-Apr-2013	sub2331	2331	  1	  1	 76	  5	  2	  1	  3	  3	  1	  1	  1	0.41791	  1	0.70000	  0	 21	 60	 61	  1	
25-Apr-2013	sub2331	2331	  1	  1	 77	  5	  2	  5	  2	  2	  0	  1	  0	0.38288	  1	0.70000	  0	 25	 67	 88	  1	
25-Apr-2013	sub2331	2331	  1	  1	 78	  5	  2	  6	  5	  4	  1	  1	  0	0.43666	  0	0.70000	  0	 26	 85	 86	  1	
25-Apr-2013	sub2331	2331	  1	  1	 79	  5	  2	  3	  4	  4	  1	  1	  1	0.45792	  1	0.70000	  0	 23	 62	 63	  1	
25-Apr-2013	sub2331	2331	  1	  1	 80	  5	  2	  5	  2	  2	  0	  1	  0	0.59210	  1	0.70000	  0	 25	 67	 88	  0	
25-Apr-2013	sub2331	2331	  1	  1	 81	  5	  2	  1	  3	  3	  1	  1	  1	0.46312	  1	0.60000	  0	 21	 60	 61	  1	
25-Apr-2013	sub2331	2331	  1	  1	 82	  5	  2	  1	  3	  3	  1	  1	  1	0.42763	  1	0.60000	  0	 21	 60	 61	  1	
25-Apr-2013	sub2331	2331	  1	  1	 83	  5	  2	  6	  5	  4	  0	  1	  1	0.40676	  0	0.60000	  0	 26	 87	 68	  1	
25-Apr-2013	sub2331	2331	  1	  1	 84	  5	  2	  4	  6	  4	  1	  1	  0	0.39196	  0	0.60000	  0	 24	 82	 83	  1	
25-Apr-2013	sub2331	2331	  1	  1	 85	  5	  2	  6	  5	  4	  1	  1	  0	0.51551	  0	0.60000	  0	 26	 85	 86	  0	
25-Apr-2013	sub2331	2331	  1	  1	 86	  5	  2	  6	  5	  4	  0	  2	  0	0.44929	  1	0.60000	  0	 26	 67	 88	  1	
25-Apr-2013	sub2331	2331	  1	  1	 87	  5	  2	  6	  5	  4	  0	  2	  0	0.38934	  1	0.60000	  0	 26	 67	 88	  1	
25-Apr-2013	sub2331	2331	  1	  1	 88	  5	  2	  6	  5	  4	  1	  2	  1	0.41260	  1	0.60000	  0	 26	 65	 66	  1	
25-Apr-2013	sub2331	2331	  1	  1	 89	  5	  2	  1	  3	  3	  1	  1	  1	0.47300	  1	0.60000	  0	 21	 60	 61	  1	
25-Apr-2013	sub2331	2331	  1	  1	 90	  5	  2	  6	  5	  4	  1	  2	  1	0.53061	  1	0.60000	  0	 26	 65	 66	  0	
25-Apr-2013	sub2331	2331	  1	  1	 91	  5	  2	  1	  3	  3	  1	  1	  1	0.51357	  1	0.60000	  0	 21	 60	 61	  0	
25-Apr-2013	sub2331	2331	  1	  1	 92	  5	  2	  3	  4	  4	  0	  1	  0	0.45225	  1	0.60000	  0	 23	 64	 89	  1	
25-Apr-2013	sub2331	2331	  1	  1	 93	  5	  2	  5	  2	  2	  0	  1	  0	0.56867	  1	0.60000	  0	 25	 67	 88	  0	
25-Apr-2013	sub2331	2331	  1	  1	 94	  5	  2	  3	  4	  4	  1	  1	  1	0.40322	  1	0.60000	  0	 23	 62	 63	  1	
25-Apr-2013	sub2331	2331	  1	  1	 95	  5	  2	  4	  6	  4	  1	  2	  1	0.49644	  1	0.60000	  0	 24	 62	 63	  1	
25-Apr-2013	sub2331	2331	  1	  1	 96	  5	  2	  4	  6	  4	  1	  2	  1	0.43236	  1	0.60000	  0	 24	 62	 63	  1	
25-Apr-2013	sub2331	2331	  1	  1	 97	  5	  2	  5	  2	  2	  0	  2	  1	0.41639	  0	0.60000	  0	 25	 87	 68	  1	
25-Apr-2013	sub2331	2331	  1	  1	 98	  5	  2	  2	  1	  2	  1	  2	  1	0.39521	  1	0.60000	  0	 22	 60	 61	  1	
25-Apr-2013	sub2331	2331	  1	  1	 99	  5	  2	  3	  4	  4	  1	  1	  1	0.50931	  1	0.60000	  0	 23	 62	 63	  0	
25-Apr-2013	sub2331	2331	  1	  1	100	  5	  2	  3	  4	  4	  1	  1	  1	0.46569	  1	0.60000	  0	 23	 62	 63	  1	
25-Apr-2013	sub2331	2331	  1	  1	101	  5	  2	  1	  3	  3	  1	  1	  1	0.33136	  1	0.50000	  0	 21	 60	 61	  1	
25-Apr-2013	sub2331	2331	  1	  1	102	  5	  2	  2	  1	  2	  1	  1	  0	0.42537	  0	0.50000	  0	 22	 80	 81	  1	
25-Apr-2013	sub2331	2331	  1	  1	103	  5	  2	  4	  6	  4	  0	  2	  0	0.42296	  1	0.50000	  0	 24	 64	 89	  1	
25-Apr-2013	sub2331	2331	  1	  1	104	  5	  2	  3	  4	  4	  0	  2	  1	0.35741	  0	0.50000	  0	 23	 84	 69	  1	
25-Apr-2013	sub2331	2331	  1	  1	105	  5	  2	  6	  5	  4	  1	  2	  1	0.50110	  1	0.50000	  1	 26	 65	 51	  0	
25-Apr-2013	sub2331	2331	  1	  1	106	  5	  2	  4	  6	  4	  1	  2	  1	0.31502	  1	0.60000	  0	 24	 62	 63	  1	
25-Apr-2013	sub2331	2331	  1	  1	107	  5	  2	  5	  2	  2	  0	  2	  1	0.44251	  0	0.60000	  0	 25	 87	 68	  1	
25-Apr-2013	sub2331	2331	  1	  1	108	  5	  2	  4	  6	  4	  0	  2	  0	0.36111	  1	0.60000	  0	 24	 64	 89	  1	
25-Apr-2013	sub2331	2331	  1	  1	109	  5	  2	  5	  2	  2	  0	  2	  1	0.39670	  0	0.60000	  0	 25	 87	 68	  1	
25-Apr-2013	sub2331	2331	  1	  1	110	  5	  2	  1	  3	  3	  1	  2	  0	0.39453	  0	0.60000	  0	 21	 80	 81	  1	
25-Apr-2013	sub2331	2331	  1	  1	111	  5	  2	  1	  3	  3	  1	  1	  1	0.43715	  1	0.60000	  0	 21	 60	 61	  1	
25-Apr-2013	sub2331	2331	  1	  1	112	  5	  2	  1	  3	  3	  1	  1	  1	0.41028	  1	0.60000	  0	 21	 60	 61	  1	
25-Apr-2013	sub2331	2331	  1	  1	113	  5	  2	  3	  4	  4	  1	  1	  1	0.48432	  1	0.60000	  0	 23	 62	 63	  1	
25-Apr-2013	sub2331	2331	  1	  1	114	  5	  2	  5	  2	  2	  0	  1	  0	0.46559	  1	0.60000	  0	 25	 67	 88	  1	
25-Apr-2013	sub2331	2331	  1	  1	115	  5	  2	  2	  1	  2	  1	  1	  0	0.37810	  0	0.60000	  0	 22	 80	 81	  1	
25-Apr-2013	sub2331	2331	  1	  1	116	  5	  2	  2	  1	  2	  1	  2	  1	0.48843	  1	0.60000	  0	 22	 60	 61	  1	
25-Apr-2013	sub2331	2331	  1	  1	117	  5	  2	  1	  3	  3	  1	  1	  1	0.41708	  1	0.60000	  0	 21	 60	 61	  1	
25-Apr-2013	sub2331	2331	  1	  1	118	  5	  2	  2	  1	  2	  1	  2	  1	0.58502	  1	0.60000	  0	 22	 60	 61	  0	
25-Apr-2013	sub2331	2331	  1	  1	119	  5	  2	  2	  1	  2	  1	  2	  1	0.39114	  1	0.60000	  0	 22	 60	 61	  1	
25-Apr-2013	sub2331	2331	  1	  1	120	  5	  2	  2	  1	  2	  1	  2	  1	0.36660	  1	0.60000	  0	 22	 60	 61	  1	
25-Apr-2013	sub2331	2331	  1	  1	121	  5	  2	  2	  1	  2	  1	  2	  1	0.37036	  1	0.60000	  0	 22	 60	 61	  1	
25-Apr-2013	sub2331	2331	  1	  1	122	  5	  2	  3	  4	  4	  1	  1	  1	0.48882	  1	0.60000	  0	 23	 62	 63	  1	
25-Apr-2013	sub2331	2331	  1	  1	123	  5	  2	  4	  6	  4	  1	  2	  1	0.52205	  1	0.60000	  0	 24	 62	 63	  0	
25-Apr-2013	sub2331	2331	  1	  1	124	  5	  2	  1	  3	  3	  1	  1	  1	0.44308	  1	0.60000	  0	 21	 60	 61	  1	
25-Apr-2013	sub2331	2331	  1	  1	125	  5	  2	  2	  1	  2	  1	  2	  1	0.48185	  1	0.60000	  0	 22	 60	 61	  1	
25-Apr-2013	sub2331	2331	  1	  1	126	  5	  2	  4	  6	  4	  1	  2	  1	0.48825	  1	0.50000	  0	 24	 62	 63	  1	
25-Apr-2013	sub2331	2331	  1	  1	127	  5	  2	  5	  2	  2	  0	  1	  0	0.58282	  1	0.50000	  1	 25	 67	 51	  0	
25-Apr-2013	sub2331	2331	  1	  1	128	  5	  2	  3	  4	  4	  1	  1	  1	0.44514	  1	0.60000	  0	 23	 62	 63	  1	
25-Apr-2013	sub2331	2331	  1	  1	129	  5	  2	  2	  1	  2	  1	  2	  1	0.52061	  1	0.60000	  0	 22	 60	 61	  0	
25-Apr-2013	sub2331	2331	  1	  1	130	  5	  2	  6	  5	  4	  1	  2	  1	0.56870	  1	0.60000	  0	 26	 65	 66	  0	
25-Apr-2013	sub2331	2331	  1	  1	131	  5	  2	  3	  4	  4	  1	  1	  1	0.57533	  1	0.60000	  0	 23	 62	 63	  0	
25-Apr-2013	sub2331	2331	  1	  1	132	  5	  2	  5	  2	  2	  0	  2	  1	0.51438	  0	0.60000	  0	 25	 87	 68	  0	
25-Apr-2013	sub2331	2331	  1	  1	133	  5	  2	  5	  2	  2	  0	  2	  1	0.46664	  0	0.60000	  0	 25	 87	 68	  1	
25-Apr-2013	sub2331	2331	  1	  1	134	  5	  2	  5	  2	  2	  0	  2	  1	0.39288	  0	0.60000	  0	 25	 87	 68	  1	
25-Apr-2013	sub2331	2331	  1	  1	135	  5	  2	  4	  6	  4	  1	  2	  1	0.55268	  1	0.60000	  0	 24	 62	 63	  0	
25-Apr-2013	sub2331	2331	  1	  1	136	  5	  2	  5	  2	  2	  0	  2	  1	0.46383	  0	0.60000	  0	 25	 87	 68	  1	
25-Apr-2013	sub2331	2331	  1	  1	137	  5	  2	  6	  5	  4	  0	  2	  0	0.41084	  1	0.60000	  0	 26	 67	 88	  1	
25-Apr-2013	sub2331	2331	  1	  1	138	  5	  2	  2	  1	  2	  1	  2	  1	0.47737	  1	0.60000	  0	 22	 60	 61	  1	
25-Apr-2013	sub2331	2331	  1	  1	139	  5	  2	  1	  3	  3	  1	  2	  0	0.47712	  0	0.60000	  0	 21	 80	 81	  1	
25-Apr-2013	sub2331	2331	  1	  1	140	  5	  2	  3	  4	  4	  1	  1	  1	0.58957	  1	0.60000	  0	 23	 62	 63	  0	
25-Apr-2013	sub2331	2331	  1	  1	141	  5	  2	  3	  4	  4	  1	  1	  1	0.40830	  1	0.60000	  0	 23	 62	 63	  1	
25-Apr-2013	sub2331	2331	  1	  1	142	  5	  2	  1	  3	  3	  1	  2	  0	0.41601	  0	0.60000	  0	 21	 80	 81	  1	
25-Apr-2013	sub2331	2331	  1	  1	143	  5	  2	  4	  6	  4	  1	  2	  1	0.52450	  1	0.60000	  0	 24	 62	 63	  0	
25-Apr-2013	sub2331	2331	  1	  1	144	  5	  2	  6	  5	  4	  0	  2	  0	0.49886	  1	0.60000	  0	 26	 67	 88	  1	
25-Apr-2013	sub2331	2331	  1	  1	145	  5	  2	  2	  1	  2	  1	  2	  1	0.45781	  1	0.60000	  0	 22	 60	 61	  1	
25-Apr-2013	sub2331	2331	  1	  1	146	  5	  2	  6	  5	  4	  0	  2	  0	0.58175	  1	0.60000	  0	 26	 67	 88	  0	
25-Apr-2013	sub2331	2331	  1	  1	147	  5	  2	  5	  2	  2	  0	  2	  1	0.43129	  0	0.60000	  0	 25	 87	 68	  1	
25-Apr-2013	sub2331	2331	  1	  1	148	  5	  2	  4	  6	  4	  0	  2	  0	0.49548	  1	0.60000	  0	 24	 64	 89	  1	
25-Apr-2013	sub2331	2331	  1	  1	149	  5	  2	  4	  6	  4	  1	  2	  1	0.56986	  1	0.60000	  0	 24	 62	 63	  0	
25-Apr-2013	sub2331	2331	  1	  1	150	  5	  2	  4	  6	  4	  1	  2	  1	0.40143	  1	0.60000	  0	 24	 62	 63	  1	
25-Apr-2013	sub2331	2331	  1	  1	  1	  6	  1	  6	  6	  3	  1	  2	  1	0.40123	  1	0.60000	  0	 16	 35	 36	  1	
25-Apr-2013	sub2331	2331	  1	  1	  2	  6	  1	  2	  1	  1	  1	  2	  1	0.43510	  1	0.30000	  1	 12	 30	 51	  1	
25-Apr-2013	sub2331	2331	  1	  1	  3	  6	  1	  5	  4	  1	  0	  2	  1	0.37227	  0	0.90000	  0	 15	 47	 38	  1	
25-Apr-2013	sub2331	2331	  1	  1	  4	  6	  1	  1	  2	  1	  1	  2	  0	0.44230	  0	0.90000	  0	 11	 40	 41	  1	
25-Apr-2013	sub2331	2331	  1	  1	  5	  6	  1	  5	  4	  1	  1	  2	  0	0.31602	  0	0.90000	  0	 15	 45	 46	  1	
25-Apr-2013	sub2331	2331	  1	  1	  6	  6	  1	  5	  4	  1	  1	  2	  0	0.41834	  0	0.90000	  0	 15	 45	 46	  1	
25-Apr-2013	sub2331	2331	  1	  1	  7	  6	  1	  1	  2	  1	  1	  2	  0	0.43261	  0	0.90000	  0	 11	 40	 41	  1	
25-Apr-2013	sub2331	2331	  1	  1	  8	  6	  1	  1	  2	  1	  1	  2	  0	0.39271	  0	0.90000	  0	 11	 40	 41	  1	
25-Apr-2013	sub2331	2331	  1	  1	  9	  6	  1	  1	  2	  1	  1	  2	  0	0.34096	  0	0.90000	  0	 11	 40	 41	  1	
25-Apr-2013	sub2331	2331	  1	  1	 10	  6	  1	  3	  5	  1	  0	  2	  1	0.35920	  0	0.90000	  0	 13	 44	 39	  1	
25-Apr-2013	sub2331	2331	  1	  1	 11	  6	  1	  6	  6	  3	  1	  2	  1	0.49949	  1	0.90000	  0	 16	 35	 36	  1	
25-Apr-2013	sub2331	2331	  1	  1	 12	  6	  1	  5	  4	  1	  1	  2	  0	0.44335	  0	0.90000	  0	 15	 45	 46	  1	
25-Apr-2013	sub2331	2331	  1	  1	 13	  6	  1	  1	  2	  1	  1	  1	  1	0.36959	  1	0.90000	  0	 11	 30	 31	  1	
25-Apr-2013	sub2331	2331	  1	  1	 14	  6	  1	  2	  1	  1	  1	  1	  0	0.46886	  0	0.90000	  0	 12	 40	 41	  1	
25-Apr-2013	sub2331	2331	  1	  1	 15	  6	  1	  1	  2	  1	  1	  1	  1	0.42972	  1	0.90000	  0	 11	 30	 31	  1	
25-Apr-2013	sub2331	2331	  1	  1	 16	  6	  1	  1	  2	  1	  1	  1	  1	0.38527	  1	0.80000	  0	 11	 30	 31	  1	
25-Apr-2013	sub2331	2331	  1	  1	 17	  6	  1	  1	  2	  1	  1	  1	  1	0.50127	  1	0.80000	  0	 11	 30	 31	  0	
25-Apr-2013	sub2331	2331	  1	  1	 18	  6	  1	  4	  3	  4	  0	  2	  0	0.61418	  1	0.70000	  0	 14	 34	 49	  0	
25-Apr-2013	sub2331	2331	  1	  1	 19	  6	  1	  1	  2	  1	  1	  2	  0	0.43892	  0	0.70000	  0	 11	 40	 41	  1	
25-Apr-2013	sub2331	2331	  1	  1	 20	  6	  1	  1	  2	  1	  1	  1	  1	0.39556	  1	0.70000	  0	 11	 30	 31	  1	
25-Apr-2013	sub2331	2331	  1	  1	 21	  6	  1	  4	  3	  4	  1	  2	  1	0.47154	  1	0.60000	  0	 14	 32	 33	  1	
25-Apr-2013	sub2331	2331	  1	  1	 22	  6	  1	  2	  1	  1	  1	  2	  1	0.49954	  1	0.60000	  0	 12	 30	 31	  1	
25-Apr-2013	sub2331	2331	  1	  1	 23	  6	  1	  6	  6	  3	  0	  2	  0	0.46999	  1	0.60000	  0	 16	 37	 48	  1	
25-Apr-2013	sub2331	2331	  1	  1	 24	  6	  1	  6	  6	  3	  0	  2	  0	0.38141	  1	0.60000	  0	 16	 37	 48	  1	
25-Apr-2013	sub2331	2331	  1	  1	 25	  6	  1	  4	  3	  4	  0	  2	  0	0.48328	  1	0.60000	  0	 14	 34	 49	  1	
25-Apr-2013	sub2331	2331	  1	  1	 26	  6	  1	  5	  4	  1	  0	  2	  1	0.59947	  0	0.50000	  1	 15	 47	 51	  0	
25-Apr-2013	sub2331	2331	  1	  1	 27	  6	  1	  3	  5	  1	  1	  2	  0	0.59105	  0	0.90000	  0	 13	 42	 43	  0	
25-Apr-2013	sub2331	2331	  1	  1	 28	  6	  1	  3	  5	  1	  1	  2	  0	0.39993	  0	0.90000	  0	 13	 42	 43	  1	
25-Apr-2013	sub2331	2331	  1	  1	 29	  6	  1	  1	  2	  1	  1	  1	  1	0.48083	  1	0.90000	  0	 11	 30	 31	  1	
25-Apr-2013	sub2331	2331	  1	  1	 30	  6	  1	  5	  4	  1	  0	  2	  1	0.48395	  0	0.80000	  0	 15	 47	 38	  1	
25-Apr-2013	sub2331	2331	  1	  1	 31	  6	  1	  6	  6	  3	  0	  2	  0	0.48405	  1	0.80000	  0	 16	 37	 48	  1	
25-Apr-2013	sub2331	2331	  1	  1	 32	  6	  1	  4	  3	  4	  1	  2	  1	0.50725	  1	0.80000	  0	 14	 32	 33	  0	
25-Apr-2013	sub2331	2331	  1	  1	 33	  6	  1	  2	  1	  1	  1	  2	  1	0.71119	  1	0.80000	  0	 12	 30	 31	  0	
25-Apr-2013	sub2331	2331	  1	  1	 34	  6	  1	  5	  4	  1	  1	  1	  1	0.62769	  1	0.80000	  0	 15	 35	 36	  0	
25-Apr-2013	sub2331	2331	  1	  1	 35	  6	  1	  4	  3	  4	  1	  2	  1	0.47610	  1	0.70000	  0	 14	 32	 33	  1	
25-Apr-2013	sub2331	2331	  1	  1	 36	  6	  1	  6	  6	  3	  0	  1	  1	0.49144	  0	0.70000	  0	 16	 47	 38	  1	
25-Apr-2013	sub2331	2331	  1	  1	 37	  6	  1	  3	  5	  1	  1	  2	  0	0.53977	  0	0.70000	  0	 13	 42	 43	  0	
25-Apr-2013	sub2331	2331	  1	  1	 38	  6	  1	  2	  1	  1	  1	  2	  1	0.55880	  1	0.70000	  0	 12	 30	 31	  0	
25-Apr-2013	sub2331	2331	  1	  1	 39	  6	  1	  3	  5	  1	  1	  1	  1	0.56416	  1	0.70000	  0	 13	 32	 33	  0	
25-Apr-2013	sub2331	2331	  1	  1	 40	  6	  1	  4	  3	  4	  1	  2	  1	0.50213	  1	0.70000	  0	 14	 32	 33	  0	
25-Apr-2013	sub2331	2331	  1	  1	 41	  6	  1	  2	  1	  1	  1	  2	  1	0.51549	  1	0.60000	  0	 12	 30	 31	  0	
25-Apr-2013	sub2331	2331	  1	  1	 42	  6	  1	  4	  3	  4	  1	  2	  1	0.56730	  1	0.60000	  0	 14	 32	 33	  0	
25-Apr-2013	sub2331	2331	  1	  1	 43	  6	  1	  2	  1	  1	  1	  2	  1	0.49698	  1	0.60000	  0	 12	 30	 31	  1	
25-Apr-2013	sub2331	2331	  1	  1	 44	  6	  1	  6	  6	  3	  0	  2	  0	0.56046	  1	0.60000	  0	 16	 37	 48	  0	
25-Apr-2013	sub2331	2331	  1	  1	 45	  6	  1	  3	  5	  1	  1	  1	  1	0.57877	  1	0.60000	  0	 13	 32	 33	  0	
25-Apr-2013	sub2331	2331	  1	  1	 46	  6	  1	  5	  4	  1	  1	  2	  0	0.49663	  0	0.60000	  0	 15	 45	 46	  1	
25-Apr-2013	sub2331	2331	  1	  1	 47	  6	  1	  3	  5	  1	  1	  1	  1	0.52590	  1	0.60000	  0	 13	 32	 33	  0	
25-Apr-2013	sub2331	2331	  1	  1	 48	  6	  1	  2	  1	  1	  1	  1	  0	0.47781	  0	0.60000	  0	 12	 40	 41	  1	
25-Apr-2013	sub2331	2331	  1	  1	 49	  6	  1	  4	  3	  4	  1	  2	  1	0.47544	  1	0.60000	  0	 14	 32	 33	  1	
25-Apr-2013	sub2331	2331	  1	  1	 50	  6	  1	  5	  4	  1	  1	  2	  0	0.52009	  0	0.60000	  0	 15	 45	 46	  0	
25-Apr-2013	sub2331	2331	  1	  1	 51	  6	  1	  3	  5	  1	  0	  2	  1	0.46954	  0	0.50000	  0	 13	 44	 39	  1	
25-Apr-2013	sub2331	2331	  1	  1	 52	  6	  1	  5	  4	  1	  0	  2	  1	0.46928	  0	0.50000	  0	 15	 47	 38	  1	
25-Apr-2013	sub2331	2331	  1	  1	 53	  6	  1	  4	  3	  4	  1	  2	  1	0.52627	  1	0.50000	  1	 14	 32	 51	  0	
25-Apr-2013	sub2331	2331	  1	  1	 54	  6	  1	  2	  1	  1	  1	  2	  1	0.49376	  1	0.70000	  0	 12	 30	 31	  1	
25-Apr-2013	sub2331	2331	  1	  1	 55	  6	  1	  2	  1	  1	  1	  2	  1	0.44154	  1	0.70000	  0	 12	 30	 31	  1	
25-Apr-2013	sub2331	2331	  1	  1	 56	  6	  1	  4	  3	  4	  1	  2	  1	0.50398	  1	0.70000	  0	 14	 32	 33	  0	
25-Apr-2013	sub2331	2331	  1	  1	 57	  6	  1	  6	  6	  3	  0	  2	  0	0.44641	  1	0.70000	  0	 16	 37	 48	  1	
25-Apr-2013	sub2331	2331	  1	  1	 58	  6	  1	  6	  6	  3	  1	  2	  1	0.30666	  1	0.70000	  0	 16	 35	 36	  1	
25-Apr-2013	sub2331	2331	  1	  1	 59	  6	  1	  6	  6	  3	  1	  2	  1	0.44281	  1	0.70000	  0	 16	 35	 36	  1	
25-Apr-2013	sub2331	2331	  1	  1	 60	  6	  1	  2	  1	  1	  1	  2	  1	0.50158	  1	0.70000	  0	 12	 30	 31	  0	
25-Apr-2013	sub2331	2331	  1	  1	 61	  6	  1	  5	  4	  1	  1	  2	  0	0.35233	  0	0.60000	  0	 15	 45	 46	  1	
25-Apr-2013	sub2331	2331	  1	  1	 62	  6	  1	  6	  6	  3	  1	  2	  1	0.53998	  1	0.60000	  0	 16	 35	 36	  0	
25-Apr-2013	sub2331	2331	  1	  1	 63	  6	  1	  3	  5	  1	  0	  1	  0	0.47492	  1	0.60000	  0	 13	 34	 49	  1	
25-Apr-2013	sub2331	2331	  1	  1	 64	  6	  1	  4	  3	  4	  1	  2	  1	0.48676	  1	0.60000	  0	 14	 32	 33	  1	
25-Apr-2013	sub2331	2331	  1	  1	 65	  6	  1	  3	  5	  1	  1	  1	  1	0.62394	  1	0.60000	  1	 13	 32	 51	  0	
25-Apr-2013	sub2331	2331	  1	  1	 66	  6	  1	  2	  1	  1	  1	  2	  1	0.43365	  1	0.80000	  0	 12	 30	 31	  1	
25-Apr-2013	sub2331	2331	  1	  1	 67	  6	  1	  6	  6	  3	  1	  2	  1	0.39667	  1	0.80000	  0	 16	 35	 36	  1	
25-Apr-2013	sub2331	2331	  1	  1	 68	  6	  1	  5	  4	  1	  0	  2	  1	0.52911	  0	0.70000	  0	 15	 47	 38	  0	
25-Apr-2013	sub2331	2331	  1	  1	 69	  6	  1	  1	  2	  1	  1	  1	  1	0.53151	  1	0.70000	  0	 11	 30	 31	  0	
25-Apr-2013	sub2331	2331	  1	  1	 70	  6	  1	  3	  5	  1	  1	  1	  1	0.64264	  1	0.70000	  0	 13	 32	 33	  0	
25-Apr-2013	sub2331	2331	  1	  1	 71	  6	  1	  2	  1	  1	  1	  2	  1	0.48415	  1	0.70000	  0	 12	 30	 31	  1	
25-Apr-2013	sub2331	2331	  1	  1	 72	  6	  1	  3	  5	  1	  1	  1	  1	0.53593	  1	0.70000	  0	 13	 32	 33	  0	
25-Apr-2013	sub2331	2331	  1	  1	 73	  6	  1	  4	  3	  4	  1	  2	  1	0.46419	  1	0.70000	  0	 14	 32	 33	  1	
25-Apr-2013	sub2331	2331	  1	  1	 74	  6	  1	  3	  5	  1	  1	  2	  0	0.45406	  0	0.70000	  0	 13	 42	 43	  1	
25-Apr-2013	sub2331	2331	  1	  1	 75	  6	  1	  6	  6	  3	  0	  1	  1	0.49084	  0	0.70000	  0	 16	 47	 38	  1	
25-Apr-2013	sub2331	2331	  1	  1	 76	  6	  2	  3	  5	  1	  0	  2	  1	0.52110	  0	0.70000	  0	 23	 84	 69	  0	
25-Apr-2013	sub2331	2331	  1	  1	 77	  6	  2	  1	  2	  1	  1	  1	  1	0.48560	  1	0.70000	  0	 21	 60	 61	  1	
25-Apr-2013	sub2331	2331	  1	  1	 78	  6	  2	  4	  3	  4	  0	  2	  0	0.44195	  1	0.70000	  0	 24	 64	 89	  1	
25-Apr-2013	sub2331	2331	  1	  1	 79	  6	  2	  1	  2	  1	  1	  1	  1	0.53710	  1	0.70000	  0	 21	 60	 61	  0	
25-Apr-2013	sub2331	2331	  1	  1	 80	  6	  2	  3	  5	  1	  1	  1	  1	0.58886	  1	0.70000	  0	 23	 62	 63	  0	
25-Apr-2013	sub2331	2331	  1	  1	 81	  6	  2	  1	  2	  1	  1	  1	  1	0.38431	  1	0.60000	  0	 21	 60	 61	  1	
25-Apr-2013	sub2331	2331	  1	  1	 82	  6	  2	  1	  2	  1	  1	  1	  1	0.37232	  1	0.60000	  0	 21	 60	 61	  1	
25-Apr-2013	sub2331	2331	  1	  1	 83	  6	  2	  1	  2	  1	  1	  1	  1	0.40752	  1	0.60000	  0	 21	 60	 61	  1	
25-Apr-2013	sub2331	2331	  1	  1	 84	  6	  2	  3	  5	  1	  1	  2	  0	0.43062	  0	0.60000	  0	 23	 82	 83	  1	
25-Apr-2013	sub2331	2331	  1	  1	 85	  6	  2	  4	  3	  4	  1	  2	  1	0.50171	  1	0.60000	  0	 24	 62	 63	  0	
25-Apr-2013	sub2331	2331	  1	  1	 86	  6	  2	  1	  2	  1	  1	  1	  1	0.45058	  1	0.60000	  0	 21	 60	 61	  1	
25-Apr-2013	sub2331	2331	  1	  1	 87	  6	  2	  4	  3	  4	  1	  2	  1	0.62658	  1	0.60000	  1	 24	 62	 51	  0	
25-Apr-2013	sub2331	2331	  1	  1	 88	  6	  2	  3	  5	  1	  1	  1	  1	0.49328	  1	0.70000	  0	 23	 62	 63	  1	
25-Apr-2013	sub2331	2331	  1	  1	 89	  6	  2	  2	  1	  1	  1	  2	  1	0.50145	  1	0.70000	  0	 22	 60	 61	  0	
25-Apr-2013	sub2331	2331	  1	  1	 90	  6	  2	  6	  6	  3	  1	  2	  1	0.50905	  1	0.70000	  0	 26	 65	 66	  0	
25-Apr-2013	sub2331	2331	  1	  1	 91	  6	  2	  4	  3	  4	  1	  2	  1	0.51169	  1	0.70000	  0	 24	 62	 63	  0	
25-Apr-2013	sub2331	2331	  1	  1	 92	  6	  2	  6	  6	  3	  1	  2	  1	0.44111	  1	0.70000	  0	 26	 65	 66	  1	
25-Apr-2013	sub2331	2331	  1	  1	 93	  6	  2	  4	  3	  4	  1	  2	  1	0.43220	  1	0.70000	  0	 24	 62	 63	  1	
25-Apr-2013	sub2331	2331	  1	  1	 94	  6	  2	  2	  1	  1	  1	  2	  1	0.55522	  1	0.70000	  0	 22	 60	 61	  0	
25-Apr-2013	sub2331	2331	  1	  1	 95	  6	  2	  5	  4	  1	  0	  1	  0	0.61112	  1	0.70000	  0	 25	 67	 88	  0	
25-Apr-2013	sub2331	2331	  1	  1	 96	  6	  2	  4	  3	  4	  0	  2	  0	0.52698	  1	0.70000	  0	 24	 64	 89	  0	
25-Apr-2013	sub2331	2331	  1	  1	 97	  6	  2	  3	  5	  1	  1	  1	  1	0.53432	  1	0.70000	  0	 23	 62	 63	  0	
25-Apr-2013	sub2331	2331	  1	  1	 98	  6	  2	  3	  5	  1	  1	  1	  1	0.46844	  1	0.70000	  0	 23	 62	 63	  1	
25-Apr-2013	sub2331	2331	  1	  1	 99	  6	  2	  5	  4	  1	  0	  1	  0	0.62170	  1	0.70000	  0	 25	 67	 88	  0	
25-Apr-2013	sub2331	2331	  1	  1	100	  6	  2	  4	  3	  4	  1	  2	  1	0.42991	  1	0.70000	  0	 24	 62	 63	  1	
25-Apr-2013	sub2331	2331	  1	  1	101	  6	  2	  5	  4	  1	  0	  2	  1	0.49926	  0	0.60000	  0	 25	 87	 68	  1	
25-Apr-2013	sub2331	2331	  1	  1	102	  6	  2	  5	  4	  1	  0	  2	  1	0.41152	  0	0.60000	  0	 25	 87	 68	  1	
25-Apr-2013	sub2331	2331	  1	  1	103	  6	  2	  5	  4	  1	  0	  2	  1	0.39795	  0	0.60000	  0	 25	 87	 68	  1	
25-Apr-2013	sub2331	2331	  1	  1	104	  6	  2	  1	  2	  1	  1	  2	  0	0.43335	  0	0.60000	  0	 21	 80	 81	  1	
25-Apr-2013	sub2331	2331	  1	  1	105	  6	  2	  3	  5	  1	  1	  1	  1	0.52976	  1	0.60000	  0	 23	 62	 63	  0	
25-Apr-2013	sub2331	2331	  1	  1	106	  6	  2	  5	  4	  1	  0	  2	  1	0.50514	  0	0.60000	  0	 25	 87	 68	  0	
25-Apr-2013	sub2331	2331	  1	  1	107	  6	  2	  1	  2	  1	  1	  1	  1	0.46256	  1	0.60000	  0	 21	 60	 61	  1	
25-Apr-2013	sub2331	2331	  1	  1	108	  6	  2	  3	  5	  1	  1	  1	  1	0.49649	  1	0.60000	  0	 23	 62	 63	  1	
25-Apr-2013	sub2331	2331	  1	  1	109	  6	  2	  4	  3	  4	  1	  1	  0	0.41075	  0	0.60000	  0	 24	 82	 83	  1	
25-Apr-2013	sub2331	2331	  1	  1	110	  6	  2	  2	  1	  1	  1	  2	  1	0.51253	  1	0.60000	  0	 22	 60	 61	  0	
25-Apr-2013	sub2331	2331	  1	  1	111	  6	  2	  6	  6	  3	  0	  2	  0	0.46316	  1	0.60000	  0	 26	 67	 88	  1	
25-Apr-2013	sub2331	2331	  1	  1	112	  6	  2	  6	  6	  3	  0	  2	  0	0.43935	  1	0.60000	  0	 26	 67	 88	  1	
25-Apr-2013	sub2331	2331	  1	  1	113	  6	  2	  2	  1	  1	  1	  2	  1	0.46528	  1	0.60000	  0	 22	 60	 61	  1	
25-Apr-2013	sub2331	2331	  1	  1	114	  6	  2	  4	  3	  4	  1	  2	  1	0.49776	  1	0.60000	  0	 24	 62	 63	  1	
25-Apr-2013	sub2331	2331	  1	  1	115	  6	  2	  5	  4	  1	  0	  2	  1	0.43116	  0	0.60000	  0	 25	 87	 68	  1	
25-Apr-2013	sub2331	2331	  1	  1	116	  6	  2	  1	  2	  1	  1	  1	  1	0.46814	  1	0.60000	  0	 21	 60	 61	  1	
25-Apr-2013	sub2331	2331	  1	  1	117	  6	  2	  1	  2	  1	  1	  1	  1	0.41095	  1	0.60000	  0	 21	 60	 61	  1	
25-Apr-2013	sub2331	2331	  1	  1	118	  6	  2	  6	  6	  3	  1	  1	  0	0.51697	  0	0.60000	  0	 26	 85	 86	  0	
25-Apr-2013	sub2331	2331	  1	  1	119	  6	  2	  4	  3	  4	  0	  2	  0	0.51938	  1	0.60000	  0	 24	 64	 89	  0	
25-Apr-2013	sub2331	2331	  1	  1	120	  6	  2	  2	  1	  1	  1	  2	  1	0.53303	  1	0.60000	  0	 22	 60	 61	  0	
25-Apr-2013	sub2331	2331	  1	  1	121	  6	  2	  1	  2	  1	  1	  1	  1	0.65285	  1	0.60000	  1	 21	 60	 51	  0	
25-Apr-2013	sub2331	2331	  1	  1	122	  6	  2	  5	  4	  1	  0	  1	  0	0.60689	  1	0.60000	  1	 25	 67	 51	  0	
25-Apr-2013	sub2331	2331	  1	  1	123	  6	  2	  6	  6	  3	  0	  2	  0	0.59899	  1	0.70000	  0	 26	 67	 88	  0	
25-Apr-2013	sub2331	2331	  1	  1	124	  6	  2	  2	  1	  1	  1	  2	  1	0.48000	  1	0.70000	  0	 22	 60	 61	  1	
25-Apr-2013	sub2331	2331	  1	  1	125	  6	  2	  5	  4	  1	  0	  2	  1	0.46140	  0	0.70000	  0	 25	 87	 68	  1	
25-Apr-2013	sub2331	2331	  1	  1	126	  6	  2	  1	  2	  1	  1	  1	  1	0.54372	  1	0.70000	  0	 21	 60	 61	  0	
25-Apr-2013	sub2331	2331	  1	  1	127	  6	  2	  5	  4	  1	  0	  2	  1	0.52342	  0	0.70000	  0	 25	 87	 68	  0	
25-Apr-2013	sub2331	2331	  1	  1	128	  6	  2	  5	  4	  1	  0	  2	  1	0.47808	  0	0.70000	  0	 25	 87	 68	  1	
25-Apr-2013	sub2331	2331	  1	  1	129	  6	  2	  1	  2	  1	  1	  1	  1	0.51022	  1	0.70000	  0	 21	 60	 61	  0	
25-Apr-2013	sub2331	2331	  1	  1	130	  6	  2	  2	  1	  1	  1	  2	  1	0.47229	  1	0.70000	  0	 22	 60	 61	  1	
25-Apr-2013	sub2331	2331	  1	  1	131	  6	  2	  3	  5	  1	  0	  1	  0	0.48708	  1	0.70000	  0	 23	 64	 89	  1	
25-Apr-2013	sub2331	2331	  1	  1	132	  6	  2	  3	  5	  1	  1	  2	  0	0.44078	  0	0.70000	  0	 23	 82	 83	  1	
25-Apr-2013	sub2331	2331	  1	  1	133	  6	  2	  6	  6	  3	  0	  2	  0	0.48367	  1	0.70000	  0	 26	 67	 88	  1	
25-Apr-2013	sub2331	2331	  1	  1	134	  6	  2	  4	  3	  4	  1	  2	  1	0.41826	  1	0.70000	  0	 24	 62	 63	  1	
25-Apr-2013	sub2331	2331	  1	  1	135	  6	  2	  6	  6	  3	  1	  1	  0	0.50871	  0	0.70000	  0	 26	 85	 86	  0	
25-Apr-2013	sub2331	2331	  1	  1	136	  6	  2	  4	  3	  4	  1	  2	  1	0.49833	  1	0.70000	  0	 24	 62	 63	  1	
25-Apr-2013	sub2331	2331	  1	  1	137	  6	  2	  3	  5	  1	  1	  1	  1	0.51358	  1	0.70000	  0	 23	 62	 63	  0	
25-Apr-2013	sub2331	2331	  1	  1	138	  6	  2	  2	  1	  1	  1	  2	  1	0.48602	  1	0.70000	  0	 22	 60	 61	  1	
25-Apr-2013	sub2331	2331	  1	  1	139	  6	  2	  2	  1	  1	  1	  2	  1	0.37948	  1	0.70000	  0	 22	 60	 61	  1	
25-Apr-2013	sub2331	2331	  1	  1	140	  6	  2	  3	  5	  1	  1	  1	  1	0.50491	  1	0.70000	  0	 23	 62	 63	  0	
25-Apr-2013	sub2331	2331	  1	  1	141	  6	  2	  5	  4	  1	  0	  2	  1	0.58855	  0	0.60000	  0	 25	 87	 68	  0	
25-Apr-2013	sub2331	2331	  1	  1	142	  6	  2	  2	  1	  1	  1	  2	  1	0.49226	  1	0.60000	  0	 22	 60	 61	  1	
25-Apr-2013	sub2331	2331	  1	  1	143	  6	  2	  6	  6	  3	  1	  2	  1	0.44055	  1	0.60000	  0	 26	 65	 66	  1	
25-Apr-2013	sub2331	2331	  1	  1	144	  6	  2	  6	  6	  3	  0	  2	  0	0.41747	  1	0.60000	  0	 26	 67	 88	  1	
25-Apr-2013	sub2331	2331	  1	  1	145	  6	  2	  6	  6	  3	  1	  2	  1	0.45769	  1	0.60000	  0	 26	 65	 66	  1	
25-Apr-2013	sub2331	2331	  1	  1	146	  6	  2	  6	  6	  3	  0	  2	  0	0.43385	  1	0.60000	  0	 26	 67	 88	  1	
25-Apr-2013	sub2331	2331	  1	  1	147	  6	  2	  2	  1	  1	  1	  2	  1	0.41781	  1	0.60000	  0	 22	 60	 61	  1	
25-Apr-2013	sub2331	2331	  1	  1	148	  6	  2	  4	  3	  4	  1	  2	  1	0.52347	  1	0.60000	  0	 24	 62	 63	  0	
25-Apr-2013	sub2331	2331	  1	  1	149	  6	  2	  5	  4	  1	  0	  2	  1	0.42608	  0	0.60000	  0	 25	 87	 68	  1	
25-Apr-2013	sub2331	2331	  1	  1	150	  6	  2	  2	  1	  1	  1	  2	  1	0.47463	  1	0.60000	  0	 22	 60	 61	  1	
