Date 	 Name 	 ID 	 Gender 	 Appearance 	 Trial 	 Block 	 Bin 	 Condition 	 Category 	 Number 	 Valid 	 Keypress 	 Correct 	 RT 	 Realcorrect 	 Deadline 	 Timeout 	 Stimtrigger 	 Resptrigger 	 Fedtrigger 	 WithinTime 	 
05-May-2013	sub2332	2332	  1	  1	  1	  1	  1	  4	  2	  6	  1	  1	  0	0.88813	  0	0.60000	  1	 14	 42	 51	  0	
05-May-2013	sub2332	2332	  1	  1	  2	  1	  1	  6	  3	  1	  1	  1	  0	0.44853	  0	0.90000	  0	 16	 45	 46	  1	
05-May-2013	sub2332	2332	  1	  1	  3	  1	  1	  1	  4	  5	  1	  1	  1	0.37151	  1	0.90000	  0	 11	 30	 31	  1	
05-May-2013	sub2332	2332	  1	  1	  4	  1	  1	  6	  3	  1	  0	  1	  1	0.52689	  0	0.90000	  0	 16	 47	 38	  0	
05-May-2013	sub2332	2332	  1	  1	  5	  1	  1	  6	  3	  1	  0	  1	  1	0.41135	  0	0.90000	  0	 16	 47	 38	  1	
05-May-2013	sub2332	2332	  1	  1	  6	  1	  1	  5	  1	  6	  1	  2	  0	0.65727	  0	0.90000	  0	 15	 45	 46	  0	
05-May-2013	sub2332	2332	  1	  1	  7	  1	  1	  4	  2	  6	  1	  1	  0	0.51747	  0	0.90000	  0	 14	 42	 43	  0	
05-May-2013	sub2332	2332	  1	  1	  8	  1	  1	  6	  3	  1	  0	  1	  1	0.48726	  0	0.90000	  0	 16	 47	 38	  1	
05-May-2013	sub2332	2332	  1	  1	  9	  1	  1	  3	  5	  5	  1	  1	  1	0.59521	  1	0.90000	  0	 13	 32	 33	  0	
05-May-2013	sub2332	2332	  1	  1	 10	  1	  1	  3	  5	  5	  1	  1	  1	0.49597	  1	0.90000	  0	 13	 32	 33	  1	
05-May-2013	sub2332	2332	  1	  1	 11	  1	  1	  2	  6	  3	  1	  2	  1	0.49632	  1	0.90000	  0	 12	 30	 31	  1	
05-May-2013	sub2332	2332	  1	  1	 12	  1	  1	  4	  2	  6	  1	  2	  1	0.65537	  1	0.90000	  0	 14	 32	 33	  0	
05-May-2013	sub2332	2332	  1	  1	 13	  1	  1	  3	  5	  5	  1	  2	  0	0.64340	  0	0.90000	  0	 13	 42	 43	  0	
05-May-2013	sub2332	2332	  1	  1	 14	  1	  1	  6	  3	  1	  1	  2	  1	0.74374	  1	0.90000	  0	 16	 35	 36	  0	
05-May-2013	sub2332	2332	  1	  1	 15	  1	  1	  5	  1	  6	  1	  2	  0	0.65472	  0	0.90000	  0	 15	 45	 46	  0	
05-May-2013	sub2332	2332	  1	  1	 16	  1	  1	  5	  1	  6	  0	  2	  1	0.55514	  0	0.80000	  0	 15	 47	 38	  0	
05-May-2013	sub2332	2332	  1	  1	 17	  1	  1	  5	  1	  6	  1	  2	  0	0.45636	  0	0.80000	  0	 15	 45	 46	  1	
05-May-2013	sub2332	2332	  1	  1	 18	  1	  1	  5	  1	  6	  0	  1	  0	0.39115	  1	0.70000	  0	 15	 37	 48	  1	
05-May-2013	sub2332	2332	  1	  1	 19	  1	  1	  2	  6	  3	  1	  1	  0	0.62763	  0	0.70000	  0	 12	 40	 41	  0	
05-May-2013	sub2332	2332	  1	  1	 20	  1	  1	  6	  3	  1	  1	  1	  0	0.53234	  0	0.70000	  0	 16	 45	 46	  0	
05-May-2013	sub2332	2332	  1	  1	 21	  1	  1	  4	  2	  6	  1	  1	  0	0.65202	  0	0.60000	  1	 14	 42	 51	  0	
05-May-2013	sub2332	2332	  1	  1	 22	  1	  1	  1	  4	  5	  1	  2	  0	0.48052	  0	0.90000	  0	 11	 40	 41	  1	
05-May-2013	sub2332	2332	  1	  1	 23	  1	  1	  1	  4	  5	  1	  1	  1	0.54578	  1	0.90000	  0	 11	 30	 31	  0	
05-May-2013	sub2332	2332	  1	  1	 24	  1	  1	  4	  2	  6	  0	  2	  0	0.58771	  1	0.90000	  0	 14	 34	 49	  0	
05-May-2013	sub2332	2332	  1	  1	 25	  1	  1	  2	  6	  3	  1	  2	  1	0.72084	  1	0.90000	  0	 12	 30	 31	  0	
05-May-2013	sub2332	2332	  1	  1	 26	  1	  1	  4	  2	  6	  1	  1	  0	0.76049	  0	0.90000	  0	 14	 42	 43	  0	
05-May-2013	sub2332	2332	  1	  1	 27	  1	  1	  6	  3	  1	  0	  1	  1	0.67206	  0	0.90000	  0	 16	 47	 38	  0	
05-May-2013	sub2332	2332	  1	  1	 28	  1	  1	  4	  2	  6	  1	  1	  0	0.45649	  0	0.90000	  0	 14	 42	 43	  1	
05-May-2013	sub2332	2332	  1	  1	 29	  1	  1	  2	  6	  3	  1	  2	  1	0.59906	  1	0.90000	  0	 12	 30	 31	  0	
05-May-2013	sub2332	2332	  1	  1	 30	  1	  1	  5	  1	  6	  1	  2	  0	0.81587	  0	0.80000	  1	 15	 45	 51	  0	
05-May-2013	sub2332	2332	  1	  1	 31	  1	  1	  6	  3	  1	  1	  2	  1	0.56336	  1	0.90000	  0	 16	 35	 36	  0	
05-May-2013	sub2332	2332	  1	  1	 32	  1	  1	  6	  3	  1	  0	  2	  0	0.46907	  1	0.90000	  0	 16	 37	 48	  1	
05-May-2013	sub2332	2332	  1	  1	 33	  1	  1	  1	  4	  5	  1	  2	  0	0.65247	  0	0.90000	  0	 11	 40	 41	  0	
05-May-2013	sub2332	2332	  1	  1	 34	  1	  1	  2	  6	  3	  1	  2	  1	0.63123	  1	0.90000	  0	 12	 30	 31	  0	
05-May-2013	sub2332	2332	  1	  1	 35	  1	  1	  4	  2	  6	  1	  2	  1	0.66927	  1	0.90000	  0	 14	 32	 33	  0	
05-May-2013	sub2332	2332	  1	  1	 36	  1	  1	  6	  3	  1	  1	  2	  1	0.58805	  1	0.90000	  0	 16	 35	 36	  0	
05-May-2013	sub2332	2332	  1	  1	 37	  1	  1	  5	  1	  6	  0	  2	  1	0.71274	  0	0.90000	  0	 15	 47	 38	  0	
05-May-2013	sub2332	2332	  1	  1	 38	  1	  1	  3	  5	  5	  0	  1	  0	0.69669	  1	0.90000	  0	 13	 34	 49	  0	
05-May-2013	sub2332	2332	  1	  1	 39	  1	  1	  1	  4	  5	  1	  2	  0	0.50924	  0	0.90000	  0	 11	 40	 41	  0	
05-May-2013	sub2332	2332	  1	  1	 40	  1	  1	  2	  6	  3	  1	  2	  1	0.39412	  1	0.90000	  0	 12	 30	 31	  1	
05-May-2013	sub2332	2332	  1	  1	 41	  1	  1	  6	  3	  1	  0	  2	  0	0.62450	  1	0.90000	  0	 16	 37	 48	  0	
05-May-2013	sub2332	2332	  1	  1	 42	  1	  1	  1	  4	  5	  1	  2	  0	0.59360	  0	0.90000	  0	 11	 40	 41	  0	
05-May-2013	sub2332	2332	  1	  1	 43	  1	  1	  5	  1	  6	  1	  2	  0	0.58129	  0	0.90000	  0	 15	 45	 46	  0	
05-May-2013	sub2332	2332	  1	  1	 44	  1	  1	  6	  3	  1	  0	  2	  0	0.40741	  1	0.80000	  0	 16	 37	 48	  1	
05-May-2013	sub2332	2332	  1	  1	 45	  1	  1	  5	  1	  6	  1	  1	  1	0.63960	  1	0.80000	  0	 15	 35	 36	  0	
05-May-2013	sub2332	2332	  1	  1	 46	  1	  1	  1	  4	  5	  1	  1	  1	0.40782	  1	0.80000	  0	 11	 30	 31	  1	
05-May-2013	sub2332	2332	  1	  1	 47	  1	  1	  5	  1	  6	  1	  1	  1	0.37506	  1	0.80000	  0	 15	 35	 36	  1	
05-May-2013	sub2332	2332	  1	  1	 48	  1	  1	  2	  6	  3	  1	  1	  0	0.64059	  0	0.80000	  0	 12	 40	 41	  0	
05-May-2013	sub2332	2332	  1	  1	 49	  1	  1	  3	  5	  5	  0	  2	  1	0.62732	  0	0.80000	  0	 13	 44	 39	  0	
05-May-2013	sub2332	2332	  1	  1	 50	  1	  1	  2	  6	  3	  1	  1	  0	0.56931	  0	0.80000	  0	 12	 40	 41	  0	
05-May-2013	sub2332	2332	  1	  1	 51	  1	  1	  2	  6	  3	  1	  1	  0	0.45745	  0	0.70000	  0	 12	 40	 41	  1	
05-May-2013	sub2332	2332	  1	  1	 52	  1	  1	  5	  1	  6	  0	  1	  0	0.46565	  1	0.70000	  0	 15	 37	 48	  1	
05-May-2013	sub2332	2332	  1	  1	 53	  1	  1	  1	  4	  5	  1	  2	  0	0.46448	  0	0.70000	  0	 11	 40	 41	  1	
05-May-2013	sub2332	2332	  1	  1	 54	  1	  1	  1	  4	  5	  1	  2	  0	0.42306	  0	0.70000	  0	 11	 40	 41	  1	
05-May-2013	sub2332	2332	  1	  1	 55	  1	  1	  3	  5	  5	  1	  1	  1	0.53398	  1	0.70000	  0	 13	 32	 33	  0	
05-May-2013	sub2332	2332	  1	  1	 56	  1	  1	  1	  4	  5	  1	  1	  1	0.33584	  1	0.70000	  0	 11	 30	 31	  1	
05-May-2013	sub2332	2332	  1	  1	 57	  1	  1	  4	  2	  6	  0	  1	  1	0.53032	  0	0.70000	  0	 14	 44	 39	  0	
05-May-2013	sub2332	2332	  1	  1	 58	  1	  1	  3	  5	  5	  1	  1	  1	0.49875	  1	0.70000	  0	 13	 32	 33	  1	
05-May-2013	sub2332	2332	  1	  1	 59	  1	  1	  5	  1	  6	  0	  1	  0	0.74102	  1	0.70000	  1	 15	 37	 51	  0	
05-May-2013	sub2332	2332	  1	  1	 60	  1	  1	  2	  6	  3	  1	  1	  0	0.59992	  0	0.80000	  0	 12	 40	 41	  0	
05-May-2013	sub2332	2332	  1	  1	 61	  1	  1	  2	  6	  3	  1	  2	  1	0.51060	  1	0.80000	  0	 12	 30	 31	  0	
05-May-2013	sub2332	2332	  1	  1	 62	  1	  1	  1	  4	  5	  1	  1	  1	0.48044	  1	0.80000	  0	 11	 30	 31	  1	
05-May-2013	sub2332	2332	  1	  1	 63	  1	  1	  3	  5	  5	  1	  1	  1	0.51525	  1	0.80000	  0	 13	 32	 33	  0	
05-May-2013	sub2332	2332	  1	  1	 64	  1	  1	  1	  4	  5	  1	  2	  0	0.39838	  0	0.80000	  0	 11	 40	 41	  1	
05-May-2013	sub2332	2332	  1	  1	 65	  1	  1	  3	  5	  5	  1	  2	  0	0.63342	  0	0.80000	  0	 13	 42	 43	  0	
05-May-2013	sub2332	2332	  1	  1	 66	  1	  1	  2	  6	  3	  1	  2	  1	0.41743	  1	0.80000	  0	 12	 30	 31	  1	
05-May-2013	sub2332	2332	  1	  1	 67	  1	  1	  3	  5	  5	  1	  1	  1	0.36940	  1	0.80000	  0	 13	 32	 33	  1	
05-May-2013	sub2332	2332	  1	  1	 68	  1	  1	  4	  2	  6	  1	  1	  0	0.36579	  0	0.70000	  0	 14	 42	 43	  1	
05-May-2013	sub2332	2332	  1	  1	 69	  1	  1	  4	  2	  6	  1	  2	  1	0.41179	  1	0.70000	  0	 14	 32	 33	  1	
05-May-2013	sub2332	2332	  1	  1	 70	  1	  1	  3	  5	  5	  0	  1	  0	0.71531	  1	0.70000	  1	 13	 34	 51	  0	
05-May-2013	sub2332	2332	  1	  1	 71	  1	  1	  6	  3	  1	  0	  1	  1	0.51391	  0	0.90000	  0	 16	 47	 38	  0	
05-May-2013	sub2332	2332	  1	  1	 72	  1	  1	  3	  5	  5	  1	  2	  0	0.60289	  0	0.90000	  0	 13	 42	 43	  0	
05-May-2013	sub2332	2332	  1	  1	 73	  1	  1	  3	  5	  5	  1	  1	  1	0.61640	  1	0.80000	  0	 13	 32	 33	  0	
05-May-2013	sub2332	2332	  1	  1	 74	  1	  1	  4	  2	  6	  1	  2	  1	0.37984	  1	0.80000	  0	 14	 32	 33	  1	
05-May-2013	sub2332	2332	  1	  1	 75	  1	  1	  2	  6	  3	  1	  1	  0	0.79601	  0	0.80000	  0	 12	 40	 41	  0	
05-May-2013	sub2332	2332	  1	  1	  1	  2	  1	  2	  3	  6	  1	  1	  0	0.37624	  0	0.60000	  0	 12	 40	 41	  1	
05-May-2013	sub2332	2332	  1	  1	  2	  2	  1	  3	  5	  2	  1	  2	  0	0.43631	  0	0.30000	  1	 13	 42	 51	  1	
05-May-2013	sub2332	2332	  1	  1	  3	  2	  1	  4	  1	  4	  1	  1	  0	0.39990	  0	0.90000	  0	 14	 42	 43	  1	
05-May-2013	sub2332	2332	  1	  1	  4	  2	  1	  4	  1	  4	  1	  1	  0	0.39244	  0	0.90000	  0	 14	 42	 43	  1	
05-May-2013	sub2332	2332	  1	  1	  5	  2	  1	  6	  4	  2	  0	  2	  0	0.52112	  1	0.90000	  0	 16	 37	 48	  0	
05-May-2013	sub2332	2332	  1	  1	  6	  2	  1	  4	  1	  4	  1	  2	  1	0.56536	  1	0.90000	  0	 14	 32	 33	  0	
05-May-2013	sub2332	2332	  1	  1	  7	  2	  1	  1	  6	  6	  1	  1	  1	0.57518	  1	0.90000	  0	 11	 30	 31	  0	
05-May-2013	sub2332	2332	  1	  1	  8	  2	  1	  1	  6	  6	  1	  1	  1	0.51739	  1	0.90000	  0	 11	 30	 31	  0	
05-May-2013	sub2332	2332	  1	  1	  9	  2	  1	  1	  6	  6	  1	  1	  1	0.42371	  1	0.90000	  0	 11	 30	 31	  1	
05-May-2013	sub2332	2332	  1	  1	 10	  2	  1	  1	  6	  6	  1	  1	  1	0.39277	  1	0.90000	  0	 11	 30	 31	  1	
05-May-2013	sub2332	2332	  1	  1	 11	  2	  1	  2	  3	  6	  1	  2	  1	0.67390	  1	0.90000	  0	 12	 30	 31	  0	
05-May-2013	sub2332	2332	  1	  1	 12	  2	  1	  1	  6	  6	  1	  1	  1	0.64319	  1	0.90000	  0	 11	 30	 31	  0	
05-May-2013	sub2332	2332	  1	  1	 13	  2	  1	  1	  6	  6	  1	  1	  1	0.47676	  1	0.90000	  0	 11	 30	 31	  1	
05-May-2013	sub2332	2332	  1	  1	 14	  2	  1	  1	  6	  6	  1	  1	  1	0.43095	  1	0.90000	  0	 11	 30	 31	  1	
05-May-2013	sub2332	2332	  1	  1	 15	  2	  1	  6	  4	  2	  0	  1	  1	0.47527	  0	0.90000	  0	 16	 47	 38	  1	
05-May-2013	sub2332	2332	  1	  1	 16	  2	  1	  3	  5	  2	  1	  1	  1	0.49637	  1	0.80000	  0	 13	 32	 33	  1	
05-May-2013	sub2332	2332	  1	  1	 17	  2	  1	  1	  6	  6	  1	  1	  1	0.43763	  1	0.80000	  0	 11	 30	 31	  1	
05-May-2013	sub2332	2332	  1	  1	 18	  2	  1	  5	  2	  4	  0	  1	  0	0.49498	  1	0.70000	  0	 15	 37	 48	  1	
05-May-2013	sub2332	2332	  1	  1	 19	  2	  1	  6	  4	  2	  1	  1	  0	0.55575	  0	0.70000	  0	 16	 45	 46	  0	
05-May-2013	sub2332	2332	  1	  1	 20	  2	  1	  5	  2	  4	  1	  2	  0	0.34573	  0	0.70000	  0	 15	 45	 46	  1	
05-May-2013	sub2332	2332	  1	  1	 21	  2	  1	  3	  5	  2	  1	  1	  1	0.52789	  1	0.60000	  0	 13	 32	 33	  0	
05-May-2013	sub2332	2332	  1	  1	 22	  2	  1	  2	  3	  6	  1	  1	  0	0.46143	  0	0.60000	  0	 12	 40	 41	  1	
05-May-2013	sub2332	2332	  1	  1	 23	  2	  1	  2	  3	  6	  1	  2	  1	0.41588	  1	0.60000	  0	 12	 30	 31	  1	
05-May-2013	sub2332	2332	  1	  1	 24	  2	  1	  4	  1	  4	  0	  1	  1	0.70586	  0	0.60000	  1	 14	 44	 51	  0	
05-May-2013	sub2332	2332	  1	  1	 25	  2	  1	  6	  4	  2	  0	  1	  1	0.45002	  0	0.90000	  0	 16	 47	 38	  1	
05-May-2013	sub2332	2332	  1	  1	 26	  2	  1	  5	  2	  4	  1	  2	  0	0.43778	  0	0.90000	  0	 15	 45	 46	  1	
05-May-2013	sub2332	2332	  1	  1	 27	  2	  1	  1	  6	  6	  1	  2	  0	0.43987	  0	0.90000	  0	 11	 40	 41	  1	
05-May-2013	sub2332	2332	  1	  1	 28	  2	  1	  4	  1	  4	  1	  1	  0	0.44396	  0	0.90000	  0	 14	 42	 43	  1	
05-May-2013	sub2332	2332	  1	  1	 29	  2	  1	  2	  3	  6	  1	  1	  0	0.57804	  0	0.90000	  0	 12	 40	 41	  0	
05-May-2013	sub2332	2332	  1	  1	 30	  2	  1	  2	  3	  6	  1	  2	  1	0.51324	  1	0.80000	  0	 12	 30	 31	  0	
05-May-2013	sub2332	2332	  1	  1	 31	  2	  1	  6	  4	  2	  0	  1	  1	0.68078	  0	0.80000	  0	 16	 47	 38	  0	
05-May-2013	sub2332	2332	  1	  1	 32	  2	  1	  3	  5	  2	  1	  1	  1	0.54598	  1	0.80000	  0	 13	 32	 33	  0	
05-May-2013	sub2332	2332	  1	  1	 33	  2	  1	  4	  1	  4	  1	  2	  1	0.44757	  1	0.80000	  0	 14	 32	 33	  1	
05-May-2013	sub2332	2332	  1	  1	 34	  2	  1	  1	  6	  6	  1	  1	  1	0.44306	  1	0.80000	  0	 11	 30	 31	  1	
05-May-2013	sub2332	2332	  1	  1	 35	  2	  1	  3	  5	  2	  0	  1	  0	0.57424	  1	0.70000	  0	 13	 34	 49	  0	
05-May-2013	sub2332	2332	  1	  1	 36	  2	  1	  6	  4	  2	  1	  1	  0	0.45925	  0	0.70000	  0	 16	 45	 46	  1	
05-May-2013	sub2332	2332	  1	  1	 37	  2	  1	  4	  1	  4	  1	  1	  0	0.49359	  0	0.70000	  0	 14	 42	 43	  1	
05-May-2013	sub2332	2332	  1	  1	 38	  2	  1	  5	  2	  4	  1	  2	  0	0.50722	  0	0.70000	  0	 15	 45	 46	  0	
05-May-2013	sub2332	2332	  1	  1	 39	  2	  1	  6	  4	  2	  1	  1	  0	0.51020	  0	0.70000	  0	 16	 45	 46	  0	
05-May-2013	sub2332	2332	  1	  1	 40	  2	  1	  5	  2	  4	  1	  2	  0	0.51494	  0	0.70000	  0	 15	 45	 46	  0	
05-May-2013	sub2332	2332	  1	  1	 41	  2	  1	  3	  5	  2	  1	  2	  0	0.40283	  0	0.60000	  0	 13	 42	 43	  1	
05-May-2013	sub2332	2332	  1	  1	 42	  2	  1	  2	  3	  6	  1	  1	  0	0.56341	  0	0.60000	  0	 12	 40	 41	  0	
05-May-2013	sub2332	2332	  1	  1	 43	  2	  1	  3	  5	  2	  1	  1	  1	0.50321	  1	0.60000	  0	 13	 32	 33	  0	
05-May-2013	sub2332	2332	  1	  1	 44	  2	  1	  2	  3	  6	  1	  2	  1	0.59100	  1	0.60000	  0	 12	 30	 31	  0	
05-May-2013	sub2332	2332	  1	  1	 45	  2	  1	  3	  5	  2	  1	  1	  1	0.38948	  1	0.60000	  0	 13	 32	 33	  1	
05-May-2013	sub2332	2332	  1	  1	 46	  2	  1	  1	  6	  6	  1	  1	  1	0.50266	  1	0.60000	  0	 11	 30	 31	  0	
05-May-2013	sub2332	2332	  1	  1	 47	  2	  1	  6	  4	  2	  0	  1	  1	0.57204	  0	0.60000	  0	 16	 47	 38	  0	
05-May-2013	sub2332	2332	  1	  1	 48	  2	  1	  5	  2	  4	  0	  2	  1	0.55133	  0	0.60000	  0	 15	 47	 38	  0	
05-May-2013	sub2332	2332	  1	  1	 49	  2	  1	  2	  3	  6	  1	  1	  0	0.39911	  0	0.60000	  0	 12	 40	 41	  1	
05-May-2013	sub2332	2332	  1	  1	 50	  2	  1	  3	  5	  2	  0	  2	  1	0.55930	  0	0.60000	  0	 13	 44	 39	  0	
05-May-2013	sub2332	2332	  1	  1	 51	  2	  1	  2	  3	  6	  1	  2	  1	0.36041	  1	0.50000	  0	 12	 30	 31	  1	
05-May-2013	sub2332	2332	  1	  1	 52	  2	  1	  5	  2	  4	  1	  2	  0	0.41831	  0	0.50000	  0	 15	 45	 46	  1	
05-May-2013	sub2332	2332	  1	  1	 53	  2	  1	  4	  1	  4	  1	  1	  0	0.61009	  0	0.50000	  1	 14	 42	 51	  0	
05-May-2013	sub2332	2332	  1	  1	 54	  2	  1	  6	  4	  2	  0	  1	  1	0.34275	  0	0.70000	  0	 16	 47	 38	  1	
05-May-2013	sub2332	2332	  1	  1	 55	  2	  1	  6	  4	  2	  1	  1	  0	0.48039	  0	0.70000	  0	 16	 45	 46	  1	
05-May-2013	sub2332	2332	  1	  1	 56	  2	  1	  6	  4	  2	  0	  2	  0	0.26435	  1	0.70000	  0	 16	 37	 48	  1	
05-May-2013	sub2332	2332	  1	  1	 57	  2	  1	  2	  3	  6	  1	  2	  1	0.56393	  1	0.70000	  0	 12	 30	 31	  0	
05-May-2013	sub2332	2332	  1	  1	 58	  2	  1	  4	  1	  4	  1	  1	  0	0.40824	  0	0.70000	  0	 14	 42	 43	  1	
05-May-2013	sub2332	2332	  1	  1	 59	  2	  1	  4	  1	  4	  1	  2	  1	0.51314	  1	0.70000	  0	 14	 32	 33	  0	
05-May-2013	sub2332	2332	  1	  1	 60	  2	  1	  3	  5	  2	  0	  1	  0	0.54769	  1	0.70000	  0	 13	 34	 49	  0	
05-May-2013	sub2332	2332	  1	  1	 61	  2	  1	  3	  5	  2	  1	  2	  0	0.48240	  0	0.60000	  0	 13	 42	 43	  1	
05-May-2013	sub2332	2332	  1	  1	 62	  2	  1	  4	  1	  4	  0	  2	  0	0.51178	  1	0.60000	  0	 14	 34	 49	  0	
05-May-2013	sub2332	2332	  1	  1	 63	  2	  1	  5	  2	  4	  1	  1	  1	0.39155	  1	0.60000	  0	 15	 35	 36	  1	
05-May-2013	sub2332	2332	  1	  1	 64	  2	  1	  5	  2	  4	  0	  1	  0	0.36369	  1	0.60000	  0	 15	 37	 48	  1	
05-May-2013	sub2332	2332	  1	  1	 65	  2	  1	  6	  4	  2	  1	  1	  0	0.30270	  0	0.60000	  0	 16	 45	 46	  1	
05-May-2013	sub2332	2332	  1	  1	 66	  2	  1	  5	  2	  4	  0	  2	  1	0.31186	  0	0.60000	  0	 15	 47	 38	  1	
05-May-2013	sub2332	2332	  1	  1	 67	  2	  1	  5	  2	  4	  0	  2	  1	0.34248	  0	0.60000	  0	 15	 47	 38	  1	
05-May-2013	sub2332	2332	  1	  1	 68	  2	  1	  3	  5	  2	  1	  2	  0	0.67605	  0	0.60000	  1	 13	 42	 51	  0	
05-May-2013	sub2332	2332	  1	  1	 69	  2	  1	  3	  5	  2	  1	  2	  0	0.49114	  0	0.70000	  0	 13	 42	 43	  1	
05-May-2013	sub2332	2332	  1	  1	 70	  2	  1	  6	  4	  2	  1	  1	  0	0.38292	  0	0.70000	  0	 16	 45	 46	  1	
05-May-2013	sub2332	2332	  1	  1	 71	  2	  1	  2	  3	  6	  1	  2	  1	0.29987	  1	0.70000	  0	 12	 30	 31	  1	
05-May-2013	sub2332	2332	  1	  1	 72	  2	  1	  1	  6	  6	  1	  2	  0	0.33961	  0	0.70000	  0	 11	 40	 41	  1	
05-May-2013	sub2332	2332	  1	  1	 73	  2	  1	  2	  3	  6	  1	  2	  1	0.37146	  1	0.70000	  0	 12	 30	 31	  1	
05-May-2013	sub2332	2332	  1	  1	 74	  2	  1	  4	  1	  4	  1	  2	  1	0.24181	  1	0.70000	  0	 14	 32	 33	  1	
05-May-2013	sub2332	2332	  1	  1	 75	  2	  1	  5	  2	  4	  0	  1	  0	0.31658	  1	0.70000	  0	 15	 37	 48	  1	
05-May-2013	sub2332	2332	  1	  1	 76	  2	  2	  3	  5	  2	  1	  2	  0	0.43731	  0	0.70000	  0	 23	 82	 83	  1	
05-May-2013	sub2332	2332	  1	  1	 77	  2	  2	  4	  1	  4	  0	  1	  1	0.30179	  0	0.70000	  0	 24	 84	 69	  1	
05-May-2013	sub2332	2332	  1	  1	 78	  2	  2	  3	  5	  2	  1	  2	  0	0.31899	  0	0.70000	  0	 23	 82	 83	  1	
05-May-2013	sub2332	2332	  1	  1	 79	  2	  2	  5	  2	  4	  0	  1	  0	0.38832	  1	0.70000	  0	 25	 67	 88	  1	
05-May-2013	sub2332	2332	  1	  1	 80	  2	  2	  6	  4	  2	  0	  2	  0	0.55542	  1	0.70000	  0	 26	 67	 88	  0	
05-May-2013	sub2332	2332	  1	  1	 81	  2	  2	  1	  6	  6	  1	  1	  1	0.40238	  1	0.60000	  0	 21	 60	 61	  1	
05-May-2013	sub2332	2332	  1	  1	 82	  2	  2	  2	  3	  6	  1	  2	  1	0.45789	  1	0.60000	  0	 22	 60	 61	  1	
05-May-2013	sub2332	2332	  1	  1	 83	  2	  2	  4	  1	  4	  1	  2	  1	0.58234	  1	0.60000	  0	 24	 62	 63	  0	
05-May-2013	sub2332	2332	  1	  1	 84	  2	  2	  5	  2	  4	  0	  1	  0	0.50622	  1	0.60000	  0	 25	 67	 88	  0	
05-May-2013	sub2332	2332	  1	  1	 85	  2	  2	  5	  2	  4	  0	  2	  1	0.42767	  0	0.60000	  0	 25	 87	 68	  1	
05-May-2013	sub2332	2332	  1	  1	 86	  2	  2	  4	  1	  4	  1	  1	  0	0.45186	  0	0.60000	  0	 24	 82	 83	  1	
05-May-2013	sub2332	2332	  1	  1	 87	  2	  2	  1	  6	  6	  1	  1	  1	0.46721	  1	0.60000	  0	 21	 60	 61	  1	
05-May-2013	sub2332	2332	  1	  1	 88	  2	  2	  1	  6	  6	  1	  1	  1	0.41524	  1	0.60000	  0	 21	 60	 61	  1	
05-May-2013	sub2332	2332	  1	  1	 89	  2	  2	  3	  5	  2	  1	  2	  0	0.39106	  0	0.60000	  0	 23	 82	 83	  1	
05-May-2013	sub2332	2332	  1	  1	 90	  2	  2	  2	  3	  6	  1	  2	  1	0.57381	  1	0.60000	  0	 22	 60	 61	  0	
05-May-2013	sub2332	2332	  1	  1	 91	  2	  2	  4	  1	  4	  1	  1	  0	0.40820	  0	0.60000	  0	 24	 82	 83	  1	
05-May-2013	sub2332	2332	  1	  1	 92	  2	  2	  1	  6	  6	  1	  1	  1	0.44781	  1	0.60000	  0	 21	 60	 61	  1	
05-May-2013	sub2332	2332	  1	  1	 93	  2	  2	  2	  3	  6	  1	  2	  1	0.50949	  1	0.60000	  0	 22	 60	 61	  0	
05-May-2013	sub2332	2332	  1	  1	 94	  2	  2	  5	  2	  4	  0	  2	  1	0.46502	  0	0.60000	  0	 25	 87	 68	  1	
05-May-2013	sub2332	2332	  1	  1	 95	  2	  2	  5	  2	  4	  0	  2	  1	0.51062	  0	0.60000	  0	 25	 87	 68	  0	
05-May-2013	sub2332	2332	  1	  1	 96	  2	  2	  3	  5	  2	  1	  1	  1	0.39566	  1	0.60000	  0	 23	 62	 63	  1	
05-May-2013	sub2332	2332	  1	  1	 97	  2	  2	  4	  1	  4	  0	  2	  0	0.31633	  1	0.60000	  0	 24	 64	 89	  1	
05-May-2013	sub2332	2332	  1	  1	 98	  2	  2	  3	  5	  2	  1	  2	  0	0.59700	  0	0.60000	  0	 23	 82	 83	  0	
05-May-2013	sub2332	2332	  1	  1	 99	  2	  2	  2	  3	  6	  1	  2	  1	0.53876	  1	0.60000	  0	 22	 60	 61	  0	
05-May-2013	sub2332	2332	  1	  1	100	  2	  2	  2	  3	  6	  1	  2	  1	0.58206	  1	0.60000	  0	 22	 60	 61	  0	
05-May-2013	sub2332	2332	  1	  1	101	  2	  2	  1	  6	  6	  1	  1	  1	0.55242	  1	0.50000	  1	 21	 60	 51	  0	
05-May-2013	sub2332	2332	  1	  1	102	  2	  2	  2	  3	  6	  1	  2	  1	0.47074	  1	0.60000	  0	 22	 60	 61	  1	
05-May-2013	sub2332	2332	  1	  1	103	  2	  2	  3	  5	  2	  1	  1	  1	0.46828	  1	0.60000	  0	 23	 62	 63	  1	
05-May-2013	sub2332	2332	  1	  1	104	  2	  2	  2	  3	  6	  1	  2	  1	0.39718	  1	0.60000	  0	 22	 60	 61	  1	
05-May-2013	sub2332	2332	  1	  1	105	  2	  2	  6	  4	  2	  1	  1	  0	0.42962	  0	0.60000	  0	 26	 85	 86	  1	
05-May-2013	sub2332	2332	  1	  1	106	  2	  2	  4	  1	  4	  1	  2	  1	0.51760	  1	0.60000	  0	 24	 62	 63	  0	
05-May-2013	sub2332	2332	  1	  1	107	  2	  2	  6	  4	  2	  1	  1	  0	0.53008	  0	0.60000	  0	 26	 85	 86	  0	
05-May-2013	sub2332	2332	  1	  1	108	  2	  2	  2	  3	  6	  1	  2	  1	0.53649	  1	0.60000	  0	 22	 60	 61	  0	
05-May-2013	sub2332	2332	  1	  1	109	  2	  2	  4	  1	  4	  0	  1	  1	0.33324	  0	0.60000	  0	 24	 84	 69	  1	
05-May-2013	sub2332	2332	  1	  1	110	  2	  2	  5	  2	  4	  0	  2	  1	0.48334	  0	0.60000	  0	 25	 87	 68	  1	
05-May-2013	sub2332	2332	  1	  1	111	  2	  2	  6	  4	  2	  1	  1	  0	0.45795	  0	0.60000	  0	 26	 85	 86	  1	
05-May-2013	sub2332	2332	  1	  1	112	  2	  2	  5	  2	  4	  0	  1	  0	0.48741	  1	0.60000	  0	 25	 67	 88	  1	
05-May-2013	sub2332	2332	  1	  1	113	  2	  2	  1	  6	  6	  1	  1	  1	0.66455	  1	0.60000	  1	 21	 60	 51	  0	
05-May-2013	sub2332	2332	  1	  1	114	  2	  2	  5	  2	  4	  0	  2	  1	0.45996	  0	0.70000	  0	 25	 87	 68	  1	
05-May-2013	sub2332	2332	  1	  1	115	  2	  2	  5	  2	  4	  0	  2	  1	0.43091	  0	0.70000	  0	 25	 87	 68	  1	
05-May-2013	sub2332	2332	  1	  1	116	  2	  2	  1	  6	  6	  1	  1	  1	0.49417	  1	0.70000	  0	 21	 60	 61	  1	
05-May-2013	sub2332	2332	  1	  1	117	  2	  2	  1	  6	  6	  1	  1	  1	0.44692	  1	0.70000	  0	 21	 60	 61	  1	
05-May-2013	sub2332	2332	  1	  1	118	  2	  2	  3	  5	  2	  1	  1	  1	0.59371	  1	0.70000	  0	 23	 62	 63	  0	
05-May-2013	sub2332	2332	  1	  1	119	  2	  2	  6	  4	  2	  0	  2	  0	0.60447	  1	0.70000	  0	 26	 67	 88	  0	
05-May-2013	sub2332	2332	  1	  1	120	  2	  2	  4	  1	  4	  1	  1	  0	0.44718	  0	0.70000	  0	 24	 82	 83	  1	
05-May-2013	sub2332	2332	  1	  1	121	  2	  2	  4	  1	  4	  1	  1	  0	0.46210	  0	0.60000	  0	 24	 82	 83	  1	
05-May-2013	sub2332	2332	  1	  1	122	  2	  2	  2	  3	  6	  1	  2	  1	0.51363	  1	0.60000	  0	 22	 60	 61	  0	
05-May-2013	sub2332	2332	  1	  1	123	  2	  2	  3	  5	  2	  0	  1	  0	0.45892	  1	0.60000	  0	 23	 64	 89	  1	
05-May-2013	sub2332	2332	  1	  1	124	  2	  2	  4	  1	  4	  1	  1	  0	0.55737	  0	0.60000	  0	 24	 82	 83	  0	
05-May-2013	sub2332	2332	  1	  1	125	  2	  2	  4	  1	  4	  1	  2	  1	0.44577	  1	0.60000	  0	 24	 62	 63	  1	
05-May-2013	sub2332	2332	  1	  1	126	  2	  2	  4	  1	  4	  1	  2	  1	0.41632	  1	0.60000	  0	 24	 62	 63	  1	
05-May-2013	sub2332	2332	  1	  1	127	  2	  2	  5	  2	  4	  0	  2	  1	0.63205	  0	0.60000	  1	 25	 87	 51	  0	
05-May-2013	sub2332	2332	  1	  1	128	  2	  2	  2	  3	  6	  1	  2	  1	0.53941	  1	0.70000	  0	 22	 60	 61	  0	
05-May-2013	sub2332	2332	  1	  1	129	  2	  2	  4	  1	  4	  1	  2	  1	0.41151	  1	0.70000	  0	 24	 62	 63	  1	
05-May-2013	sub2332	2332	  1	  1	130	  2	  2	  2	  3	  6	  1	  2	  1	0.38533	  1	0.70000	  0	 22	 60	 61	  1	
05-May-2013	sub2332	2332	  1	  1	131	  2	  2	  3	  5	  2	  1	  1	  1	0.41705	  1	0.70000	  0	 23	 62	 63	  1	
05-May-2013	sub2332	2332	  1	  1	132	  2	  2	  1	  6	  6	  1	  2	  0	0.42790	  0	0.70000	  0	 21	 80	 81	  1	
05-May-2013	sub2332	2332	  1	  1	133	  2	  2	  1	  6	  6	  1	  1	  1	0.44935	  1	0.70000	  0	 21	 60	 61	  1	
05-May-2013	sub2332	2332	  1	  1	134	  2	  2	  6	  4	  2	  0	  2	  0	0.58077	  1	0.70000	  0	 26	 67	 88	  0	
05-May-2013	sub2332	2332	  1	  1	135	  2	  2	  6	  4	  2	  1	  1	  0	0.43589	  0	0.70000	  0	 26	 85	 86	  1	
05-May-2013	sub2332	2332	  1	  1	136	  2	  2	  5	  2	  4	  0	  1	  0	0.58395	  1	0.70000	  0	 25	 67	 88	  0	
05-May-2013	sub2332	2332	  1	  1	137	  2	  2	  2	  3	  6	  1	  2	  1	0.51335	  1	0.70000	  0	 22	 60	 61	  0	
05-May-2013	sub2332	2332	  1	  1	138	  2	  2	  6	  4	  2	  1	  2	  1	0.65299	  1	0.70000	  0	 26	 65	 66	  0	
05-May-2013	sub2332	2332	  1	  1	139	  2	  2	  1	  6	  6	  1	  1	  1	0.41694	  1	0.70000	  0	 21	 60	 61	  1	
05-May-2013	sub2332	2332	  1	  1	140	  2	  2	  3	  5	  2	  1	  1	  1	0.65176	  1	0.70000	  0	 23	 62	 63	  0	
05-May-2013	sub2332	2332	  1	  1	141	  2	  2	  6	  4	  2	  1	  1	  0	0.65581	  0	0.60000	  1	 26	 85	 51	  0	
05-May-2013	sub2332	2332	  1	  1	142	  2	  2	  3	  5	  2	  1	  2	  0	0.62046	  0	0.70000	  0	 23	 82	 83	  0	
05-May-2013	sub2332	2332	  1	  1	143	  2	  2	  6	  4	  2	  0	  1	  1	0.57456	  0	0.70000	  0	 26	 87	 68	  0	
05-May-2013	sub2332	2332	  1	  1	144	  2	  2	  5	  2	  4	  0	  2	  1	0.47181	  0	0.70000	  0	 25	 87	 68	  1	
05-May-2013	sub2332	2332	  1	  1	145	  2	  2	  5	  2	  4	  0	  2	  1	0.62901	  0	0.70000	  0	 25	 87	 68	  0	
05-May-2013	sub2332	2332	  1	  1	146	  2	  2	  1	  6	  6	  1	  1	  1	0.43079	  1	0.70000	  0	 21	 60	 61	  1	
05-May-2013	sub2332	2332	  1	  1	147	  2	  2	  6	  4	  2	  0	  2	  0	0.54845	  1	0.70000	  0	 26	 67	 88	  0	
05-May-2013	sub2332	2332	  1	  1	148	  2	  2	  1	  6	  6	  1	  1	  1	0.47027	  1	0.70000	  0	 21	 60	 61	  1	
05-May-2013	sub2332	2332	  1	  1	149	  2	  2	  6	  4	  2	  0	  2	  0	0.54413	  1	0.70000	  0	 26	 67	 88	  0	
05-May-2013	sub2332	2332	  1	  1	150	  2	  2	  3	  5	  2	  0	  1	  0	0.71188	  1	0.70000	  1	 23	 64	 51	  0	
05-May-2013	sub2332	2332	  1	  1	  1	  3	  1	  5	  3	  3	  1	  1	  1	0.55425	  1	0.60000	  0	 15	 35	 36	  0	
05-May-2013	sub2332	2332	  1	  1	  2	  3	  1	  6	  6	  1	  1	  1	  0	0.51712	  0	0.30000	  1	 16	 45	 51	  0	
05-May-2013	sub2332	2332	  1	  1	  3	  3	  1	  5	  3	  3	  0	  1	  0	0.30054	  1	0.90000	  0	 15	 37	 48	  1	
05-May-2013	sub2332	2332	  1	  1	  4	  3	  1	  4	  1	  5	  1	  2	  1	0.46760	  1	0.90000	  0	 14	 32	 33	  1	
05-May-2013	sub2332	2332	  1	  1	  5	  3	  1	  6	  6	  1	  0	  1	  1	0.46732	  0	0.90000	  0	 16	 47	 38	  1	
05-May-2013	sub2332	2332	  1	  1	  6	  3	  1	  4	  1	  5	  0	  2	  0	0.39283	  1	0.90000	  0	 14	 34	 49	  1	
05-May-2013	sub2332	2332	  1	  1	  7	  3	  1	  6	  6	  1	  1	  2	  1	0.37595	  1	0.90000	  0	 16	 35	 36	  1	
05-May-2013	sub2332	2332	  1	  1	  8	  3	  1	  2	  5	  6	  1	  1	  0	0.51011	  0	0.90000	  0	 12	 40	 41	  0	
05-May-2013	sub2332	2332	  1	  1	  9	  3	  1	  1	  2	  3	  1	  1	  1	0.37575	  1	0.90000	  0	 11	 30	 31	  1	
05-May-2013	sub2332	2332	  1	  1	 10	  3	  1	  3	  4	  6	  1	  1	  1	0.51475	  1	0.90000	  0	 13	 32	 33	  0	
05-May-2013	sub2332	2332	  1	  1	 11	  3	  1	  3	  4	  6	  0	  1	  0	0.37724	  1	0.90000	  0	 13	 34	 49	  1	
05-May-2013	sub2332	2332	  1	  1	 12	  3	  1	  3	  4	  6	  1	  1	  1	0.32672	  1	0.90000	  0	 13	 32	 33	  1	
05-May-2013	sub2332	2332	  1	  1	 13	  3	  1	  1	  2	  3	  1	  1	  1	0.35772	  1	0.90000	  0	 11	 30	 31	  1	
05-May-2013	sub2332	2332	  1	  1	 14	  3	  1	  5	  3	  3	  0	  2	  1	0.44769	  0	0.90000	  0	 15	 47	 38	  1	
05-May-2013	sub2332	2332	  1	  1	 15	  3	  1	  2	  5	  6	  1	  2	  1	0.63471	  1	0.90000	  0	 12	 30	 31	  0	
05-May-2013	sub2332	2332	  1	  1	 16	  3	  1	  3	  4	  6	  1	  1	  1	0.52379	  1	0.80000	  0	 13	 32	 33	  0	
05-May-2013	sub2332	2332	  1	  1	 17	  3	  1	  4	  1	  5	  0	  1	  1	0.43137	  0	0.80000	  0	 14	 44	 39	  1	
05-May-2013	sub2332	2332	  1	  1	 18	  3	  1	  1	  2	  3	  1	  2	  0	0.48072	  0	0.70000	  0	 11	 40	 41	  1	
05-May-2013	sub2332	2332	  1	  1	 19	  3	  1	  2	  5	  6	  1	  2	  1	0.37111	  1	0.70000	  0	 12	 30	 31	  1	
05-May-2013	sub2332	2332	  1	  1	 20	  3	  1	  1	  2	  3	  1	  1	  1	0.32263	  1	0.70000	  0	 11	 30	 31	  1	
05-May-2013	sub2332	2332	  1	  1	 21	  3	  1	  2	  5	  6	  1	  2	  1	0.38957	  1	0.60000	  0	 12	 30	 31	  1	
05-May-2013	sub2332	2332	  1	  1	 22	  3	  1	  2	  5	  6	  1	  1	  0	0.37636	  0	0.60000	  0	 12	 40	 41	  1	
05-May-2013	sub2332	2332	  1	  1	 23	  3	  1	  2	  5	  6	  1	  2	  1	0.36115	  1	0.60000	  0	 12	 30	 31	  1	
05-May-2013	sub2332	2332	  1	  1	 24	  3	  1	  5	  3	  3	  1	  1	  1	0.55040	  1	0.60000	  0	 15	 35	 36	  0	
05-May-2013	sub2332	2332	  1	  1	 25	  3	  1	  4	  1	  5	  1	  2	  1	0.62684	  1	0.60000	  1	 14	 32	 51	  0	
05-May-2013	sub2332	2332	  1	  1	 26	  3	  1	  6	  6	  1	  0	  1	  1	0.28827	  0	0.90000	  0	 16	 47	 38	  1	
05-May-2013	sub2332	2332	  1	  1	 27	  3	  1	  4	  1	  5	  1	  2	  1	0.35505	  1	0.90000	  0	 14	 32	 33	  1	
05-May-2013	sub2332	2332	  1	  1	 28	  3	  1	  3	  4	  6	  1	  1	  1	0.37809	  1	0.90000	  0	 13	 32	 33	  1	
05-May-2013	sub2332	2332	  1	  1	 29	  3	  1	  6	  6	  1	  0	  1	  1	0.36243	  0	0.90000	  0	 16	 47	 38	  1	
05-May-2013	sub2332	2332	  1	  1	 30	  3	  1	  2	  5	  6	  1	  1	  0	0.36874	  0	0.80000	  0	 12	 40	 41	  1	
05-May-2013	sub2332	2332	  1	  1	 31	  3	  1	  2	  5	  6	  1	  2	  1	0.49159	  1	0.80000	  0	 12	 30	 31	  1	
05-May-2013	sub2332	2332	  1	  1	 32	  3	  1	  2	  5	  6	  1	  2	  1	0.55666	  1	0.80000	  0	 12	 30	 31	  0	
05-May-2013	sub2332	2332	  1	  1	 33	  3	  1	  4	  1	  5	  1	  1	  0	0.41808	  0	0.80000	  0	 14	 42	 43	  1	
05-May-2013	sub2332	2332	  1	  1	 34	  3	  1	  6	  6	  1	  1	  1	  0	0.52310	  0	0.80000	  0	 16	 45	 46	  0	
05-May-2013	sub2332	2332	  1	  1	 35	  3	  1	  3	  4	  6	  1	  2	  0	0.52217	  0	0.70000	  0	 13	 42	 43	  0	
05-May-2013	sub2332	2332	  1	  1	 36	  3	  1	  1	  2	  3	  1	  2	  0	0.35766	  0	0.70000	  0	 11	 40	 41	  1	
05-May-2013	sub2332	2332	  1	  1	 37	  3	  1	  1	  2	  3	  1	  2	  0	0.52954	  0	0.70000	  0	 11	 40	 41	  0	
05-May-2013	sub2332	2332	  1	  1	 38	  3	  1	  6	  6	  1	  0	  1	  1	0.45775	  0	0.70000	  0	 16	 47	 38	  1	
05-May-2013	sub2332	2332	  1	  1	 39	  3	  1	  2	  5	  6	  1	  2	  1	0.48017	  1	0.70000	  0	 12	 30	 31	  1	
05-May-2013	sub2332	2332	  1	  1	 40	  3	  1	  3	  4	  6	  1	  1	  1	0.50772	  1	0.70000	  0	 13	 32	 33	  0	
05-May-2013	sub2332	2332	  1	  1	 41	  3	  1	  3	  4	  6	  1	  1	  1	0.37320	  1	0.60000	  0	 13	 32	 33	  1	
05-May-2013	sub2332	2332	  1	  1	 42	  3	  1	  5	  3	  3	  0	  1	  0	0.51778	  1	0.60000	  0	 15	 37	 48	  0	
05-May-2013	sub2332	2332	  1	  1	 43	  3	  1	  4	  1	  5	  1	  1	  0	0.51221	  0	0.60000	  0	 14	 42	 43	  0	
05-May-2013	sub2332	2332	  1	  1	 44	  3	  1	  5	  3	  3	  0	  1	  0	0.42663	  1	0.60000	  0	 15	 37	 48	  1	
05-May-2013	sub2332	2332	  1	  1	 45	  3	  1	  6	  6	  1	  0	  1	  1	0.49868	  0	0.60000	  0	 16	 47	 38	  1	
05-May-2013	sub2332	2332	  1	  1	 46	  3	  1	  4	  1	  5	  1	  2	  1	0.56526	  1	0.60000	  0	 14	 32	 33	  0	
05-May-2013	sub2332	2332	  1	  1	 47	  3	  1	  3	  4	  6	  0	  2	  1	0.44349	  0	0.60000	  0	 13	 44	 39	  1	
05-May-2013	sub2332	2332	  1	  1	 48	  3	  1	  1	  2	  3	  1	  2	  0	0.54237	  0	0.60000	  0	 11	 40	 41	  0	
05-May-2013	sub2332	2332	  1	  1	 49	  3	  1	  5	  3	  3	  1	  2	  0	0.43537	  0	0.60000	  0	 15	 45	 46	  1	
05-May-2013	sub2332	2332	  1	  1	 50	  3	  1	  2	  5	  6	  1	  2	  1	0.46967	  1	0.60000	  0	 12	 30	 31	  1	
05-May-2013	sub2332	2332	  1	  1	 51	  3	  1	  3	  4	  6	  1	  1	  1	0.43162	  1	0.50000	  0	 13	 32	 33	  1	
05-May-2013	sub2332	2332	  1	  1	 52	  3	  1	  1	  2	  3	  1	  1	  1	0.38317	  1	0.50000	  0	 11	 30	 31	  1	
05-May-2013	sub2332	2332	  1	  1	 53	  3	  1	  2	  5	  6	  1	  2	  1	0.43458	  1	0.50000	  0	 12	 30	 31	  1	
05-May-2013	sub2332	2332	  1	  1	 54	  3	  1	  5	  3	  3	  1	  2	  0	0.60277	  0	0.50000	  1	 15	 45	 51	  0	
05-May-2013	sub2332	2332	  1	  1	 55	  3	  1	  5	  3	  3	  1	  2	  0	0.36275	  0	0.70000	  0	 15	 45	 46	  1	
05-May-2013	sub2332	2332	  1	  1	 56	  3	  1	  6	  6	  1	  1	  1	  0	0.41445	  0	0.70000	  0	 16	 45	 46	  1	
05-May-2013	sub2332	2332	  1	  1	 57	  3	  1	  5	  3	  3	  1	  2	  0	0.41884	  0	0.70000	  0	 15	 45	 46	  1	
05-May-2013	sub2332	2332	  1	  1	 58	  3	  1	  6	  6	  1	  0	  1	  1	0.41370	  0	0.70000	  0	 16	 47	 38	  1	
05-May-2013	sub2332	2332	  1	  1	 59	  3	  1	  4	  1	  5	  1	  2	  1	0.60366	  1	0.70000	  0	 14	 32	 33	  0	
05-May-2013	sub2332	2332	  1	  1	 60	  3	  1	  4	  1	  5	  1	  1	  0	0.49518	  0	0.70000	  0	 14	 42	 43	  1	
05-May-2013	sub2332	2332	  1	  1	 61	  3	  1	  6	  6	  1	  0	  1	  1	0.50961	  0	0.60000	  0	 16	 47	 38	  0	
05-May-2013	sub2332	2332	  1	  1	 62	  3	  1	  5	  3	  3	  0	  2	  1	0.45568	  0	0.60000	  0	 15	 47	 38	  1	
05-May-2013	sub2332	2332	  1	  1	 63	  3	  1	  6	  6	  1	  1	  2	  1	0.62440	  1	0.60000	  1	 16	 35	 51	  0	
05-May-2013	sub2332	2332	  1	  1	 64	  3	  1	  6	  6	  1	  1	  1	  0	0.48533	  0	0.80000	  0	 16	 45	 46	  1	
05-May-2013	sub2332	2332	  1	  1	 65	  3	  1	  1	  2	  3	  1	  2	  0	0.63416	  0	0.80000	  0	 11	 40	 41	  0	
05-May-2013	sub2332	2332	  1	  1	 66	  3	  1	  3	  4	  6	  0	  1	  0	0.57050	  1	0.80000	  0	 13	 34	 49	  0	
05-May-2013	sub2332	2332	  1	  1	 67	  3	  1	  2	  5	  6	  1	  2	  1	0.77082	  1	0.80000	  0	 12	 30	 31	  0	
05-May-2013	sub2332	2332	  1	  1	 68	  3	  1	  3	  4	  6	  1	  1	  1	0.49638	  1	0.70000	  0	 13	 32	 33	  1	
05-May-2013	sub2332	2332	  1	  1	 69	  3	  1	  4	  1	  5	  1	  2	  1	0.59808	  1	0.70000	  0	 14	 32	 33	  0	
05-May-2013	sub2332	2332	  1	  1	 70	  3	  1	  1	  2	  3	  1	  2	  0	0.40620	  0	0.70000	  0	 11	 40	 41	  1	
05-May-2013	sub2332	2332	  1	  1	 71	  3	  1	  3	  4	  6	  1	  2	  0	0.47012	  0	0.70000	  0	 13	 42	 43	  1	
05-May-2013	sub2332	2332	  1	  1	 72	  3	  1	  5	  3	  3	  1	  2	  0	0.54481	  0	0.70000	  0	 15	 45	 46	  0	
05-May-2013	sub2332	2332	  1	  1	 73	  3	  1	  1	  2	  3	  1	  1	  1	0.59643	  1	0.70000	  0	 11	 30	 31	  0	
05-May-2013	sub2332	2332	  1	  1	 74	  3	  1	  4	  1	  5	  1	  2	  1	0.58177	  1	0.70000	  0	 14	 32	 33	  0	
05-May-2013	sub2332	2332	  1	  1	 75	  3	  1	  1	  2	  3	  1	  1	  1	0.62403	  1	0.70000	  0	 11	 30	 31	  0	
05-May-2013	sub2332	2332	  1	  1	 76	  3	  2	  2	  5	  6	  1	  2	  1	0.57694	  1	0.70000	  0	 22	 60	 61	  0	
05-May-2013	sub2332	2332	  1	  1	 77	  3	  2	  4	  1	  5	  1	  1	  0	0.68754	  0	0.70000	  0	 24	 82	 83	  0	
05-May-2013	sub2332	2332	  1	  1	 78	  3	  2	  3	  4	  6	  1	  1	  1	0.48777	  1	0.70000	  0	 23	 62	 63	  1	
05-May-2013	sub2332	2332	  1	  1	 79	  3	  2	  4	  1	  5	  1	  2	  1	0.37520	  1	0.70000	  0	 24	 62	 63	  1	
05-May-2013	sub2332	2332	  1	  1	 80	  3	  2	  1	  2	  3	  1	  1	  1	0.41261	  1	0.70000	  0	 21	 60	 61	  1	
05-May-2013	sub2332	2332	  1	  1	 81	  3	  2	  1	  2	  3	  1	  1	  1	0.46687	  1	0.60000	  0	 21	 60	 61	  1	
05-May-2013	sub2332	2332	  1	  1	 82	  3	  2	  1	  2	  3	  1	  1	  1	0.45288	  1	0.60000	  0	 21	 60	 61	  1	
05-May-2013	sub2332	2332	  1	  1	 83	  3	  2	  3	  4	  6	  1	  2	  0	0.49679	  0	0.60000	  0	 23	 82	 83	  1	
05-May-2013	sub2332	2332	  1	  1	 84	  3	  2	  2	  5	  6	  1	  2	  1	0.55121	  1	0.60000	  0	 22	 60	 61	  0	
05-May-2013	sub2332	2332	  1	  1	 85	  3	  2	  6	  6	  1	  1	  1	  0	0.54484	  0	0.60000	  0	 26	 85	 86	  0	
05-May-2013	sub2332	2332	  1	  1	 86	  3	  2	  4	  1	  5	  1	  2	  1	0.57385	  1	0.60000	  0	 24	 62	 63	  0	
05-May-2013	sub2332	2332	  1	  1	 87	  3	  2	  6	  6	  1	  0	  1	  1	0.44710	  0	0.60000	  0	 26	 87	 68	  1	
05-May-2013	sub2332	2332	  1	  1	 88	  3	  2	  2	  5	  6	  1	  1	  0	0.38325	  0	0.60000	  0	 22	 80	 81	  1	
05-May-2013	sub2332	2332	  1	  1	 89	  3	  2	  6	  6	  1	  1	  1	  0	0.55390	  0	0.60000	  0	 26	 85	 86	  0	
05-May-2013	sub2332	2332	  1	  1	 90	  3	  2	  5	  3	  3	  0	  2	  1	0.52036	  0	0.60000	  0	 25	 87	 68	  0	
05-May-2013	sub2332	2332	  1	  1	 91	  3	  2	  6	  6	  1	  0	  1	  1	0.49218	  0	0.60000	  0	 26	 87	 68	  1	
05-May-2013	sub2332	2332	  1	  1	 92	  3	  2	  2	  5	  6	  1	  1	  0	0.54099	  0	0.60000	  0	 22	 80	 81	  0	
05-May-2013	sub2332	2332	  1	  1	 93	  3	  2	  3	  4	  6	  1	  1	  1	0.47039	  1	0.60000	  0	 23	 62	 63	  1	
05-May-2013	sub2332	2332	  1	  1	 94	  3	  2	  4	  1	  5	  1	  1	  0	0.52026	  0	0.60000	  0	 24	 82	 83	  0	
05-May-2013	sub2332	2332	  1	  1	 95	  3	  2	  4	  1	  5	  1	  1	  0	0.41116	  0	0.60000	  0	 24	 82	 83	  1	
05-May-2013	sub2332	2332	  1	  1	 96	  3	  2	  3	  4	  6	  1	  1	  1	0.47406	  1	0.60000	  0	 23	 62	 63	  1	
05-May-2013	sub2332	2332	  1	  1	 97	  3	  2	  1	  2	  3	  1	  1	  1	0.55761	  1	0.60000	  0	 21	 60	 61	  0	
05-May-2013	sub2332	2332	  1	  1	 98	  3	  2	  2	  5	  6	  1	  2	  1	0.55212	  1	0.60000	  0	 22	 60	 61	  0	
05-May-2013	sub2332	2332	  1	  1	 99	  3	  2	  3	  4	  6	  1	  2	  0	0.38164	  0	0.60000	  0	 23	 82	 83	  1	
05-May-2013	sub2332	2332	  1	  1	100	  3	  2	  6	  6	  1	  1	  2	  1	0.54355	  1	0.60000	  0	 26	 65	 66	  0	
05-May-2013	sub2332	2332	  1	  1	101	  3	  2	  5	  3	  3	  0	  2	  1	0.58660	  0	0.50000	  1	 25	 87	 51	  0	
05-May-2013	sub2332	2332	  1	  1	102	  3	  2	  3	  4	  6	  1	  1	  1	0.41601	  1	0.60000	  0	 23	 62	 63	  1	
05-May-2013	sub2332	2332	  1	  1	103	  3	  2	  2	  5	  6	  1	  2	  1	0.61141	  1	0.60000	  1	 22	 60	 51	  0	
05-May-2013	sub2332	2332	  1	  1	104	  3	  2	  6	  6	  1	  1	  1	  0	0.34445	  0	0.70000	  0	 26	 85	 86	  1	
05-May-2013	sub2332	2332	  1	  1	105	  3	  2	  1	  2	  3	  1	  1	  1	0.47214	  1	0.70000	  0	 21	 60	 61	  1	
05-May-2013	sub2332	2332	  1	  1	106	  3	  2	  5	  3	  3	  0	  2	  1	0.46599	  0	0.70000	  0	 25	 87	 68	  1	
05-May-2013	sub2332	2332	  1	  1	107	  3	  2	  5	  3	  3	  0	  2	  1	0.42737	  0	0.70000	  0	 25	 87	 68	  1	
05-May-2013	sub2332	2332	  1	  1	108	  3	  2	  4	  1	  5	  1	  2	  1	0.55056	  1	0.70000	  0	 24	 62	 63	  0	
05-May-2013	sub2332	2332	  1	  1	109	  3	  2	  1	  2	  3	  1	  1	  1	0.43134	  1	0.70000	  0	 21	 60	 61	  1	
05-May-2013	sub2332	2332	  1	  1	110	  3	  2	  2	  5	  6	  1	  2	  1	0.47689	  1	0.70000	  0	 22	 60	 61	  1	
05-May-2013	sub2332	2332	  1	  1	111	  3	  2	  1	  2	  3	  1	  1	  1	0.42347	  1	0.70000	  0	 21	 60	 61	  1	
05-May-2013	sub2332	2332	  1	  1	112	  3	  2	  4	  1	  5	  0	  1	  1	0.36552	  0	0.70000	  0	 24	 84	 69	  1	
05-May-2013	sub2332	2332	  1	  1	113	  3	  2	  1	  2	  3	  1	  1	  1	0.34321	  1	0.70000	  0	 21	 60	 61	  1	
05-May-2013	sub2332	2332	  1	  1	114	  3	  2	  6	  6	  1	  0	  1	  1	0.47608	  0	0.70000	  0	 26	 87	 68	  1	
05-May-2013	sub2332	2332	  1	  1	115	  3	  2	  3	  4	  6	  1	  1	  1	0.49545	  1	0.70000	  0	 23	 62	 63	  1	
05-May-2013	sub2332	2332	  1	  1	116	  3	  2	  4	  1	  5	  1	  1	  0	0.51734	  0	0.70000	  0	 24	 82	 83	  0	
05-May-2013	sub2332	2332	  1	  1	117	  3	  2	  6	  6	  1	  1	  1	  0	0.46728	  0	0.70000	  0	 26	 85	 86	  1	
05-May-2013	sub2332	2332	  1	  1	118	  3	  2	  5	  3	  3	  0	  2	  1	0.50412	  0	0.70000	  0	 25	 87	 68	  0	
05-May-2013	sub2332	2332	  1	  1	119	  3	  2	  6	  6	  1	  0	  2	  0	0.57024	  1	0.70000	  0	 26	 67	 88	  0	
05-May-2013	sub2332	2332	  1	  1	120	  3	  2	  3	  4	  6	  0	  1	  0	0.40712	  1	0.70000	  0	 23	 64	 89	  1	
05-May-2013	sub2332	2332	  1	  1	121	  3	  2	  4	  1	  5	  0	  2	  0	0.51720	  1	0.60000	  0	 24	 64	 89	  0	
05-May-2013	sub2332	2332	  1	  1	122	  3	  2	  1	  2	  3	  1	  1	  1	0.40038	  1	0.60000	  0	 21	 60	 61	  1	
05-May-2013	sub2332	2332	  1	  1	123	  3	  2	  4	  1	  5	  1	  2	  1	0.43464	  1	0.60000	  0	 24	 62	 63	  1	
05-May-2013	sub2332	2332	  1	  1	124	  3	  2	  1	  2	  3	  1	  1	  1	0.39181	  1	0.60000	  0	 21	 60	 61	  1	
05-May-2013	sub2332	2332	  1	  1	125	  3	  2	  5	  3	  3	  0	  2	  1	0.46810	  0	0.60000	  0	 25	 87	 68	  1	
05-May-2013	sub2332	2332	  1	  1	126	  3	  2	  3	  4	  6	  1	  1	  1	0.38196	  1	0.60000	  0	 23	 62	 63	  1	
05-May-2013	sub2332	2332	  1	  1	127	  3	  2	  2	  5	  6	  1	  1	  0	0.48455	  0	0.60000	  0	 22	 80	 81	  1	
05-May-2013	sub2332	2332	  1	  1	128	  3	  2	  5	  3	  3	  0	  2	  1	0.53025	  0	0.60000	  0	 25	 87	 68	  0	
05-May-2013	sub2332	2332	  1	  1	129	  3	  2	  5	  3	  3	  0	  2	  1	0.39493	  0	0.60000	  0	 25	 87	 68	  1	
05-May-2013	sub2332	2332	  1	  1	130	  3	  2	  1	  2	  3	  1	  1	  1	0.37483	  1	0.60000	  0	 21	 60	 61	  1	
05-May-2013	sub2332	2332	  1	  1	131	  3	  2	  3	  4	  6	  0	  1	  0	0.47741	  1	0.60000	  0	 23	 64	 89	  1	
05-May-2013	sub2332	2332	  1	  1	132	  3	  2	  2	  5	  6	  1	  1	  0	0.41310	  0	0.60000	  0	 22	 80	 81	  1	
05-May-2013	sub2332	2332	  1	  1	133	  3	  2	  2	  5	  6	  1	  2	  1	0.42995	  1	0.60000	  0	 22	 60	 61	  1	
05-May-2013	sub2332	2332	  1	  1	134	  3	  2	  5	  3	  3	  0	  2	  1	0.53254	  0	0.60000	  0	 25	 87	 68	  0	
05-May-2013	sub2332	2332	  1	  1	135	  3	  2	  2	  5	  6	  1	  2	  1	0.40287	  1	0.60000	  0	 22	 60	 61	  1	
05-May-2013	sub2332	2332	  1	  1	136	  3	  2	  6	  6	  1	  0	  2	  0	0.42907	  1	0.60000	  0	 26	 67	 88	  1	
05-May-2013	sub2332	2332	  1	  1	137	  3	  2	  3	  4	  6	  1	  2	  0	0.51401	  0	0.60000	  0	 23	 82	 83	  0	
05-May-2013	sub2332	2332	  1	  1	138	  3	  2	  6	  6	  1	  1	  1	  0	0.47429	  0	0.60000	  0	 26	 85	 86	  1	
05-May-2013	sub2332	2332	  1	  1	139	  3	  2	  5	  3	  3	  0	  1	  0	0.40318	  1	0.60000	  0	 25	 67	 88	  1	
05-May-2013	sub2332	2332	  1	  1	140	  3	  2	  4	  1	  5	  1	  1	  0	0.47245	  0	0.60000	  0	 24	 82	 83	  1	
05-May-2013	sub2332	2332	  1	  1	141	  3	  2	  4	  1	  5	  1	  2	  1	0.55920	  1	0.60000	  0	 24	 62	 63	  0	
05-May-2013	sub2332	2332	  1	  1	142	  3	  2	  6	  6	  1	  0	  2	  0	0.54643	  1	0.60000	  0	 26	 67	 88	  0	
05-May-2013	sub2332	2332	  1	  1	143	  3	  2	  1	  2	  3	  1	  1	  1	0.48576	  1	0.60000	  0	 21	 60	 61	  1	
05-May-2013	sub2332	2332	  1	  1	144	  3	  2	  4	  1	  5	  0	  2	  0	0.58725	  1	0.60000	  0	 24	 64	 89	  0	
05-May-2013	sub2332	2332	  1	  1	145	  3	  2	  5	  3	  3	  0	  2	  1	0.50364	  0	0.60000	  0	 25	 87	 68	  0	
05-May-2013	sub2332	2332	  1	  1	146	  3	  2	  1	  2	  3	  1	  1	  1	0.48679	  1	0.60000	  0	 21	 60	 61	  1	
05-May-2013	sub2332	2332	  1	  1	147	  3	  2	  2	  5	  6	  1	  1	  0	0.53256	  0	0.60000	  0	 22	 80	 81	  0	
05-May-2013	sub2332	2332	  1	  1	148	  3	  2	  5	  3	  3	  0	  2	  1	0.49540	  0	0.60000	  0	 25	 87	 68	  1	
05-May-2013	sub2332	2332	  1	  1	149	  3	  2	  3	  4	  6	  1	  2	  0	0.55512	  0	0.60000	  0	 23	 82	 83	  0	
05-May-2013	sub2332	2332	  1	  1	150	  3	  2	  5	  3	  3	  0	  2	  1	0.39845	  0	0.60000	  0	 25	 87	 68	  1	
05-May-2013	sub2332	2332	  1	  1	  1	  4	  1	  6	  3	  2	  1	  1	  0	0.35526	  0	0.60000	  0	 16	 45	 46	  1	
05-May-2013	sub2332	2332	  1	  1	  2	  4	  1	  4	  5	  4	  1	  1	  0	0.38583	  0	0.30000	  1	 14	 42	 51	  1	
05-May-2013	sub2332	2332	  1	  1	  3	  4	  1	  2	  1	  3	  1	  1	  0	0.30915	  0	0.90000	  0	 12	 40	 41	  1	
05-May-2013	sub2332	2332	  1	  1	  4	  4	  1	  5	  2	  2	  1	  1	  1	0.36248	  1	0.90000	  0	 15	 35	 36	  1	
05-May-2013	sub2332	2332	  1	  1	  5	  4	  1	  3	  4	  4	  1	  1	  1	0.37216	  1	0.90000	  0	 13	 32	 33	  1	
05-May-2013	sub2332	2332	  1	  1	  6	  4	  1	  4	  5	  4	  0	  1	  1	0.36955	  0	0.90000	  0	 14	 44	 39	  1	
05-May-2013	sub2332	2332	  1	  1	  7	  4	  1	  1	  6	  4	  1	  1	  1	0.47957	  1	0.90000	  0	 11	 30	 31	  1	
05-May-2013	sub2332	2332	  1	  1	  8	  4	  1	  2	  1	  3	  1	  2	  1	0.35539	  1	0.90000	  0	 12	 30	 31	  1	
05-May-2013	sub2332	2332	  1	  1	  9	  4	  1	  5	  2	  2	  0	  2	  1	0.41879	  0	0.90000	  0	 15	 47	 38	  1	
05-May-2013	sub2332	2332	  1	  1	 10	  4	  1	  6	  3	  2	  0	  2	  0	0.43209	  1	0.90000	  0	 16	 37	 48	  1	
05-May-2013	sub2332	2332	  1	  1	 11	  4	  1	  6	  3	  2	  1	  1	  0	0.37501	  0	0.90000	  0	 16	 45	 46	  1	
05-May-2013	sub2332	2332	  1	  1	 12	  4	  1	  6	  3	  2	  1	  1	  0	0.31506	  0	0.90000	  0	 16	 45	 46	  1	
05-May-2013	sub2332	2332	  1	  1	 13	  4	  1	  5	  2	  2	  0	  1	  0	0.50040	  1	0.90000	  0	 15	 37	 48	  0	
05-May-2013	sub2332	2332	  1	  1	 14	  4	  1	  1	  6	  4	  1	  1	  1	0.41490	  1	0.90000	  0	 11	 30	 31	  1	
05-May-2013	sub2332	2332	  1	  1	 15	  4	  1	  3	  4	  4	  1	  1	  1	0.36323	  1	0.90000	  0	 13	 32	 33	  1	
05-May-2013	sub2332	2332	  1	  1	 16	  4	  1	  4	  5	  4	  1	  1	  0	0.36761	  0	0.80000	  0	 14	 42	 43	  1	
05-May-2013	sub2332	2332	  1	  1	 17	  4	  1	  6	  3	  2	  1	  2	  1	0.34773	  1	0.80000	  0	 16	 35	 36	  1	
05-May-2013	sub2332	2332	  1	  1	 18	  4	  1	  6	  3	  2	  0	  2	  0	0.36040	  1	0.70000	  0	 16	 37	 48	  1	
05-May-2013	sub2332	2332	  1	  1	 19	  4	  1	  1	  6	  4	  1	  2	  0	0.49116	  0	0.70000	  0	 11	 40	 41	  1	
05-May-2013	sub2332	2332	  1	  1	 20	  4	  1	  2	  1	  3	  1	  2	  1	0.54153	  1	0.70000	  0	 12	 30	 31	  0	
05-May-2013	sub2332	2332	  1	  1	 21	  4	  1	  3	  4	  4	  0	  1	  0	0.48920	  1	0.60000	  0	 13	 34	 49	  1	
05-May-2013	sub2332	2332	  1	  1	 22	  4	  1	  3	  4	  4	  0	  2	  1	0.41338	  0	0.60000	  0	 13	 44	 39	  1	
05-May-2013	sub2332	2332	  1	  1	 23	  4	  1	  4	  5	  4	  1	  2	  1	0.49031	  1	0.60000	  0	 14	 32	 33	  1	
05-May-2013	sub2332	2332	  1	  1	 24	  4	  1	  5	  2	  2	  1	  1	  1	0.55114	  1	0.60000	  0	 15	 35	 36	  0	
05-May-2013	sub2332	2332	  1	  1	 25	  4	  1	  6	  3	  2	  0	  2	  0	0.44320	  1	0.60000	  0	 16	 37	 48	  1	
05-May-2013	sub2332	2332	  1	  1	 26	  4	  1	  1	  6	  4	  1	  1	  1	0.40309	  1	0.50000	  0	 11	 30	 31	  1	
05-May-2013	sub2332	2332	  1	  1	 27	  4	  1	  2	  1	  3	  1	  2	  1	0.44164	  1	0.50000	  0	 12	 30	 31	  1	
05-May-2013	sub2332	2332	  1	  1	 28	  4	  1	  4	  5	  4	  1	  1	  0	0.45962	  0	0.50000	  0	 14	 42	 43	  1	
05-May-2013	sub2332	2332	  1	  1	 29	  4	  1	  2	  1	  3	  1	  2	  1	0.50039	  1	0.50000	  1	 12	 30	 51	  0	
05-May-2013	sub2332	2332	  1	  1	 30	  4	  1	  5	  2	  2	  1	  1	  1	0.45977	  1	0.80000	  0	 15	 35	 36	  1	
05-May-2013	sub2332	2332	  1	  1	 31	  4	  1	  1	  6	  4	  1	  1	  1	0.57651	  1	0.80000	  0	 11	 30	 31	  0	
05-May-2013	sub2332	2332	  1	  1	 32	  4	  1	  2	  1	  3	  1	  2	  1	0.35049	  1	0.80000	  0	 12	 30	 31	  1	
05-May-2013	sub2332	2332	  1	  1	 33	  4	  1	  2	  1	  3	  1	  2	  1	0.47426	  1	0.80000	  0	 12	 30	 31	  1	
05-May-2013	sub2332	2332	  1	  1	 34	  4	  1	  2	  1	  3	  1	  2	  1	0.41177	  1	0.80000	  0	 12	 30	 31	  1	
05-May-2013	sub2332	2332	  1	  1	 35	  4	  1	  5	  2	  2	  1	  1	  1	0.49555	  1	0.70000	  0	 15	 35	 36	  1	
05-May-2013	sub2332	2332	  1	  1	 36	  4	  1	  1	  6	  4	  1	  1	  1	0.44021	  1	0.70000	  0	 11	 30	 31	  1	
05-May-2013	sub2332	2332	  1	  1	 37	  4	  1	  3	  4	  4	  1	  2	  0	0.48803	  0	0.70000	  0	 13	 42	 43	  1	
05-May-2013	sub2332	2332	  1	  1	 38	  4	  1	  6	  3	  2	  0	  2	  0	0.44809	  1	0.70000	  0	 16	 37	 48	  1	
05-May-2013	sub2332	2332	  1	  1	 39	  4	  1	  5	  2	  2	  1	  2	  0	0.38012	  0	0.70000	  0	 15	 45	 46	  1	
05-May-2013	sub2332	2332	  1	  1	 40	  4	  1	  5	  2	  2	  1	  1	  1	0.54492	  1	0.70000	  0	 15	 35	 36	  0	
05-May-2013	sub2332	2332	  1	  1	 41	  4	  1	  6	  3	  2	  0	  2	  0	0.39333	  1	0.60000	  0	 16	 37	 48	  1	
05-May-2013	sub2332	2332	  1	  1	 42	  4	  1	  2	  1	  3	  1	  2	  1	0.44412	  1	0.60000	  0	 12	 30	 31	  1	
05-May-2013	sub2332	2332	  1	  1	 43	  4	  1	  3	  4	  4	  0	  2	  1	0.50214	  0	0.60000	  0	 13	 44	 39	  0	
05-May-2013	sub2332	2332	  1	  1	 44	  4	  1	  4	  5	  4	  1	  2	  1	0.50358	  1	0.60000	  0	 14	 32	 33	  0	
05-May-2013	sub2332	2332	  1	  1	 45	  4	  1	  3	  4	  4	  1	  2	  0	0.45687	  0	0.60000	  0	 13	 42	 43	  1	
05-May-2013	sub2332	2332	  1	  1	 46	  4	  1	  1	  6	  4	  1	  1	  1	0.45213	  1	0.60000	  0	 11	 30	 31	  1	
05-May-2013	sub2332	2332	  1	  1	 47	  4	  1	  3	  4	  4	  1	  2	  0	0.47934	  0	0.60000	  0	 13	 42	 43	  1	
05-May-2013	sub2332	2332	  1	  1	 48	  4	  1	  3	  4	  4	  1	  1	  1	0.39620	  1	0.60000	  0	 13	 32	 33	  1	
05-May-2013	sub2332	2332	  1	  1	 49	  4	  1	  1	  6	  4	  1	  1	  1	0.53816	  1	0.60000	  0	 11	 30	 31	  0	
05-May-2013	sub2332	2332	  1	  1	 50	  4	  1	  6	  3	  2	  1	  2	  1	0.45429	  1	0.60000	  0	 16	 35	 36	  1	
05-May-2013	sub2332	2332	  1	  1	 51	  4	  1	  2	  1	  3	  1	  1	  0	0.37866	  0	0.50000	  0	 12	 40	 41	  1	
05-May-2013	sub2332	2332	  1	  1	 52	  4	  1	  1	  6	  4	  1	  1	  1	0.53123	  1	0.50000	  1	 11	 30	 51	  0	
05-May-2013	sub2332	2332	  1	  1	 53	  4	  1	  3	  4	  4	  1	  1	  1	0.43516	  1	0.70000	  0	 13	 32	 33	  1	
05-May-2013	sub2332	2332	  1	  1	 54	  4	  1	  5	  2	  2	  1	  1	  1	0.54469	  1	0.70000	  0	 15	 35	 36	  0	
05-May-2013	sub2332	2332	  1	  1	 55	  4	  1	  2	  1	  3	  1	  2	  1	0.40001	  1	0.70000	  0	 12	 30	 31	  1	
05-May-2013	sub2332	2332	  1	  1	 56	  4	  1	  5	  2	  2	  0	  2	  1	0.47484	  0	0.70000	  0	 15	 47	 38	  1	
05-May-2013	sub2332	2332	  1	  1	 57	  4	  1	  6	  3	  2	  0	  2	  0	0.52767	  1	0.70000	  0	 16	 37	 48	  0	
05-May-2013	sub2332	2332	  1	  1	 58	  4	  1	  5	  2	  2	  0	  1	  0	0.48236	  1	0.70000	  0	 15	 37	 48	  1	
05-May-2013	sub2332	2332	  1	  1	 59	  4	  1	  5	  2	  2	  0	  1	  0	0.43889	  1	0.70000	  0	 15	 37	 48	  1	
05-May-2013	sub2332	2332	  1	  1	 60	  4	  1	  6	  3	  2	  0	  2	  0	0.40162	  1	0.70000	  0	 16	 37	 48	  1	
05-May-2013	sub2332	2332	  1	  1	 61	  4	  1	  4	  5	  4	  1	  1	  0	0.44163	  0	0.60000	  0	 14	 42	 43	  1	
05-May-2013	sub2332	2332	  1	  1	 62	  4	  1	  6	  3	  2	  1	  2	  1	0.42286	  1	0.60000	  0	 16	 35	 36	  1	
05-May-2013	sub2332	2332	  1	  1	 63	  4	  1	  3	  4	  4	  1	  1	  1	0.45473	  1	0.60000	  0	 13	 32	 33	  1	
05-May-2013	sub2332	2332	  1	  1	 64	  4	  1	  2	  1	  3	  1	  2	  1	0.49822	  1	0.60000	  0	 12	 30	 31	  1	
05-May-2013	sub2332	2332	  1	  1	 65	  4	  1	  4	  5	  4	  1	  2	  1	0.47442	  1	0.60000	  0	 14	 32	 33	  1	
05-May-2013	sub2332	2332	  1	  1	 66	  4	  1	  4	  5	  4	  1	  2	  1	0.45451	  1	0.60000	  0	 14	 32	 33	  1	
05-May-2013	sub2332	2332	  1	  1	 67	  4	  1	  4	  5	  4	  0	  2	  0	0.38637	  1	0.60000	  0	 14	 34	 49	  1	
05-May-2013	sub2332	2332	  1	  1	 68	  4	  1	  1	  6	  4	  1	  1	  1	0.45852	  1	0.60000	  0	 11	 30	 31	  1	
05-May-2013	sub2332	2332	  1	  1	 69	  4	  1	  3	  4	  4	  1	  2	  0	0.45646	  0	0.60000	  0	 13	 42	 43	  1	
05-May-2013	sub2332	2332	  1	  1	 70	  4	  1	  2	  1	  3	  1	  2	  1	0.40576	  1	0.60000	  0	 12	 30	 31	  1	
05-May-2013	sub2332	2332	  1	  1	 71	  4	  1	  4	  5	  4	  1	  1	  0	0.36268	  0	0.60000	  0	 14	 42	 43	  1	
05-May-2013	sub2332	2332	  1	  1	 72	  4	  1	  3	  4	  4	  1	  1	  1	0.59485	  1	0.60000	  0	 13	 32	 33	  0	
05-May-2013	sub2332	2332	  1	  1	 73	  4	  1	  1	  6	  4	  1	  1	  1	0.53139	  1	0.60000	  0	 11	 30	 31	  0	
05-May-2013	sub2332	2332	  1	  1	 74	  4	  1	  1	  6	  4	  1	  1	  1	0.45078	  1	0.60000	  0	 11	 30	 31	  1	
05-May-2013	sub2332	2332	  1	  1	 75	  4	  1	  4	  5	  4	  1	  2	  1	0.35600	  1	0.60000	  0	 14	 32	 33	  1	
05-May-2013	sub2332	2332	  1	  1	 76	  4	  2	  3	  4	  4	  1	  2	  0	0.37055	  0	0.50000	  0	 23	 82	 83	  1	
05-May-2013	sub2332	2332	  1	  1	 77	  4	  2	  3	  4	  4	  0	  1	  0	0.43659	  1	0.50000	  0	 23	 64	 89	  1	
05-May-2013	sub2332	2332	  1	  1	 78	  4	  2	  1	  6	  4	  1	  1	  1	0.47630	  1	0.50000	  0	 21	 60	 61	  1	
05-May-2013	sub2332	2332	  1	  1	 79	  4	  2	  3	  4	  4	  1	  1	  1	0.35039	  1	0.50000	  0	 23	 62	 63	  1	
05-May-2013	sub2332	2332	  1	  1	 80	  4	  2	  3	  4	  4	  1	  1	  1	0.39054	  1	0.50000	  0	 23	 62	 63	  1	
05-May-2013	sub2332	2332	  1	  1	 81	  4	  2	  6	  3	  2	  0	  2	  0	0.37701	  1	0.50000	  0	 26	 67	 88	  1	
05-May-2013	sub2332	2332	  1	  1	 82	  4	  2	  5	  2	  2	  0	  1	  0	0.44136	  1	0.50000	  0	 25	 67	 88	  1	
05-May-2013	sub2332	2332	  1	  1	 83	  4	  2	  1	  6	  4	  1	  1	  1	0.57490	  1	0.50000	  1	 21	 60	 51	  0	
05-May-2013	sub2332	2332	  1	  1	 84	  4	  2	  2	  1	  3	  1	  2	  1	0.53188	  1	0.60000	  0	 22	 60	 61	  0	
05-May-2013	sub2332	2332	  1	  1	 85	  4	  2	  5	  2	  2	  0	  1	  0	0.55201	  1	0.60000	  0	 25	 67	 88	  0	
05-May-2013	sub2332	2332	  1	  1	 86	  4	  2	  2	  1	  3	  1	  2	  1	0.49540	  1	0.60000	  0	 22	 60	 61	  1	
05-May-2013	sub2332	2332	  1	  1	 87	  4	  2	  4	  5	  4	  1	  2	  1	0.53789	  1	0.60000	  0	 24	 62	 63	  0	
05-May-2013	sub2332	2332	  1	  1	 88	  4	  2	  6	  3	  2	  0	  2	  0	0.39967	  1	0.60000	  0	 26	 67	 88	  1	
05-May-2013	sub2332	2332	  1	  1	 89	  4	  2	  6	  3	  2	  0	  2	  0	0.37479	  1	0.60000	  0	 26	 67	 88	  1	
05-May-2013	sub2332	2332	  1	  1	 90	  4	  2	  4	  5	  4	  0	  1	  1	0.37737	  0	0.60000	  0	 24	 84	 69	  1	
05-May-2013	sub2332	2332	  1	  1	 91	  4	  2	  2	  1	  3	  1	  2	  1	0.43147	  1	0.60000	  0	 22	 60	 61	  1	
05-May-2013	sub2332	2332	  1	  1	 92	  4	  2	  1	  6	  4	  1	  1	  1	0.48575	  1	0.60000	  0	 21	 60	 61	  1	
05-May-2013	sub2332	2332	  1	  1	 93	  4	  2	  2	  1	  3	  1	  2	  1	0.42312	  1	0.60000	  0	 22	 60	 61	  1	
05-May-2013	sub2332	2332	  1	  1	 94	  4	  2	  4	  5	  4	  1	  2	  1	0.42455	  1	0.60000	  0	 24	 62	 63	  1	
05-May-2013	sub2332	2332	  1	  1	 95	  4	  2	  3	  4	  4	  1	  1	  1	0.47005	  1	0.60000	  0	 23	 62	 63	  1	
05-May-2013	sub2332	2332	  1	  1	 96	  4	  2	  5	  2	  2	  0	  1	  0	0.43042	  1	0.60000	  0	 25	 67	 88	  1	
05-May-2013	sub2332	2332	  1	  1	 97	  4	  2	  3	  4	  4	  0	  1	  0	0.41041	  1	0.60000	  0	 23	 64	 89	  1	
05-May-2013	sub2332	2332	  1	  1	 98	  4	  2	  3	  4	  4	  1	  1	  1	0.42276	  1	0.60000	  0	 23	 62	 63	  1	
05-May-2013	sub2332	2332	  1	  1	 99	  4	  2	  6	  3	  2	  1	  1	  0	0.35754	  0	0.60000	  0	 26	 85	 86	  1	
05-May-2013	sub2332	2332	  1	  1	100	  4	  2	  5	  2	  2	  0	  1	  0	0.41421	  1	0.60000	  0	 25	 67	 88	  1	
05-May-2013	sub2332	2332	  1	  1	101	  4	  2	  2	  1	  3	  1	  2	  1	0.43370	  1	0.50000	  0	 22	 60	 61	  1	
05-May-2013	sub2332	2332	  1	  1	102	  4	  2	  2	  1	  3	  1	  2	  1	0.38808	  1	0.50000	  0	 22	 60	 61	  1	
05-May-2013	sub2332	2332	  1	  1	103	  4	  2	  3	  4	  4	  1	  1	  1	0.55160	  1	0.50000	  1	 23	 62	 51	  0	
05-May-2013	sub2332	2332	  1	  1	104	  4	  2	  1	  6	  4	  1	  1	  1	0.44083	  1	0.60000	  0	 21	 60	 61	  1	
05-May-2013	sub2332	2332	  1	  1	105	  4	  2	  1	  6	  4	  1	  1	  1	0.34819	  1	0.60000	  0	 21	 60	 61	  1	
05-May-2013	sub2332	2332	  1	  1	106	  4	  2	  1	  6	  4	  1	  1	  1	0.38897	  1	0.60000	  0	 21	 60	 61	  1	
05-May-2013	sub2332	2332	  1	  1	107	  4	  2	  4	  5	  4	  1	  2	  1	0.54387	  1	0.60000	  0	 24	 62	 63	  0	
05-May-2013	sub2332	2332	  1	  1	108	  4	  2	  2	  1	  3	  1	  2	  1	0.48166	  1	0.60000	  0	 22	 60	 61	  1	
05-May-2013	sub2332	2332	  1	  1	109	  4	  2	  5	  2	  2	  0	  2	  1	0.42189	  0	0.60000	  0	 25	 87	 68	  1	
05-May-2013	sub2332	2332	  1	  1	110	  4	  2	  6	  3	  2	  1	  2	  1	0.42975	  1	0.60000	  0	 26	 65	 66	  1	
05-May-2013	sub2332	2332	  1	  1	111	  4	  2	  4	  5	  4	  1	  2	  1	0.53910	  1	0.60000	  0	 24	 62	 63	  0	
05-May-2013	sub2332	2332	  1	  1	112	  4	  2	  2	  1	  3	  1	  2	  1	0.49172	  1	0.60000	  0	 22	 60	 61	  1	
05-May-2013	sub2332	2332	  1	  1	113	  4	  2	  5	  2	  2	  0	  1	  0	0.51911	  1	0.60000	  0	 25	 67	 88	  0	
05-May-2013	sub2332	2332	  1	  1	114	  4	  2	  3	  4	  4	  1	  1	  1	0.66686	  1	0.60000	  1	 23	 62	 51	  0	
05-May-2013	sub2332	2332	  1	  1	115	  4	  2	  6	  3	  2	  0	  2	  0	0.38826	  1	0.70000	  0	 26	 67	 88	  1	
05-May-2013	sub2332	2332	  1	  1	116	  4	  2	  4	  5	  4	  1	  1	  0	0.38168	  0	0.70000	  0	 24	 82	 83	  1	
05-May-2013	sub2332	2332	  1	  1	117	  4	  2	  3	  4	  4	  1	  1	  1	0.47774	  1	0.70000	  0	 23	 62	 63	  1	
05-May-2013	sub2332	2332	  1	  1	118	  4	  2	  1	  6	  4	  1	  1	  1	0.54338	  1	0.70000	  0	 21	 60	 61	  0	
05-May-2013	sub2332	2332	  1	  1	119	  4	  2	  1	  6	  4	  1	  1	  1	0.36332	  1	0.70000	  0	 21	 60	 61	  1	
05-May-2013	sub2332	2332	  1	  1	120	  4	  2	  5	  2	  2	  0	  1	  0	0.47188	  1	0.70000	  0	 25	 67	 88	  1	
05-May-2013	sub2332	2332	  1	  1	121	  4	  2	  6	  3	  2	  0	  2	  0	0.40106	  1	0.60000	  0	 26	 67	 88	  1	
05-May-2013	sub2332	2332	  1	  1	122	  4	  2	  6	  3	  2	  1	  2	  1	0.36550	  1	0.60000	  0	 26	 65	 66	  1	
05-May-2013	sub2332	2332	  1	  1	123	  4	  2	  2	  1	  3	  1	  2	  1	0.43852	  1	0.60000	  0	 22	 60	 61	  1	
05-May-2013	sub2332	2332	  1	  1	124	  4	  2	  1	  6	  4	  1	  1	  1	0.49414	  1	0.60000	  0	 21	 60	 61	  1	
05-May-2013	sub2332	2332	  1	  1	125	  4	  2	  5	  2	  2	  0	  1	  0	0.38256	  1	0.60000	  0	 25	 67	 88	  1	
05-May-2013	sub2332	2332	  1	  1	126	  4	  2	  6	  3	  2	  1	  2	  1	0.37889	  1	0.60000	  0	 26	 65	 66	  1	
05-May-2013	sub2332	2332	  1	  1	127	  4	  2	  3	  4	  4	  1	  1	  1	0.49900	  1	0.60000	  0	 23	 62	 63	  1	
05-May-2013	sub2332	2332	  1	  1	128	  4	  2	  6	  3	  2	  0	  1	  1	0.37123	  0	0.60000	  0	 26	 87	 68	  1	
05-May-2013	sub2332	2332	  1	  1	129	  4	  2	  4	  5	  4	  1	  1	  0	0.41131	  0	0.60000	  0	 24	 82	 83	  1	
05-May-2013	sub2332	2332	  1	  1	130	  4	  2	  2	  1	  3	  1	  2	  1	0.51649	  1	0.60000	  0	 22	 60	 61	  0	
05-May-2013	sub2332	2332	  1	  1	131	  4	  2	  5	  2	  2	  0	  1	  0	0.50539	  1	0.60000	  0	 25	 67	 88	  0	
05-May-2013	sub2332	2332	  1	  1	132	  4	  2	  4	  5	  4	  1	  1	  0	0.45684	  0	0.60000	  0	 24	 82	 83	  1	
05-May-2013	sub2332	2332	  1	  1	133	  4	  2	  4	  5	  4	  0	  2	  0	0.40813	  1	0.60000	  0	 24	 64	 89	  1	
05-May-2013	sub2332	2332	  1	  1	134	  4	  2	  4	  5	  4	  0	  2	  0	0.36045	  1	0.60000	  0	 24	 64	 89	  1	
05-May-2013	sub2332	2332	  1	  1	135	  4	  2	  4	  5	  4	  1	  2	  1	0.37456	  1	0.60000	  0	 24	 62	 63	  1	
05-May-2013	sub2332	2332	  1	  1	136	  4	  2	  2	  1	  3	  1	  2	  1	0.44669	  1	0.60000	  0	 22	 60	 61	  1	
05-May-2013	sub2332	2332	  1	  1	137	  4	  2	  1	  6	  4	  1	  1	  1	0.59398	  1	0.60000	  0	 21	 60	 61	  0	
05-May-2013	sub2332	2332	  1	  1	138	  4	  2	  1	  6	  4	  1	  1	  1	0.54160	  1	0.60000	  0	 21	 60	 61	  0	
05-May-2013	sub2332	2332	  1	  1	139	  4	  2	  4	  5	  4	  1	  2	  1	0.49979	  1	0.60000	  0	 24	 62	 63	  1	
05-May-2013	sub2332	2332	  1	  1	140	  4	  2	  6	  3	  2	  1	  2	  1	0.40012	  1	0.60000	  0	 26	 65	 66	  1	
05-May-2013	sub2332	2332	  1	  1	141	  4	  2	  4	  5	  4	  1	  2	  1	0.38150	  1	0.60000	  0	 24	 62	 63	  1	
05-May-2013	sub2332	2332	  1	  1	142	  4	  2	  5	  2	  2	  0	  1	  0	0.52407	  1	0.60000	  0	 25	 67	 88	  0	
05-May-2013	sub2332	2332	  1	  1	143	  4	  2	  3	  4	  4	  1	  2	  0	0.51158	  0	0.60000	  0	 23	 82	 83	  0	
05-May-2013	sub2332	2332	  1	  1	144	  4	  2	  5	  2	  2	  0	  1	  0	0.40174	  1	0.60000	  0	 25	 67	 88	  1	
05-May-2013	sub2332	2332	  1	  1	145	  4	  2	  5	  2	  2	  0	  1	  0	0.47727	  1	0.60000	  0	 25	 67	 88	  1	
05-May-2013	sub2332	2332	  1	  1	146	  4	  2	  1	  6	  4	  1	  1	  1	0.54112	  1	0.60000	  0	 21	 60	 61	  0	
05-May-2013	sub2332	2332	  1	  1	147	  4	  2	  5	  2	  2	  0	  1	  0	0.33441	  1	0.60000	  0	 25	 67	 88	  1	
05-May-2013	sub2332	2332	  1	  1	148	  4	  2	  1	  6	  4	  1	  1	  1	0.37091	  1	0.60000	  0	 21	 60	 61	  1	
05-May-2013	sub2332	2332	  1	  1	149	  4	  2	  6	  3	  2	  1	  2	  1	0.55716	  1	0.60000	  0	 26	 65	 66	  0	
05-May-2013	sub2332	2332	  1	  1	150	  4	  2	  2	  1	  3	  1	  2	  1	0.51954	  1	0.60000	  0	 22	 60	 61	  0	
05-May-2013	sub2332	2332	  1	  1	  1	  5	  1	  5	  1	  1	  1	  1	  1	0.37280	  1	0.60000	  0	 15	 35	 36	  1	
05-May-2013	sub2332	2332	  1	  1	  2	  5	  1	  4	  2	  5	  1	  1	  0	0.52121	  0	0.30000	  1	 14	 42	 51	  0	
05-May-2013	sub2332	2332	  1	  1	  3	  5	  1	  3	  6	  5	  0	  1	  0	0.36158	  1	0.90000	  0	 13	 34	 49	  1	
05-May-2013	sub2332	2332	  1	  1	  4	  5	  1	  6	  4	  3	  0	  1	  1	0.40856	  0	0.90000	  0	 16	 47	 38	  1	
05-May-2013	sub2332	2332	  1	  1	  5	  5	  1	  4	  2	  5	  1	  1	  0	0.49325	  0	0.90000	  0	 14	 42	 43	  1	
05-May-2013	sub2332	2332	  1	  1	  6	  5	  1	  2	  5	  3	  1	  1	  0	0.37520	  0	0.90000	  0	 12	 40	 41	  1	
05-May-2013	sub2332	2332	  1	  1	  7	  5	  1	  2	  5	  3	  1	  1	  0	0.36098	  0	0.90000	  0	 12	 40	 41	  1	
05-May-2013	sub2332	2332	  1	  1	  8	  5	  1	  6	  4	  3	  1	  1	  0	0.38793	  0	0.90000	  0	 16	 45	 46	  1	
05-May-2013	sub2332	2332	  1	  1	  9	  5	  1	  1	  3	  4	  1	  1	  1	0.33547	  1	0.90000	  0	 11	 30	 31	  1	
05-May-2013	sub2332	2332	  1	  1	 10	  5	  1	  5	  1	  1	  0	  1	  0	0.34488	  1	0.90000	  0	 15	 37	 48	  1	
05-May-2013	sub2332	2332	  1	  1	 11	  5	  1	  5	  1	  1	  0	  2	  1	0.42875	  0	0.90000	  0	 15	 47	 38	  1	
05-May-2013	sub2332	2332	  1	  1	 12	  5	  1	  3	  6	  5	  1	  1	  1	0.45821	  1	0.90000	  0	 13	 32	 33	  1	
05-May-2013	sub2332	2332	  1	  1	 13	  5	  1	  3	  6	  5	  1	  1	  1	0.42683	  1	0.90000	  0	 13	 32	 33	  1	
05-May-2013	sub2332	2332	  1	  1	 14	  5	  1	  3	  6	  5	  0	  1	  0	0.38543	  1	0.90000	  0	 13	 34	 49	  1	
05-May-2013	sub2332	2332	  1	  1	 15	  5	  1	  6	  4	  3	  0	  1	  1	0.38153	  0	0.90000	  0	 16	 47	 38	  1	
05-May-2013	sub2332	2332	  1	  1	 16	  5	  1	  5	  1	  1	  1	  2	  0	0.33519	  0	0.80000	  0	 15	 45	 46	  1	
05-May-2013	sub2332	2332	  1	  1	 17	  5	  1	  5	  1	  1	  0	  2	  1	0.34629	  0	0.80000	  0	 15	 47	 38	  1	
05-May-2013	sub2332	2332	  1	  1	 18	  5	  1	  4	  2	  5	  1	  1	  0	0.45653	  0	0.70000	  0	 14	 42	 43	  1	
05-May-2013	sub2332	2332	  1	  1	 19	  5	  1	  5	  1	  1	  0	  2	  1	0.40114	  0	0.70000	  0	 15	 47	 38	  1	
05-May-2013	sub2332	2332	  1	  1	 20	  5	  1	  2	  5	  3	  1	  1	  0	0.58639	  0	0.70000	  0	 12	 40	 41	  0	
05-May-2013	sub2332	2332	  1	  1	 21	  5	  1	  4	  2	  5	  1	  1	  0	0.39960	  0	0.60000	  0	 14	 42	 43	  1	
05-May-2013	sub2332	2332	  1	  1	 22	  5	  1	  2	  5	  3	  1	  1	  0	0.47726	  0	0.60000	  0	 12	 40	 41	  1	
05-May-2013	sub2332	2332	  1	  1	 23	  5	  1	  4	  2	  5	  1	  1	  0	0.38128	  0	0.60000	  0	 14	 42	 43	  1	
05-May-2013	sub2332	2332	  1	  1	 24	  5	  1	  6	  4	  3	  1	  2	  1	0.31734	  1	0.60000	  0	 16	 35	 36	  1	
05-May-2013	sub2332	2332	  1	  1	 25	  5	  1	  6	  4	  3	  1	  2	  1	0.53072	  1	0.60000	  0	 16	 35	 36	  0	
05-May-2013	sub2332	2332	  1	  1	 26	  5	  1	  5	  1	  1	  1	  2	  0	0.48718	  0	0.50000	  0	 15	 45	 46	  1	
05-May-2013	sub2332	2332	  1	  1	 27	  5	  1	  4	  2	  5	  1	  2	  1	0.37791	  1	0.50000	  0	 14	 32	 33	  1	
05-May-2013	sub2332	2332	  1	  1	 28	  5	  1	  3	  6	  5	  1	  2	  0	0.35032	  0	0.50000	  0	 13	 42	 43	  1	
05-May-2013	sub2332	2332	  1	  1	 29	  5	  1	  1	  3	  4	  1	  2	  0	0.56282	  0	0.50000	  1	 11	 40	 51	  0	
05-May-2013	sub2332	2332	  1	  1	 30	  5	  1	  5	  1	  1	  1	  2	  0	0.65760	  0	0.80000	  0	 15	 45	 46	  0	
05-May-2013	sub2332	2332	  1	  1	 31	  5	  1	  6	  4	  3	  0	  1	  1	0.45835	  0	0.80000	  0	 16	 47	 38	  1	
05-May-2013	sub2332	2332	  1	  1	 32	  5	  1	  2	  5	  3	  1	  1	  0	0.50744	  0	0.80000	  0	 12	 40	 41	  0	
05-May-2013	sub2332	2332	  1	  1	 33	  5	  1	  3	  6	  5	  1	  2	  0	0.51026	  0	0.80000	  0	 13	 42	 43	  0	
05-May-2013	sub2332	2332	  1	  1	 34	  5	  1	  5	  1	  1	  1	  2	  0	0.39806	  0	0.80000	  0	 15	 45	 46	  1	
05-May-2013	sub2332	2332	  1	  1	 35	  5	  1	  3	  6	  5	  1	  1	  1	0.46795	  1	0.70000	  0	 13	 32	 33	  1	
05-May-2013	sub2332	2332	  1	  1	 36	  5	  1	  1	  3	  4	  1	  1	  1	0.46988	  1	0.70000	  0	 11	 30	 31	  1	
05-May-2013	sub2332	2332	  1	  1	 37	  5	  1	  6	  4	  3	  1	  2	  1	0.51940	  1	0.70000	  0	 16	 35	 36	  0	
05-May-2013	sub2332	2332	  1	  1	 38	  5	  1	  6	  4	  3	  0	  2	  0	0.46822	  1	0.70000	  0	 16	 37	 48	  1	
05-May-2013	sub2332	2332	  1	  1	 39	  5	  1	  1	  3	  4	  1	  2	  0	0.50479	  0	0.70000	  0	 11	 40	 41	  0	
05-May-2013	sub2332	2332	  1	  1	 40	  5	  1	  3	  6	  5	  1	  2	  0	0.38484	  0	0.70000	  0	 13	 42	 43	  1	
05-May-2013	sub2332	2332	  1	  1	 41	  5	  1	  4	  2	  5	  1	  1	  0	0.36328	  0	0.60000	  0	 14	 42	 43	  1	
05-May-2013	sub2332	2332	  1	  1	 42	  5	  1	  2	  5	  3	  1	  1	  0	0.19056	  0	0.60000	  0	 12	 40	 41	  1	
05-May-2013	sub2332	2332	  1	  1	 43	  5	  1	  2	  5	  3	  1	  2	  1	0.31295	  1	0.60000	  0	 12	 30	 31	  1	
05-May-2013	sub2332	2332	  1	  1	 44	  5	  1	  5	  1	  1	  1	  2	  0	0.49253	  0	0.60000	  0	 15	 45	 46	  1	
05-May-2013	sub2332	2332	  1	  1	 45	  5	  1	  5	  1	  1	  0	  2	  1	0.54540	  0	0.60000	  0	 15	 47	 38	  0	
05-May-2013	sub2332	2332	  1	  1	 46	  5	  1	  1	  3	  4	  1	  2	  0	0.48797	  0	0.60000	  0	 11	 40	 41	  1	
05-May-2013	sub2332	2332	  1	  1	 47	  5	  1	  6	  4	  3	  0	  1	  1	0.31607	  0	0.60000	  0	 16	 47	 38	  1	
05-May-2013	sub2332	2332	  1	  1	 48	  5	  1	  6	  4	  3	  1	  1	  0	0.43417	  0	0.60000	  0	 16	 45	 46	  1	
05-May-2013	sub2332	2332	  1	  1	 49	  5	  1	  6	  4	  3	  1	  1	  0	0.32950	  0	0.60000	  0	 16	 45	 46	  1	
05-May-2013	sub2332	2332	  1	  1	 50	  5	  1	  1	  3	  4	  1	  2	  0	0.47573	  0	0.60000	  0	 11	 40	 41	  1	
05-May-2013	sub2332	2332	  1	  1	 51	  5	  1	  1	  3	  4	  1	  1	  1	0.38477	  1	0.50000	  0	 11	 30	 31	  1	
05-May-2013	sub2332	2332	  1	  1	 52	  5	  1	  2	  5	  3	  1	  1	  0	0.46125	  0	0.50000	  0	 12	 40	 41	  1	
05-May-2013	sub2332	2332	  1	  1	 53	  5	  1	  4	  2	  5	  0	  2	  0	0.37852	  1	0.50000	  0	 14	 34	 49	  1	
05-May-2013	sub2332	2332	  1	  1	 54	  5	  1	  6	  4	  3	  0	  2	  0	0.32377	  1	0.50000	  0	 16	 37	 48	  1	
05-May-2013	sub2332	2332	  1	  1	 55	  5	  1	  2	  5	  3	  1	  1	  0	0.50160	  0	0.50000	  1	 12	 40	 51	  0	
05-May-2013	sub2332	2332	  1	  1	 56	  5	  1	  1	  3	  4	  1	  1	  1	0.29973	  1	0.70000	  0	 11	 30	 31	  1	
05-May-2013	sub2332	2332	  1	  1	 57	  5	  1	  4	  2	  5	  1	  2	  1	0.38439	  1	0.70000	  0	 14	 32	 33	  1	
05-May-2013	sub2332	2332	  1	  1	 58	  5	  1	  1	  3	  4	  1	  1	  1	0.41750	  1	0.70000	  0	 11	 30	 31	  1	
05-May-2013	sub2332	2332	  1	  1	 59	  5	  1	  2	  5	  3	  1	  1	  0	0.53369	  0	0.70000	  0	 12	 40	 41	  0	
05-May-2013	sub2332	2332	  1	  1	 60	  5	  1	  6	  4	  3	  1	  2	  1	0.55129	  1	0.70000	  0	 16	 35	 36	  0	
05-May-2013	sub2332	2332	  1	  1	 61	  5	  1	  1	  3	  4	  1	  1	  1	0.51478	  1	0.60000	  0	 11	 30	 31	  0	
05-May-2013	sub2332	2332	  1	  1	 62	  5	  1	  3	  6	  5	  0	  1	  0	0.41859	  1	0.60000	  0	 13	 34	 49	  1	
05-May-2013	sub2332	2332	  1	  1	 63	  5	  1	  2	  5	  3	  1	  2	  1	0.44343	  1	0.60000	  0	 12	 30	 31	  1	
05-May-2013	sub2332	2332	  1	  1	 64	  5	  1	  2	  5	  3	  1	  1	  0	0.37751	  0	0.60000	  0	 12	 40	 41	  1	
05-May-2013	sub2332	2332	  1	  1	 65	  5	  1	  3	  6	  5	  1	  1	  1	0.38657	  1	0.60000	  0	 13	 32	 33	  1	
05-May-2013	sub2332	2332	  1	  1	 66	  5	  1	  3	  6	  5	  1	  2	  0	0.22773	  0	0.60000	  0	 13	 42	 43	  1	
05-May-2013	sub2332	2332	  1	  1	 67	  5	  1	  4	  2	  5	  1	  1	  0	0.42204	  0	0.60000	  0	 14	 42	 43	  1	
05-May-2013	sub2332	2332	  1	  1	 68	  5	  1	  4	  2	  5	  0	  2	  0	0.37927	  1	0.60000	  0	 14	 34	 49	  1	
05-May-2013	sub2332	2332	  1	  1	 69	  5	  1	  3	  6	  5	  1	  1	  1	0.43146	  1	0.60000	  0	 13	 32	 33	  1	
05-May-2013	sub2332	2332	  1	  1	 70	  5	  1	  2	  5	  3	  1	  2	  1	0.51191	  1	0.60000	  0	 12	 30	 31	  0	
05-May-2013	sub2332	2332	  1	  1	 71	  5	  1	  4	  2	  5	  1	  2	  1	0.53645	  1	0.60000	  0	 14	 32	 33	  0	
05-May-2013	sub2332	2332	  1	  1	 72	  5	  1	  3	  6	  5	  1	  1	  1	0.42702	  1	0.60000	  0	 13	 32	 33	  1	
05-May-2013	sub2332	2332	  1	  1	 73	  5	  1	  1	  3	  4	  1	  1	  1	0.37814	  1	0.60000	  0	 11	 30	 31	  1	
05-May-2013	sub2332	2332	  1	  1	 74	  5	  1	  5	  1	  1	  0	  2	  1	0.50724	  0	0.60000	  0	 15	 47	 38	  0	
05-May-2013	sub2332	2332	  1	  1	 75	  5	  1	  1	  3	  4	  1	  1	  1	0.46487	  1	0.60000	  0	 11	 30	 31	  1	
05-May-2013	sub2332	2332	  1	  1	 76	  5	  2	  4	  2	  5	  1	  2	  1	0.37348	  1	0.50000	  0	 24	 62	 63	  1	
05-May-2013	sub2332	2332	  1	  1	 77	  5	  2	  6	  4	  3	  0	  1	  1	0.38888	  0	0.50000	  0	 26	 87	 68	  1	
05-May-2013	sub2332	2332	  1	  1	 78	  5	  2	  3	  6	  5	  1	  2	  0	0.36283	  0	0.50000	  0	 23	 82	 83	  1	
05-May-2013	sub2332	2332	  1	  1	 79	  5	  2	  1	  3	  4	  1	  1	  1	0.49789	  1	0.50000	  0	 21	 60	 61	  1	
05-May-2013	sub2332	2332	  1	  1	 80	  5	  2	  5	  1	  1	  0	  1	  0	0.50482	  1	0.50000	  1	 25	 67	 51	  0	
05-May-2013	sub2332	2332	  1	  1	 81	  5	  2	  2	  5	  3	  1	  1	  0	0.43610	  0	0.60000	  0	 22	 80	 81	  1	
05-May-2013	sub2332	2332	  1	  1	 82	  5	  2	  2	  5	  3	  1	  2	  1	0.49864	  1	0.60000	  0	 22	 60	 61	  1	
05-May-2013	sub2332	2332	  1	  1	 83	  5	  2	  5	  1	  1	  0	  2	  1	0.45590	  0	0.60000	  0	 25	 87	 68	  1	
05-May-2013	sub2332	2332	  1	  1	 84	  5	  2	  6	  4	  3	  1	  1	  0	0.48724	  0	0.60000	  0	 26	 85	 86	  1	
05-May-2013	sub2332	2332	  1	  1	 85	  5	  2	  4	  2	  5	  1	  2	  1	0.48374	  1	0.60000	  0	 24	 62	 63	  1	
05-May-2013	sub2332	2332	  1	  1	 86	  5	  2	  6	  4	  3	  1	  1	  0	0.52233	  0	0.60000	  0	 26	 85	 86	  0	
05-May-2013	sub2332	2332	  1	  1	 87	  5	  2	  3	  6	  5	  1	  2	  0	0.39450	  0	0.60000	  0	 23	 82	 83	  1	
05-May-2013	sub2332	2332	  1	  1	 88	  5	  2	  5	  1	  1	  0	  2	  1	0.44912	  0	0.60000	  0	 25	 87	 68	  1	
05-May-2013	sub2332	2332	  1	  1	 89	  5	  2	  1	  3	  4	  1	  2	  0	0.52658	  0	0.60000	  0	 21	 80	 81	  0	
05-May-2013	sub2332	2332	  1	  1	 90	  5	  2	  4	  2	  5	  1	  1	  0	0.47173	  0	0.60000	  0	 24	 82	 83	  1	
05-May-2013	sub2332	2332	  1	  1	 91	  5	  2	  2	  5	  3	  1	  2	  1	0.50264	  1	0.60000	  0	 22	 60	 61	  0	
05-May-2013	sub2332	2332	  1	  1	 92	  5	  2	  6	  4	  3	  0	  1	  1	0.44297	  0	0.60000	  0	 26	 87	 68	  1	
05-May-2013	sub2332	2332	  1	  1	 93	  5	  2	  2	  5	  3	  1	  2	  1	0.54191	  1	0.60000	  0	 22	 60	 61	  0	
05-May-2013	sub2332	2332	  1	  1	 94	  5	  2	  2	  5	  3	  1	  2	  1	0.41263	  1	0.60000	  0	 22	 60	 61	  1	
05-May-2013	sub2332	2332	  1	  1	 95	  5	  2	  5	  1	  1	  0	  2	  1	0.42729	  0	0.60000	  0	 25	 87	 68	  1	
05-May-2013	sub2332	2332	  1	  1	 96	  5	  2	  4	  2	  5	  0	  2	  0	0.41579	  1	0.60000	  0	 24	 64	 89	  1	
05-May-2013	sub2332	2332	  1	  1	 97	  5	  2	  6	  4	  3	  1	  1	  0	0.67963	  0	0.60000	  1	 26	 85	 51	  0	
05-May-2013	sub2332	2332	  1	  1	 98	  5	  2	  2	  5	  3	  1	  2	  1	0.41944	  1	0.70000	  0	 22	 60	 61	  1	
05-May-2013	sub2332	2332	  1	  1	 99	  5	  2	  2	  5	  3	  1	  2	  1	0.35666	  1	0.70000	  0	 22	 60	 61	  1	
05-May-2013	sub2332	2332	  1	  1	100	  5	  2	  1	  3	  4	  1	  1	  1	0.36450	  1	0.70000	  0	 21	 60	 61	  1	
05-May-2013	sub2332	2332	  1	  1	101	  5	  2	  1	  3	  4	  1	  1	  1	0.42627	  1	0.60000	  0	 21	 60	 61	  1	
05-May-2013	sub2332	2332	  1	  1	102	  5	  2	  2	  5	  3	  1	  2	  1	0.38882	  1	0.60000	  0	 22	 60	 61	  1	
05-May-2013	sub2332	2332	  1	  1	103	  5	  2	  1	  3	  4	  1	  1	  1	0.48565	  1	0.60000	  0	 21	 60	 61	  1	
05-May-2013	sub2332	2332	  1	  1	104	  5	  2	  4	  2	  5	  1	  2	  1	0.45828	  1	0.60000	  0	 24	 62	 63	  1	
05-May-2013	sub2332	2332	  1	  1	105	  5	  2	  5	  1	  1	  0	  1	  0	0.40277	  1	0.60000	  0	 25	 67	 88	  1	
05-May-2013	sub2332	2332	  1	  1	106	  5	  2	  2	  5	  3	  1	  2	  1	0.55849	  1	0.60000	  0	 22	 60	 61	  0	
05-May-2013	sub2332	2332	  1	  1	107	  5	  2	  3	  6	  5	  1	  1	  1	0.48667	  1	0.60000	  0	 23	 62	 63	  1	
05-May-2013	sub2332	2332	  1	  1	108	  5	  2	  4	  2	  5	  1	  2	  1	0.36690	  1	0.60000	  0	 24	 62	 63	  1	
05-May-2013	sub2332	2332	  1	  1	109	  5	  2	  5	  1	  1	  0	  2	  1	0.53535	  0	0.60000	  0	 25	 87	 68	  0	
05-May-2013	sub2332	2332	  1	  1	110	  5	  2	  4	  2	  5	  0	  2	  0	0.48967	  1	0.60000	  0	 24	 64	 89	  1	
05-May-2013	sub2332	2332	  1	  1	111	  5	  2	  1	  3	  4	  1	  1	  1	0.62525	  1	0.60000	  1	 21	 60	 51	  0	
05-May-2013	sub2332	2332	  1	  1	112	  5	  2	  2	  5	  3	  1	  2	  1	0.45771	  1	0.70000	  0	 22	 60	 61	  1	
05-May-2013	sub2332	2332	  1	  1	113	  5	  2	  6	  4	  3	  1	  2	  1	0.44087	  1	0.70000	  0	 26	 65	 66	  1	
05-May-2013	sub2332	2332	  1	  1	114	  5	  2	  1	  3	  4	  1	  1	  1	0.37783	  1	0.70000	  0	 21	 60	 61	  1	
05-May-2013	sub2332	2332	  1	  1	115	  5	  2	  4	  2	  5	  1	  2	  1	0.33151	  1	0.70000	  0	 24	 62	 63	  1	
05-May-2013	sub2332	2332	  1	  1	116	  5	  2	  6	  4	  3	  0	  2	  0	0.47503	  1	0.70000	  0	 26	 67	 88	  1	
05-May-2013	sub2332	2332	  1	  1	117	  5	  2	  6	  4	  3	  0	  2	  0	0.36832	  1	0.70000	  0	 26	 67	 88	  1	
05-May-2013	sub2332	2332	  1	  1	118	  5	  2	  6	  4	  3	  0	  2	  0	0.35964	  1	0.70000	  0	 26	 67	 88	  1	
05-May-2013	sub2332	2332	  1	  1	119	  5	  2	  1	  3	  4	  1	  1	  1	0.43525	  1	0.70000	  0	 21	 60	 61	  1	
05-May-2013	sub2332	2332	  1	  1	120	  5	  2	  3	  6	  5	  1	  2	  0	0.62073	  0	0.70000	  0	 23	 82	 83	  0	
05-May-2013	sub2332	2332	  1	  1	121	  5	  2	  4	  2	  5	  1	  1	  0	0.45252	  0	0.60000	  0	 24	 82	 83	  1	
05-May-2013	sub2332	2332	  1	  1	122	  5	  2	  2	  5	  3	  1	  2	  1	0.58306	  1	0.60000	  0	 22	 60	 61	  0	
05-May-2013	sub2332	2332	  1	  1	123	  5	  2	  5	  1	  1	  0	  2	  1	0.45627	  0	0.60000	  0	 25	 87	 68	  1	
05-May-2013	sub2332	2332	  1	  1	124	  5	  2	  3	  6	  5	  1	  1	  1	0.55093	  1	0.60000	  0	 23	 62	 63	  0	
05-May-2013	sub2332	2332	  1	  1	125	  5	  2	  5	  1	  1	  0	  1	  0	0.46962	  1	0.60000	  0	 25	 67	 88	  1	
05-May-2013	sub2332	2332	  1	  1	126	  5	  2	  5	  1	  1	  0	  2	  1	0.63499	  0	0.60000	  1	 25	 87	 51	  0	
05-May-2013	sub2332	2332	  1	  1	127	  5	  2	  5	  1	  1	  0	  2	  1	0.36555	  0	0.70000	  0	 25	 87	 68	  1	
05-May-2013	sub2332	2332	  1	  1	128	  5	  2	  4	  2	  5	  1	  2	  1	0.43825	  1	0.70000	  0	 24	 62	 63	  1	
05-May-2013	sub2332	2332	  1	  1	129	  5	  2	  3	  6	  5	  1	  2	  0	0.34914	  0	0.70000	  0	 23	 82	 83	  1	
05-May-2013	sub2332	2332	  1	  1	130	  5	  2	  6	  4	  3	  1	  2	  1	0.41881	  1	0.70000	  0	 26	 65	 66	  1	
05-May-2013	sub2332	2332	  1	  1	131	  5	  2	  3	  6	  5	  0	  1	  0	0.84285	  1	0.70000	  1	 23	 64	 51	  0	
05-May-2013	sub2332	2332	  1	  1	132	  5	  2	  1	  3	  4	  1	  1	  1	0.48479	  1	0.80000	  0	 21	 60	 61	  1	
05-May-2013	sub2332	2332	  1	  1	133	  5	  2	  3	  6	  5	  0	  2	  1	0.31733	  0	0.80000	  0	 23	 84	 69	  1	
05-May-2013	sub2332	2332	  1	  1	134	  5	  2	  1	  3	  4	  1	  2	  0	0.43731	  0	0.80000	  0	 21	 80	 81	  1	
05-May-2013	sub2332	2332	  1	  1	135	  5	  2	  1	  3	  4	  1	  1	  1	0.40646	  1	0.70000	  0	 21	 60	 61	  1	
05-May-2013	sub2332	2332	  1	  1	136	  5	  2	  5	  1	  1	  0	  2	  1	0.49128	  0	0.70000	  0	 25	 87	 68	  1	
05-May-2013	sub2332	2332	  1	  1	137	  5	  2	  5	  1	  1	  0	  2	  1	0.50929	  0	0.70000	  0	 25	 87	 68	  0	
05-May-2013	sub2332	2332	  1	  1	138	  5	  2	  5	  1	  1	  0	  2	  1	0.41647	  0	0.70000	  0	 25	 87	 68	  1	
05-May-2013	sub2332	2332	  1	  1	139	  5	  2	  4	  2	  5	  1	  2	  1	0.50822	  1	0.70000	  0	 24	 62	 63	  0	
05-May-2013	sub2332	2332	  1	  1	140	  5	  2	  2	  5	  3	  1	  2	  1	0.50856	  1	0.70000	  0	 22	 60	 61	  0	
05-May-2013	sub2332	2332	  1	  1	141	  5	  2	  4	  2	  5	  1	  2	  1	0.48001	  1	0.70000	  0	 24	 62	 63	  1	
05-May-2013	sub2332	2332	  1	  1	142	  5	  2	  6	  4	  3	  0	  1	  1	0.48954	  0	0.70000	  0	 26	 87	 68	  1	
05-May-2013	sub2332	2332	  1	  1	143	  5	  2	  3	  6	  5	  1	  1	  1	0.55041	  1	0.70000	  0	 23	 62	 63	  0	
05-May-2013	sub2332	2332	  1	  1	144	  5	  2	  6	  4	  3	  1	  1	  0	0.35492	  0	0.70000	  0	 26	 85	 86	  1	
05-May-2013	sub2332	2332	  1	  1	145	  5	  2	  3	  6	  5	  1	  1	  1	0.49103	  1	0.70000	  0	 23	 62	 63	  1	
05-May-2013	sub2332	2332	  1	  1	146	  5	  2	  3	  6	  5	  1	  1	  1	0.47528	  1	0.70000	  0	 23	 62	 63	  1	
05-May-2013	sub2332	2332	  1	  1	147	  5	  2	  3	  6	  5	  1	  1	  1	0.39251	  1	0.70000	  0	 23	 62	 63	  1	
05-May-2013	sub2332	2332	  1	  1	148	  5	  2	  1	  3	  4	  1	  1	  1	0.47868	  1	0.70000	  0	 21	 60	 61	  1	
05-May-2013	sub2332	2332	  1	  1	149	  5	  2	  4	  2	  5	  0	  1	  1	0.38233	  0	0.70000	  0	 24	 84	 69	  1	
05-May-2013	sub2332	2332	  1	  1	150	  5	  2	  1	  3	  4	  1	  1	  1	0.46605	  1	0.70000	  0	 21	 60	 61	  1	
05-May-2013	sub2332	2332	  1	  1	  1	  6	  1	  6	  6	  2	  0	  1	  1	0.37001	  0	0.60000	  0	 16	 47	 38	  1	
05-May-2013	sub2332	2332	  1	  1	  2	  6	  1	  6	  6	  2	  1	  1	  0	0.34017	  0	0.30000	  1	 16	 45	 51	  1	
05-May-2013	sub2332	2332	  1	  1	  3	  6	  1	  4	  5	  1	  1	  2	  1	0.36890	  1	0.90000	  0	 14	 32	 33	  1	
05-May-2013	sub2332	2332	  1	  1	  4	  6	  1	  6	  6	  2	  0	  1	  1	0.46226	  0	0.90000	  0	 16	 47	 38	  1	
05-May-2013	sub2332	2332	  1	  1	  5	  6	  1	  3	  2	  1	  1	  1	  1	0.51544	  1	0.90000	  0	 13	 32	 33	  0	
05-May-2013	sub2332	2332	  1	  1	  6	  6	  1	  5	  1	  2	  0	  2	  1	0.44666	  0	0.90000	  0	 15	 47	 38	  1	
05-May-2013	sub2332	2332	  1	  1	  7	  6	  1	  6	  6	  2	  1	  2	  1	0.42076	  1	0.90000	  0	 16	 35	 36	  1	
05-May-2013	sub2332	2332	  1	  1	  8	  6	  1	  4	  5	  1	  1	  1	  0	0.43746	  0	0.90000	  0	 14	 42	 43	  1	
05-May-2013	sub2332	2332	  1	  1	  9	  6	  1	  5	  1	  2	  1	  1	  1	0.40665	  1	0.90000	  0	 15	 35	 36	  1	
05-May-2013	sub2332	2332	  1	  1	 10	  6	  1	  2	  3	  5	  1	  2	  1	0.48992	  1	0.90000	  0	 12	 30	 31	  1	
05-May-2013	sub2332	2332	  1	  1	 11	  6	  1	  4	  5	  1	  1	  1	  0	0.35829	  0	0.90000	  0	 14	 42	 43	  1	
05-May-2013	sub2332	2332	  1	  1	 12	  6	  1	  4	  5	  1	  1	  1	  0	0.42543	  0	0.90000	  0	 14	 42	 43	  1	
05-May-2013	sub2332	2332	  1	  1	 13	  6	  1	  2	  3	  5	  1	  1	  0	0.47819	  0	0.90000	  0	 12	 40	 41	  1	
05-May-2013	sub2332	2332	  1	  1	 14	  6	  1	  5	  1	  2	  1	  2	  0	0.51027	  0	0.90000	  0	 15	 45	 46	  0	
05-May-2013	sub2332	2332	  1	  1	 15	  6	  1	  5	  1	  2	  0	  2	  1	0.36484	  0	0.90000	  0	 15	 47	 38	  1	
05-May-2013	sub2332	2332	  1	  1	 16	  6	  1	  3	  2	  1	  1	  2	  0	0.48989	  0	0.80000	  0	 13	 42	 43	  1	
05-May-2013	sub2332	2332	  1	  1	 17	  6	  1	  1	  4	  1	  1	  1	  1	0.39870	  1	0.80000	  0	 11	 30	 31	  1	
05-May-2013	sub2332	2332	  1	  1	 18	  6	  1	  2	  3	  5	  1	  2	  1	0.55316	  1	0.70000	  0	 12	 30	 31	  0	
05-May-2013	sub2332	2332	  1	  1	 19	  6	  1	  5	  1	  2	  0	  1	  0	0.56501	  1	0.70000	  0	 15	 37	 48	  0	
05-May-2013	sub2332	2332	  1	  1	 20	  6	  1	  4	  5	  1	  1	  1	  0	0.35563	  0	0.70000	  0	 14	 42	 43	  1	
05-May-2013	sub2332	2332	  1	  1	 21	  6	  1	  1	  4	  1	  1	  2	  0	0.44063	  0	0.60000	  0	 11	 40	 41	  1	
05-May-2013	sub2332	2332	  1	  1	 22	  6	  1	  2	  3	  5	  1	  2	  1	0.48484	  1	0.60000	  0	 12	 30	 31	  1	
05-May-2013	sub2332	2332	  1	  1	 23	  6	  1	  3	  2	  1	  1	  1	  1	0.40497	  1	0.60000	  0	 13	 32	 33	  1	
05-May-2013	sub2332	2332	  1	  1	 24	  6	  1	  1	  4	  1	  1	  1	  1	0.55431	  1	0.60000	  0	 11	 30	 31	  0	
05-May-2013	sub2332	2332	  1	  1	 25	  6	  1	  3	  2	  1	  1	  1	  1	0.39347	  1	0.60000	  0	 13	 32	 33	  1	
05-May-2013	sub2332	2332	  1	  1	 26	  6	  1	  1	  4	  1	  1	  2	  0	0.47268	  0	0.50000	  0	 11	 40	 41	  1	
05-May-2013	sub2332	2332	  1	  1	 27	  6	  1	  4	  5	  1	  1	  2	  1	0.51809	  1	0.50000	  1	 14	 32	 51	  0	
05-May-2013	sub2332	2332	  1	  1	 28	  6	  1	  6	  6	  2	  0	  1	  1	0.55982	  0	0.90000	  0	 16	 47	 38	  0	
05-May-2013	sub2332	2332	  1	  1	 29	  6	  1	  1	  4	  1	  1	  1	  1	0.40719	  1	0.90000	  0	 11	 30	 31	  1	
05-May-2013	sub2332	2332	  1	  1	 30	  6	  1	  3	  2	  1	  0	  1	  0	0.34414	  1	0.80000	  0	 13	 34	 49	  1	
05-May-2013	sub2332	2332	  1	  1	 31	  6	  1	  4	  5	  1	  0	  1	  1	0.52588	  0	0.80000	  0	 14	 44	 39	  0	
05-May-2013	sub2332	2332	  1	  1	 32	  6	  1	  5	  1	  2	  0	  2	  1	0.73527	  0	0.80000	  0	 15	 47	 38	  0	
05-May-2013	sub2332	2332	  1	  1	 33	  6	  1	  1	  4	  1	  1	  1	  1	0.61302	  1	0.80000	  0	 11	 30	 31	  0	
05-May-2013	sub2332	2332	  1	  1	 34	  6	  1	  3	  2	  1	  0	  2	  1	0.39236	  0	0.80000	  0	 13	 44	 39	  1	
05-May-2013	sub2332	2332	  1	  1	 35	  6	  1	  2	  3	  5	  1	  2	  1	0.50291	  1	0.70000	  0	 12	 30	 31	  0	
05-May-2013	sub2332	2332	  1	  1	 36	  6	  1	  4	  5	  1	  1	  1	  0	0.50944	  0	0.70000	  0	 14	 42	 43	  0	
05-May-2013	sub2332	2332	  1	  1	 37	  6	  1	  5	  1	  2	  1	  1	  1	0.43941	  1	0.70000	  0	 15	 35	 36	  1	
05-May-2013	sub2332	2332	  1	  1	 38	  6	  1	  6	  6	  2	  0	  1	  1	0.47384	  0	0.70000	  0	 16	 47	 38	  1	
05-May-2013	sub2332	2332	  1	  1	 39	  6	  1	  1	  4	  1	  1	  1	  1	0.41830	  1	0.70000	  0	 11	 30	 31	  1	
05-May-2013	sub2332	2332	  1	  1	 40	  6	  1	  4	  5	  1	  1	  2	  1	0.39328	  1	0.70000	  0	 14	 32	 33	  1	
05-May-2013	sub2332	2332	  1	  1	 41	  6	  1	  6	  6	  2	  0	  1	  1	0.39982	  0	0.60000	  0	 16	 47	 38	  1	
05-May-2013	sub2332	2332	  1	  1	 42	  6	  1	  1	  4	  1	  1	  2	  0	0.37308	  0	0.60000	  0	 11	 40	 41	  1	
05-May-2013	sub2332	2332	  1	  1	 43	  6	  1	  3	  2	  1	  0	  2	  1	0.40483	  0	0.60000	  0	 13	 44	 39	  1	
05-May-2013	sub2332	2332	  1	  1	 44	  6	  1	  4	  5	  1	  1	  2	  1	0.47286	  1	0.60000	  0	 14	 32	 33	  1	
05-May-2013	sub2332	2332	  1	  1	 45	  6	  1	  4	  5	  1	  0	  2	  0	0.47509	  1	0.60000	  0	 14	 34	 49	  1	
05-May-2013	sub2332	2332	  1	  1	 46	  6	  1	  1	  4	  1	  1	  1	  1	0.40805	  1	0.60000	  0	 11	 30	 31	  1	
05-May-2013	sub2332	2332	  1	  1	 47	  6	  1	  2	  3	  5	  1	  2	  1	0.42170	  1	0.60000	  0	 12	 30	 31	  1	
05-May-2013	sub2332	2332	  1	  1	 48	  6	  1	  1	  4	  1	  1	  2	  0	0.41974	  0	0.60000	  0	 11	 40	 41	  1	
05-May-2013	sub2332	2332	  1	  1	 49	  6	  1	  3	  2	  1	  1	  2	  0	0.39580	  0	0.60000	  0	 13	 42	 43	  1	
05-May-2013	sub2332	2332	  1	  1	 50	  6	  1	  2	  3	  5	  1	  2	  1	0.50143	  1	0.60000	  0	 12	 30	 31	  0	
05-May-2013	sub2332	2332	  1	  1	 51	  6	  1	  6	  6	  2	  0	  2	  0	0.39876	  1	0.50000	  0	 16	 37	 48	  1	
05-May-2013	sub2332	2332	  1	  1	 52	  6	  1	  5	  1	  2	  1	  1	  1	0.76660	  1	0.50000	  1	 15	 35	 51	  0	
05-May-2013	sub2332	2332	  1	  1	 53	  6	  1	  1	  4	  1	  1	  1	  1	0.50890	  1	0.70000	  0	 11	 30	 31	  0	
05-May-2013	sub2332	2332	  1	  1	 54	  6	  1	  3	  2	  1	  1	  1	  1	0.39130	  1	0.70000	  0	 13	 32	 33	  1	
05-May-2013	sub2332	2332	  1	  1	 55	  6	  1	  6	  6	  2	  0	  1	  1	0.43045	  0	0.70000	  0	 16	 47	 38	  1	
05-May-2013	sub2332	2332	  1	  1	 56	  6	  1	  2	  3	  5	  1	  2	  1	0.50387	  1	0.70000	  0	 12	 30	 31	  0	
05-May-2013	sub2332	2332	  1	  1	 57	  6	  1	  4	  5	  1	  1	  1	  0	0.37983	  0	0.70000	  0	 14	 42	 43	  1	
05-May-2013	sub2332	2332	  1	  1	 58	  6	  1	  6	  6	  2	  1	  1	  0	0.58507	  0	0.70000	  0	 16	 45	 46	  0	
05-May-2013	sub2332	2332	  1	  1	 59	  6	  1	  5	  1	  2	  0	  2	  1	0.46897	  0	0.70000	  0	 15	 47	 38	  1	
05-May-2013	sub2332	2332	  1	  1	 60	  6	  1	  3	  2	  1	  1	  1	  1	0.51502	  1	0.70000	  0	 13	 32	 33	  0	
05-May-2013	sub2332	2332	  1	  1	 61	  6	  1	  2	  3	  5	  1	  1	  0	0.36558	  0	0.60000	  0	 12	 40	 41	  1	
05-May-2013	sub2332	2332	  1	  1	 62	  6	  1	  1	  4	  1	  1	  2	  0	0.42826	  0	0.60000	  0	 11	 40	 41	  1	
05-May-2013	sub2332	2332	  1	  1	 63	  6	  1	  3	  2	  1	  1	  1	  1	0.36787	  1	0.60000	  0	 13	 32	 33	  1	
05-May-2013	sub2332	2332	  1	  1	 64	  6	  1	  5	  1	  2	  1	  2	  0	0.52682	  0	0.60000	  0	 15	 45	 46	  0	
05-May-2013	sub2332	2332	  1	  1	 65	  6	  1	  5	  1	  2	  0	  1	  0	0.47554	  1	0.60000	  0	 15	 37	 48	  1	
05-May-2013	sub2332	2332	  1	  1	 66	  6	  1	  2	  3	  5	  1	  2	  1	0.55808	  1	0.60000	  0	 12	 30	 31	  0	
05-May-2013	sub2332	2332	  1	  1	 67	  6	  1	  3	  2	  1	  1	  1	  1	0.59494	  1	0.60000	  0	 13	 32	 33	  0	
05-May-2013	sub2332	2332	  1	  1	 68	  6	  1	  5	  1	  2	  1	  2	  0	0.48959	  0	0.60000	  0	 15	 45	 46	  1	
05-May-2013	sub2332	2332	  1	  1	 69	  6	  1	  3	  2	  1	  1	  1	  1	0.50734	  1	0.60000	  0	 13	 32	 33	  0	
05-May-2013	sub2332	2332	  1	  1	 70	  6	  1	  6	  6	  2	  1	  2	  1	0.28772	  1	0.60000	  0	 16	 35	 36	  1	
05-May-2013	sub2332	2332	  1	  1	 71	  6	  1	  2	  3	  5	  1	  2	  1	0.52704	  1	0.60000	  0	 12	 30	 31	  0	
05-May-2013	sub2332	2332	  1	  1	 72	  6	  1	  6	  6	  2	  1	  2	  1	0.46019	  1	0.60000	  0	 16	 35	 36	  1	
05-May-2013	sub2332	2332	  1	  1	 73	  6	  1	  2	  3	  5	  1	  2	  1	0.43404	  1	0.60000	  0	 12	 30	 31	  1	
05-May-2013	sub2332	2332	  1	  1	 74	  6	  1	  6	  6	  2	  1	  2	  1	0.35237	  1	0.60000	  0	 16	 35	 36	  1	
05-May-2013	sub2332	2332	  1	  1	 75	  6	  1	  2	  3	  5	  1	  2	  1	0.36283	  1	0.60000	  0	 12	 30	 31	  1	
05-May-2013	sub2332	2332	  1	  1	 76	  6	  2	  5	  1	  2	  0	  2	  1	0.47357	  0	0.50000	  0	 25	 87	 68	  1	
05-May-2013	sub2332	2332	  1	  1	 77	  6	  2	  4	  5	  1	  1	  1	  0	0.41156	  0	0.50000	  0	 24	 82	 83	  1	
05-May-2013	sub2332	2332	  1	  1	 78	  6	  2	  4	  5	  1	  1	  1	  0	0.39136	  0	0.50000	  0	 24	 82	 83	  1	
05-May-2013	sub2332	2332	  1	  1	 79	  6	  2	  6	  6	  2	  1	  2	  1	0.57902	  1	0.50000	  1	 26	 65	 51	  0	
05-May-2013	sub2332	2332	  1	  1	 80	  6	  2	  2	  3	  5	  1	  2	  1	0.50861	  1	0.70000	  0	 22	 60	 61	  0	
05-May-2013	sub2332	2332	  1	  1	 81	  6	  2	  6	  6	  2	  0	  2	  0	0.41621	  1	0.60000	  0	 26	 67	 88	  1	
05-May-2013	sub2332	2332	  1	  1	 82	  6	  2	  2	  3	  5	  1	  2	  1	0.51380	  1	0.60000	  0	 22	 60	 61	  0	
05-May-2013	sub2332	2332	  1	  1	 83	  6	  2	  5	  1	  2	  0	  2	  1	0.51191	  0	0.60000	  0	 25	 87	 68	  0	
05-May-2013	sub2332	2332	  1	  1	 84	  6	  2	  1	  4	  1	  1	  2	  0	0.41210	  0	0.60000	  0	 21	 80	 81	  1	
05-May-2013	sub2332	2332	  1	  1	 85	  6	  2	  1	  4	  1	  1	  1	  1	0.41974	  1	0.60000	  0	 21	 60	 61	  1	
05-May-2013	sub2332	2332	  1	  1	 86	  6	  2	  3	  2	  1	  1	  2	  0	0.40346	  0	0.60000	  0	 23	 82	 83	  1	
05-May-2013	sub2332	2332	  1	  1	 87	  6	  2	  6	  6	  2	  1	  2	  1	0.48774	  1	0.60000	  0	 26	 65	 66	  1	
05-May-2013	sub2332	2332	  1	  1	 88	  6	  2	  2	  3	  5	  1	  2	  1	0.49869	  1	0.60000	  0	 22	 60	 61	  1	
05-May-2013	sub2332	2332	  1	  1	 89	  6	  2	  1	  4	  1	  1	  2	  0	0.44199	  0	0.60000	  0	 21	 80	 81	  1	
05-May-2013	sub2332	2332	  1	  1	 90	  6	  2	  3	  2	  1	  1	  1	  1	0.41236	  1	0.60000	  0	 23	 62	 63	  1	
05-May-2013	sub2332	2332	  1	  1	 91	  6	  2	  1	  4	  1	  1	  1	  1	0.35712	  1	0.60000	  0	 21	 60	 61	  1	
05-May-2013	sub2332	2332	  1	  1	 92	  6	  2	  4	  5	  1	  1	  2	  1	0.50440	  1	0.60000	  0	 24	 62	 63	  0	
05-May-2013	sub2332	2332	  1	  1	 93	  6	  2	  3	  2	  1	  1	  1	  1	0.53446	  1	0.60000	  0	 23	 62	 63	  0	
05-May-2013	sub2332	2332	  1	  1	 94	  6	  2	  2	  3	  5	  1	  2	  1	0.43603	  1	0.60000	  0	 22	 60	 61	  1	
05-May-2013	sub2332	2332	  1	  1	 95	  6	  2	  5	  1	  2	  0	  2	  1	0.45643	  0	0.60000	  0	 25	 87	 68	  1	
05-May-2013	sub2332	2332	  1	  1	 96	  6	  2	  4	  5	  1	  1	  2	  1	0.45077	  1	0.60000	  0	 24	 62	 63	  1	
05-May-2013	sub2332	2332	  1	  1	 97	  6	  2	  1	  4	  1	  1	  2	  0	0.37468	  0	0.60000	  0	 21	 80	 81	  1	
05-May-2013	sub2332	2332	  1	  1	 98	  6	  2	  5	  1	  2	  0	  2	  1	0.49601	  0	0.60000	  0	 25	 87	 68	  1	
05-May-2013	sub2332	2332	  1	  1	 99	  6	  2	  5	  1	  2	  0	  2	  1	0.47072	  0	0.60000	  0	 25	 87	 68	  1	
05-May-2013	sub2332	2332	  1	  1	100	  6	  2	  6	  6	  2	  1	  1	  0	0.44683	  0	0.60000	  0	 26	 85	 86	  1	
05-May-2013	sub2332	2332	  1	  1	101	  6	  2	  1	  4	  1	  1	  1	  1	0.49821	  1	0.50000	  0	 21	 60	 61	  1	
05-May-2013	sub2332	2332	  1	  1	102	  6	  2	  6	  6	  2	  0	  2	  0	0.45288	  1	0.50000	  0	 26	 67	 88	  1	
05-May-2013	sub2332	2332	  1	  1	103	  6	  2	  2	  3	  5	  1	  2	  1	0.42492	  1	0.50000	  0	 22	 60	 61	  1	
05-May-2013	sub2332	2332	  1	  1	104	  6	  2	  5	  1	  2	  0	  2	  1	0.45667	  0	0.50000	  0	 25	 87	 68	  1	
05-May-2013	sub2332	2332	  1	  1	105	  6	  2	  2	  3	  5	  1	  2	  1	0.44413	  1	0.50000	  0	 22	 60	 61	  1	
05-May-2013	sub2332	2332	  1	  1	106	  6	  2	  3	  2	  1	  1	  1	  1	0.36298	  1	0.50000	  0	 23	 62	 63	  1	
05-May-2013	sub2332	2332	  1	  1	107	  6	  2	  4	  5	  1	  0	  2	  0	0.37900	  1	0.50000	  0	 24	 64	 89	  1	
05-May-2013	sub2332	2332	  1	  1	108	  6	  2	  3	  2	  1	  1	  2	  0	0.40918	  0	0.50000	  0	 23	 82	 83	  1	
05-May-2013	sub2332	2332	  1	  1	109	  6	  2	  4	  5	  1	  1	  2	  1	0.45853	  1	0.50000	  0	 24	 62	 63	  1	
05-May-2013	sub2332	2332	  1	  1	110	  6	  2	  4	  5	  1	  1	  2	  1	0.49453	  1	0.50000	  0	 24	 62	 63	  1	
05-May-2013	sub2332	2332	  1	  1	111	  6	  2	  3	  2	  1	  1	  1	  1	0.46741	  1	0.50000	  0	 23	 62	 63	  1	
05-May-2013	sub2332	2332	  1	  1	112	  6	  2	  6	  6	  2	  0	  2	  0	0.41741	  1	0.50000	  0	 26	 67	 88	  1	
05-May-2013	sub2332	2332	  1	  1	113	  6	  2	  5	  1	  2	  0	  2	  1	0.50302	  0	0.50000	  1	 25	 87	 51	  0	
05-May-2013	sub2332	2332	  1	  1	114	  6	  2	  2	  3	  5	  1	  2	  1	0.49866	  1	0.60000	  0	 22	 60	 61	  1	
05-May-2013	sub2332	2332	  1	  1	115	  6	  2	  1	  4	  1	  1	  1	  1	0.47839	  1	0.60000	  0	 21	 60	 61	  1	
05-May-2013	sub2332	2332	  1	  1	116	  6	  2	  6	  6	  2	  1	  1	  0	0.42781	  0	0.60000	  0	 26	 85	 86	  1	
05-May-2013	sub2332	2332	  1	  1	117	  6	  2	  5	  1	  2	  0	  2	  1	0.39885	  0	0.60000	  0	 25	 87	 68	  1	
05-May-2013	sub2332	2332	  1	  1	118	  6	  2	  4	  5	  1	  1	  2	  1	0.42255	  1	0.60000	  0	 24	 62	 63	  1	
05-May-2013	sub2332	2332	  1	  1	119	  6	  2	  3	  2	  1	  1	  2	  0	0.44236	  0	0.60000	  0	 23	 82	 83	  1	
05-May-2013	sub2332	2332	  1	  1	120	  6	  2	  5	  1	  2	  0	  2	  1	0.45374	  0	0.60000	  0	 25	 87	 68	  1	
05-May-2013	sub2332	2332	  1	  1	121	  6	  2	  3	  2	  1	  0	  2	  1	0.44788	  0	0.60000	  0	 23	 84	 69	  1	
05-May-2013	sub2332	2332	  1	  1	122	  6	  2	  3	  2	  1	  1	  2	  0	0.53711	  0	0.60000	  0	 23	 82	 83	  0	
05-May-2013	sub2332	2332	  1	  1	123	  6	  2	  2	  3	  5	  1	  2	  1	0.48028	  1	0.60000	  0	 22	 60	 61	  1	
05-May-2013	sub2332	2332	  1	  1	124	  6	  2	  3	  2	  1	  1	  1	  1	0.59257	  1	0.60000	  0	 23	 62	 63	  0	
05-May-2013	sub2332	2332	  1	  1	125	  6	  2	  2	  3	  5	  1	  2	  1	0.36931	  1	0.60000	  0	 22	 60	 61	  1	
05-May-2013	sub2332	2332	  1	  1	126	  6	  2	  1	  4	  1	  1	  1	  1	0.33872	  1	0.50000	  0	 21	 60	 61	  1	
05-May-2013	sub2332	2332	  1	  1	127	  6	  2	  4	  5	  1	  0	  1	  1	0.44513	  0	0.50000	  0	 24	 84	 69	  1	
05-May-2013	sub2332	2332	  1	  1	128	  6	  2	  5	  1	  2	  0	  2	  1	0.53534	  0	0.50000	  1	 25	 87	 51	  0	
05-May-2013	sub2332	2332	  1	  1	129	  6	  2	  1	  4	  1	  1	  1	  1	0.51182	  1	0.60000	  0	 21	 60	 61	  0	
05-May-2013	sub2332	2332	  1	  1	130	  6	  2	  2	  3	  5	  1	  2	  1	0.45082	  1	0.60000	  0	 22	 60	 61	  1	
05-May-2013	sub2332	2332	  1	  1	131	  6	  2	  4	  5	  1	  0	  2	  0	0.45033	  1	0.60000	  0	 24	 64	 89	  1	
05-May-2013	sub2332	2332	  1	  1	132	  6	  2	  2	  3	  5	  1	  1	  0	0.46179	  0	0.60000	  0	 22	 80	 81	  1	
05-May-2013	sub2332	2332	  1	  1	133	  6	  2	  5	  1	  2	  0	  2	  1	0.46855	  0	0.60000	  0	 25	 87	 68	  1	
05-May-2013	sub2332	2332	  1	  1	134	  6	  2	  5	  1	  2	  0	  2	  1	0.39915	  0	0.60000	  0	 25	 87	 68	  1	
05-May-2013	sub2332	2332	  1	  1	135	  6	  2	  4	  5	  1	  1	  1	  0	0.46428	  0	0.60000	  0	 24	 82	 83	  1	
05-May-2013	sub2332	2332	  1	  1	136	  6	  2	  5	  1	  2	  0	  2	  1	0.54313	  0	0.60000	  0	 25	 87	 68	  0	
05-May-2013	sub2332	2332	  1	  1	137	  6	  2	  4	  5	  1	  1	  2	  1	0.40187	  1	0.60000	  0	 24	 62	 63	  1	
05-May-2013	sub2332	2332	  1	  1	138	  6	  2	  1	  4	  1	  1	  1	  1	0.50617	  1	0.60000	  0	 21	 60	 61	  0	
05-May-2013	sub2332	2332	  1	  1	139	  6	  2	  2	  3	  5	  1	  2	  1	0.40992	  1	0.60000	  0	 22	 60	 61	  1	
05-May-2013	sub2332	2332	  1	  1	140	  6	  2	  6	  6	  2	  1	  2	  1	0.51003	  1	0.60000	  0	 26	 65	 66	  0	
05-May-2013	sub2332	2332	  1	  1	141	  6	  2	  4	  5	  1	  1	  1	  0	0.42734	  0	0.60000	  0	 24	 82	 83	  1	
05-May-2013	sub2332	2332	  1	  1	142	  6	  2	  3	  2	  1	  1	  1	  1	0.47631	  1	0.60000	  0	 23	 62	 63	  1	
05-May-2013	sub2332	2332	  1	  1	143	  6	  2	  1	  4	  1	  1	  1	  1	0.46019	  1	0.60000	  0	 21	 60	 61	  1	
05-May-2013	sub2332	2332	  1	  1	144	  6	  2	  6	  6	  2	  0	  2	  0	0.40352	  1	0.60000	  0	 26	 67	 88	  1	
05-May-2013	sub2332	2332	  1	  1	145	  6	  2	  6	  6	  2	  0	  1	  1	0.43595	  0	0.60000	  0	 26	 87	 68	  1	
05-May-2013	sub2332	2332	  1	  1	146	  6	  2	  3	  2	  1	  0	  1	  0	0.58431	  1	0.60000	  0	 23	 64	 89	  0	
05-May-2013	sub2332	2332	  1	  1	147	  6	  2	  1	  4	  1	  1	  1	  1	0.36911	  1	0.60000	  0	 21	 60	 61	  1	
05-May-2013	sub2332	2332	  1	  1	148	  6	  2	  6	  6	  2	  0	  1	  1	0.46728	  0	0.60000	  0	 26	 87	 68	  1	
05-May-2013	sub2332	2332	  1	  1	149	  6	  2	  1	  4	  1	  1	  1	  1	0.57605	  1	0.60000	  0	 21	 60	 61	  0	
05-May-2013	sub2332	2332	  1	  1	150	  6	  2	  6	  6	  2	  1	  1	  0	0.35244	  0	0.60000	  0	 26	 85	 86	  1	
