Date 	 Name 	 ID 	 Gender 	 Appearance 	 Trial 	 Block 	 Bin 	 Condition 	 Category 	 Number 	 Valid 	 Keypress 	 Correct 	 RT 	 Realcorrect 	 Deadline 	 Timeout 	 Stimtrigger 	 Resptrigger 	 Fedtrigger 	 WithinTime 	 
05-May-2013	sub2333	2333	  2	  0	  1	  1	  1	  6	  2	  1	  0	  1	  1	1.00717	  0	0.60000	  1	 16	 47	 51	  0	
05-May-2013	sub2333	2333	  2	  0	  2	  1	  1	  5	  3	  3	  1	  1	  1	0.24380	  1	0.90000	  0	 15	 35	 36	  1	
05-May-2013	sub2333	2333	  2	  0	  3	  1	  1	  5	  3	  3	  0	  1	  0	0.74653	  1	0.90000	  0	 15	 37	 48	  0	
05-May-2013	sub2333	2333	  2	  0	  4	  1	  1	  4	  4	  3	  1	  1	  0	1.18090	  0	0.90000	  1	 14	 42	 51	  0	
05-May-2013	sub2333	2333	  2	  0	  5	  1	  1	  1	  5	  2	  1	  1	  1	0.20688	  1	0.90000	  0	 11	 30	 31	  1	
05-May-2013	sub2333	2333	  2	  0	  6	  1	  1	  5	  3	  3	  0	  1	  0	0.24698	  1	0.90000	  0	 15	 37	 48	  1	
05-May-2013	sub2333	2333	  2	  0	  7	  1	  1	  5	  3	  3	  0	  2	  1	0.67092	  0	0.90000	  0	 15	 47	 38	  0	
05-May-2013	sub2333	2333	  2	  0	  8	  1	  1	  3	  6	  4	  0	  1	  0	0.96679	  1	0.90000	  1	 13	 34	 51	  0	
05-May-2013	sub2333	2333	  2	  0	  9	  1	  1	  3	  6	  4	  1	  1	  1	0.37148	  1	0.90000	  0	 13	 32	 33	  1	
05-May-2013	sub2333	2333	  2	  0	 10	  1	  1	  6	  2	  1	  1	  1	  0	0.74929	  0	0.90000	  0	 16	 45	 46	  0	
05-May-2013	sub2333	2333	  2	  0	 11	  1	  1	  4	  4	  3	  1	  2	  1	0.74274	  1	0.90000	  0	 14	 32	 33	  0	
05-May-2013	sub2333	2333	  2	  0	 12	  1	  1	  4	  4	  3	  1	  2	  1	0.45843	  1	0.90000	  0	 14	 32	 33	  1	
05-May-2013	sub2333	2333	  2	  0	 13	  1	  1	  1	  5	  2	  1	  1	  1	0.73205	  1	0.90000	  0	 11	 30	 31	  0	
05-May-2013	sub2333	2333	  2	  0	 14	  1	  1	  3	  6	  4	  0	  1	  0	0.50429	  1	0.90000	  0	 13	 34	 49	  0	
05-May-2013	sub2333	2333	  2	  0	 15	  1	  1	  3	  6	  4	  0	  2	  1	0.39153	  0	0.90000	  0	 13	 44	 39	  1	
05-May-2013	sub2333	2333	  2	  0	 16	  1	  1	  2	  1	  4	  1	  2	  1	0.79036	  1	0.90000	  0	 12	 30	 31	  0	
05-May-2013	sub2333	2333	  2	  0	 17	  1	  1	  2	  1	  4	  1	  2	  1	0.48793	  1	0.90000	  0	 12	 30	 31	  1	
05-May-2013	sub2333	2333	  2	  0	 18	  1	  1	  4	  4	  3	  0	  2	  0	0.71710	  1	0.90000	  0	 14	 34	 49	  0	
05-May-2013	sub2333	2333	  2	  0	 19	  1	  1	  6	  2	  1	  0	  2	  0	0.71396	  1	0.90000	  0	 16	 37	 48	  0	
05-May-2013	sub2333	2333	  2	  0	 20	  1	  1	  3	  6	  4	  1	  2	  0	0.67687	  0	0.90000	  0	 13	 42	 43	  0	
05-May-2013	sub2333	2333	  2	  0	 21	  1	  1	  1	  5	  2	  1	  1	  1	0.44299	  1	0.90000	  0	 11	 30	 31	  1	
05-May-2013	sub2333	2333	  2	  0	 22	  1	  1	  2	  1	  4	  1	  1	  0	0.46086	  0	0.90000	  0	 12	 40	 41	  1	
05-May-2013	sub2333	2333	  2	  0	 23	  1	  1	  2	  1	  4	  1	  2	  1	0.22408	  1	0.90000	  0	 12	 30	 31	  1	
05-May-2013	sub2333	2333	  2	  0	 24	  1	  1	  4	  4	  3	  0	  2	  0	0.68121	  1	0.90000	  0	 14	 34	 49	  0	
05-May-2013	sub2333	2333	  2	  0	 25	  1	  1	  6	  2	  1	  1	  2	  1	0.57856	  1	0.90000	  0	 16	 35	 36	  0	
05-May-2013	sub2333	2333	  2	  0	 26	  1	  1	  6	  2	  1	  1	  1	  0	0.31322	  0	0.90000	  0	 16	 45	 46	  1	
05-May-2013	sub2333	2333	  2	  0	 27	  1	  1	  5	  3	  3	  1	  1	  1	0.89665	  1	0.90000	  0	 15	 35	 36	  0	
05-May-2013	sub2333	2333	  2	  0	 28	  1	  1	  3	  6	  4	  1	  2	  0	0.61901	  0	0.90000	  0	 13	 42	 43	  0	
05-May-2013	sub2333	2333	  2	  0	 29	  1	  1	  2	  1	  4	  1	  2	  1	0.54403	  1	0.90000	  0	 12	 30	 31	  0	
05-May-2013	sub2333	2333	  2	  0	 30	  1	  1	  3	  6	  4	  1	  1	  1	0.42129	  1	0.90000	  0	 13	 32	 33	  1	
05-May-2013	sub2333	2333	  2	  0	 31	  1	  1	  2	  1	  4	  1	  2	  1	0.47140	  1	0.90000	  0	 12	 30	 31	  1	
05-May-2013	sub2333	2333	  2	  0	 32	  1	  1	  1	  5	  2	  1	  1	  1	0.91416	  1	0.90000	  1	 11	 30	 51	  0	
05-May-2013	sub2333	2333	  2	  0	 33	  1	  1	  1	  5	  2	  1	  2	  0	0.59953	  0	0.90000	  0	 11	 40	 41	  0	
05-May-2013	sub2333	2333	  2	  0	 34	  1	  1	  6	  2	  1	  0	  2	  0	0.59153	  1	0.90000	  0	 16	 37	 48	  0	
05-May-2013	sub2333	2333	  2	  0	 35	  1	  1	  5	  3	  3	  1	  1	  1	0.70628	  1	0.90000	  0	 15	 35	 36	  0	
05-May-2013	sub2333	2333	  2	  0	 36	  1	  1	  4	  4	  3	  1	  2	  1	0.48124	  1	0.90000	  0	 14	 32	 33	  1	
05-May-2013	sub2333	2333	  2	  0	 37	  1	  1	  3	  6	  4	  1	  2	  0	0.64053	  0	0.90000	  0	 13	 42	 43	  0	
05-May-2013	sub2333	2333	  2	  0	 38	  1	  1	  6	  2	  1	  1	  2	  1	0.62629	  1	0.90000	  0	 16	 35	 36	  0	
05-May-2013	sub2333	2333	  2	  0	 39	  1	  1	  2	  1	  4	  1	  2	  1	0.55913	  1	0.90000	  0	 12	 30	 31	  0	
05-May-2013	sub2333	2333	  2	  0	 40	  1	  1	  3	  6	  4	  1	  1	  1	0.83593	  1	0.90000	  0	 13	 32	 33	  0	
05-May-2013	sub2333	2333	  2	  0	 41	  1	  1	  1	  5	  2	  1	  2	  0	0.83719	  0	0.90000	  0	 11	 40	 41	  0	
05-May-2013	sub2333	2333	  2	  0	 42	  1	  1	  6	  2	  1	  1	  2	  1	0.64459	  1	0.90000	  0	 16	 35	 36	  0	
05-May-2013	sub2333	2333	  2	  0	 43	  1	  1	  5	  3	  3	  1	  1	  1	0.71887	  1	0.90000	  0	 15	 35	 36	  0	
05-May-2013	sub2333	2333	  2	  0	 44	  1	  1	  4	  4	  3	  1	  2	  1	0.51136	  1	0.90000	  0	 14	 32	 33	  0	
05-May-2013	sub2333	2333	  2	  0	 45	  1	  1	  6	  2	  1	  1	  2	  1	0.65528	  1	0.90000	  0	 16	 35	 36	  0	
05-May-2013	sub2333	2333	  2	  0	 46	  1	  1	  1	  5	  2	  1	  1	  1	0.73979	  1	0.90000	  0	 11	 30	 31	  0	
05-May-2013	sub2333	2333	  2	  0	 47	  1	  1	  2	  1	  4	  1	  2	  1	0.49653	  1	0.90000	  0	 12	 30	 31	  1	
05-May-2013	sub2333	2333	  2	  0	 48	  1	  1	  2	  1	  4	  1	  2	  1	0.45154	  1	0.90000	  0	 12	 30	 31	  1	
05-May-2013	sub2333	2333	  2	  0	 49	  1	  1	  2	  1	  4	  1	  2	  1	0.42074	  1	0.90000	  0	 12	 30	 31	  1	
05-May-2013	sub2333	2333	  2	  0	 50	  1	  1	  3	  6	  4	  1	  1	  1	0.89900	  1	0.90000	  0	 13	 32	 33	  0	
05-May-2013	sub2333	2333	  2	  0	 51	  1	  1	  1	  5	  2	  1	  2	  0	0.90577	  0	0.90000	  1	 11	 40	 51	  0	
05-May-2013	sub2333	2333	  2	  0	 52	  1	  1	  1	  5	  2	  1	  1	  1	0.64074	  1	0.90000	  0	 11	 30	 31	  0	
05-May-2013	sub2333	2333	  2	  0	 53	  1	  1	  1	  5	  2	  1	  1	  1	0.33836	  1	0.90000	  0	 11	 30	 31	  1	
05-May-2013	sub2333	2333	  2	  0	 54	  1	  1	  5	  3	  3	  0	  1	  0	0.60647	  1	0.90000	  0	 15	 37	 48	  0	
05-May-2013	sub2333	2333	  2	  0	 55	  1	  1	  3	  6	  4	  1	  1	  1	0.74978	  1	0.90000	  0	 13	 32	 33	  0	
05-May-2013	sub2333	2333	  2	  0	 56	  1	  1	  4	  4	  3	  1	  2	  1	0.79054	  1	0.90000	  0	 14	 32	 33	  0	
05-May-2013	sub2333	2333	  2	  0	 57	  1	  1	  6	  2	  1	  0	  2	  0	0.58263	  1	0.90000	  0	 16	 37	 48	  0	
05-May-2013	sub2333	2333	  2	  0	 58	  1	  1	  1	  5	  2	  1	  1	  1	0.85853	  1	0.90000	  0	 11	 30	 31	  0	
05-May-2013	sub2333	2333	  2	  0	 59	  1	  1	  4	  4	  3	  1	  1	  0	0.62305	  0	0.90000	  0	 14	 42	 43	  0	
05-May-2013	sub2333	2333	  2	  0	 60	  1	  1	  6	  2	  1	  0	  2	  0	0.72559	  1	0.90000	  0	 16	 37	 48	  0	
05-May-2013	sub2333	2333	  2	  0	 61	  1	  1	  4	  4	  3	  1	  1	  0	0.38228	  0	0.90000	  0	 14	 42	 43	  1	
05-May-2013	sub2333	2333	  2	  0	 62	  1	  1	  2	  1	  4	  1	  2	  1	0.56874	  1	0.90000	  0	 12	 30	 31	  0	
05-May-2013	sub2333	2333	  2	  0	 63	  1	  1	  4	  4	  3	  1	  2	  1	0.60746	  1	0.90000	  0	 14	 32	 33	  0	
05-May-2013	sub2333	2333	  2	  0	 64	  1	  1	  4	  4	  3	  1	  2	  1	0.54266	  1	0.90000	  0	 14	 32	 33	  0	
05-May-2013	sub2333	2333	  2	  0	 65	  1	  1	  2	  1	  4	  1	  2	  1	0.54767	  1	0.90000	  0	 12	 30	 31	  0	
05-May-2013	sub2333	2333	  2	  0	 66	  1	  1	  5	  3	  3	  1	  2	  0	0.98937	  0	0.90000	  1	 15	 45	 51	  0	
05-May-2013	sub2333	2333	  2	  0	 67	  1	  1	  1	  5	  2	  1	  1	  1	1.01862	  1	0.90000	  1	 11	 30	 51	  0	
05-May-2013	sub2333	2333	  2	  0	 68	  1	  1	  3	  6	  4	  1	  1	  1	0.26488	  1	0.90000	  0	 13	 32	 33	  1	
05-May-2013	sub2333	2333	  2	  0	 69	  1	  1	  5	  3	  3	  1	  1	  1	0.51952	  1	0.90000	  0	 15	 35	 36	  0	
05-May-2013	sub2333	2333	  2	  0	 70	  1	  1	  6	  2	  1	  1	  1	  0	0.93903	  0	0.90000	  1	 16	 45	 51	  0	
05-May-2013	sub2333	2333	  2	  0	 71	  1	  1	  6	  2	  1	  0	  2	  0	0.28241	  1	0.90000	  0	 16	 37	 48	  1	
05-May-2013	sub2333	2333	  2	  0	 72	  1	  1	  3	  6	  4	  1	  1	  1	0.87091	  1	0.90000	  0	 13	 32	 33	  0	
05-May-2013	sub2333	2333	  2	  0	 73	  1	  1	  5	  3	  3	  0	  1	  0	0.60463	  1	0.90000	  0	 15	 37	 48	  0	
05-May-2013	sub2333	2333	  2	  0	 74	  1	  1	  2	  1	  4	  1	  2	  1	0.56306	  1	0.90000	  0	 12	 30	 31	  0	
05-May-2013	sub2333	2333	  2	  0	 75	  1	  1	  5	  3	  3	  0	  1	  0	1.12872	  1	0.90000	  1	 15	 37	 51	  0	
05-May-2013	sub2333	2333	  2	  0	  1	  2	  1	  5	  2	  3	  1	  1	  1	0.77480	  1	0.60000	  1	 15	 35	 51	  0	
05-May-2013	sub2333	2333	  2	  0	  2	  2	  1	  6	  4	  5	  1	  1	  0	0.24092	  0	0.90000	  0	 16	 45	 46	  1	
05-May-2013	sub2333	2333	  2	  0	  3	  2	  1	  2	  5	  4	  1	  1	  0	0.64665	  0	0.90000	  0	 12	 40	 41	  0	
05-May-2013	sub2333	2333	  2	  0	  4	  2	  1	  3	  6	  2	  1	  2	  0	0.38217	  0	0.90000	  0	 13	 42	 43	  1	
05-May-2013	sub2333	2333	  2	  0	  5	  2	  1	  3	  6	  2	  1	  1	  1	1.03798	  1	0.90000	  1	 13	 32	 51	  0	
05-May-2013	sub2333	2333	  2	  0	  6	  2	  1	  2	  5	  4	  1	  2	  1	1.00890	  1	0.90000	  1	 12	 30	 51	  0	
05-May-2013	sub2333	2333	  2	  0	  7	  2	  1	  4	  3	  5	  1	  2	  1	0.40087	  1	0.90000	  0	 14	 32	 33	  1	
05-May-2013	sub2333	2333	  2	  0	  8	  2	  1	  5	  2	  3	  1	  2	  0	0.49600	  0	0.90000	  0	 15	 45	 46	  1	
05-May-2013	sub2333	2333	  2	  0	  9	  2	  1	  2	  5	  4	  1	  2	  1	0.84223	  1	0.90000	  0	 12	 30	 31	  0	
05-May-2013	sub2333	2333	  2	  0	 10	  2	  1	  1	  1	  1	  1	  2	  0	0.55838	  0	0.90000	  0	 11	 40	 41	  0	
05-May-2013	sub2333	2333	  2	  0	 11	  2	  1	  1	  1	  1	  1	  1	  1	0.48664	  1	0.90000	  0	 11	 30	 31	  1	
05-May-2013	sub2333	2333	  2	  0	 12	  2	  1	  5	  2	  3	  1	  2	  0	0.59291	  0	0.90000	  0	 15	 45	 46	  0	
05-May-2013	sub2333	2333	  2	  0	 13	  2	  1	  3	  6	  2	  0	  1	  0	1.07067	  1	0.90000	  1	 13	 34	 51	  0	
05-May-2013	sub2333	2333	  2	  0	 14	  2	  1	  1	  1	  1	  1	  2	  0	0.58940	  0	0.90000	  0	 11	 40	 41	  0	
05-May-2013	sub2333	2333	  2	  0	 15	  2	  1	  2	  5	  4	  1	  2	  1	0.80771	  1	0.90000	  0	 12	 30	 31	  0	
05-May-2013	sub2333	2333	  2	  0	 16	  2	  1	  3	  6	  2	  1	  2	  0	1.04704	  0	0.90000	  1	 13	 42	 51	  0	
05-May-2013	sub2333	2333	  2	  0	 17	  2	  1	  6	  4	  5	  0	  2	  0	0.25342	  1	0.90000	  0	 16	 37	 48	  1	
05-May-2013	sub2333	2333	  2	  0	 18	  2	  1	  6	  4	  5	  1	  1	  0	0.40825	  0	0.90000	  0	 16	 45	 46	  1	
05-May-2013	sub2333	2333	  2	  0	 19	  2	  1	  5	  2	  3	  0	  1	  0	0.49070	  1	0.90000	  0	 15	 37	 48	  1	
05-May-2013	sub2333	2333	  2	  0	 20	  2	  1	  3	  6	  2	  1	  2	  0	0.88180	  0	0.90000	  0	 13	 42	 43	  0	
05-May-2013	sub2333	2333	  2	  0	 21	  2	  1	  4	  3	  5	  1	  1	  0	0.60690	  0	0.90000	  0	 14	 42	 43	  0	
05-May-2013	sub2333	2333	  2	  0	 22	  2	  1	  1	  1	  1	  1	  2	  0	0.62087	  0	0.90000	  0	 11	 40	 41	  0	
05-May-2013	sub2333	2333	  2	  0	 23	  2	  1	  6	  4	  5	  1	  2	  1	0.85740	  1	0.90000	  0	 16	 35	 36	  0	
05-May-2013	sub2333	2333	  2	  0	 24	  2	  1	  6	  4	  5	  0	  2	  0	0.70275	  1	0.90000	  0	 16	 37	 48	  0	
05-May-2013	sub2333	2333	  2	  0	 25	  2	  1	  1	  1	  1	  1	  2	  0	0.70054	  0	0.90000	  0	 11	 40	 41	  0	
05-May-2013	sub2333	2333	  2	  0	 26	  2	  1	  1	  1	  1	  1	  1	  1	0.47846	  1	0.90000	  0	 11	 30	 31	  1	
05-May-2013	sub2333	2333	  2	  0	 27	  2	  1	  4	  3	  5	  0	  1	  1	1.03407	  0	0.90000	  1	 14	 44	 51	  0	
05-May-2013	sub2333	2333	  2	  0	 28	  2	  1	  6	  4	  5	  1	  1	  0	0.44410	  0	0.90000	  0	 16	 45	 46	  1	
05-May-2013	sub2333	2333	  2	  0	 29	  2	  1	  3	  6	  2	  1	  2	  0	0.76729	  0	0.90000	  0	 13	 42	 43	  0	
05-May-2013	sub2333	2333	  2	  0	 30	  2	  1	  6	  4	  5	  1	  1	  0	0.78890	  0	0.90000	  0	 16	 45	 46	  0	
05-May-2013	sub2333	2333	  2	  0	 31	  2	  1	  5	  2	  3	  0	  2	  1	0.71370	  0	0.90000	  0	 15	 47	 38	  0	
05-May-2013	sub2333	2333	  2	  0	 32	  2	  1	  2	  5	  4	  1	  2	  1	0.72444	  1	0.90000	  0	 12	 30	 31	  0	
05-May-2013	sub2333	2333	  2	  0	 33	  2	  1	  6	  4	  5	  1	  2	  1	1.02197	  1	0.90000	  1	 16	 35	 51	  0	
05-May-2013	sub2333	2333	  2	  0	 34	  2	  1	  3	  6	  2	  1	  1	  1	0.78960	  1	0.90000	  0	 13	 32	 33	  0	
05-May-2013	sub2333	2333	  2	  0	 35	  2	  1	  6	  4	  5	  0	  2	  0	0.48904	  1	0.90000	  0	 16	 37	 48	  1	
05-May-2013	sub2333	2333	  2	  0	 36	  2	  1	  3	  6	  2	  1	  1	  1	0.33305	  1	0.90000	  0	 13	 32	 33	  1	
05-May-2013	sub2333	2333	  2	  0	 37	  2	  1	  6	  4	  5	  0	  1	  1	0.79506	  0	0.90000	  0	 16	 47	 38	  0	
05-May-2013	sub2333	2333	  2	  0	 38	  2	  1	  2	  5	  4	  1	  2	  1	0.78664	  1	0.90000	  0	 12	 30	 31	  0	
05-May-2013	sub2333	2333	  2	  0	 39	  2	  1	  5	  2	  3	  1	  2	  0	0.74165	  0	0.90000	  0	 15	 45	 46	  0	
05-May-2013	sub2333	2333	  2	  0	 40	  2	  1	  4	  3	  5	  1	  2	  1	0.94738	  1	0.90000	  1	 14	 32	 51	  0	
05-May-2013	sub2333	2333	  2	  0	 41	  2	  1	  5	  2	  3	  0	  2	  1	0.44915	  0	0.90000	  0	 15	 47	 38	  1	
05-May-2013	sub2333	2333	  2	  0	 42	  2	  1	  4	  3	  5	  1	  2	  1	0.87010	  1	0.90000	  0	 14	 32	 33	  0	
05-May-2013	sub2333	2333	  2	  0	 43	  2	  1	  2	  5	  4	  1	  2	  1	0.67429	  1	0.90000	  0	 12	 30	 31	  0	
05-May-2013	sub2333	2333	  2	  0	 44	  2	  1	  3	  6	  2	  1	  2	  0	0.68803	  0	0.90000	  0	 13	 42	 43	  0	
05-May-2013	sub2333	2333	  2	  0	 45	  2	  1	  6	  4	  5	  0	  2	  0	7.48953	  1	0.90000	  1	 16	 37	 51	  0	
05-May-2013	sub2333	2333	  2	  0	 46	  2	  1	  4	  3	  5	  1	  1	  0	0.41404	  0	0.90000	  0	 14	 42	 43	  1	
05-May-2013	sub2333	2333	  2	  0	 47	  2	  1	  6	  4	  5	  1	  2	  1	0.75967	  1	0.90000	  0	 16	 35	 36	  0	
05-May-2013	sub2333	2333	  2	  0	 48	  2	  1	  2	  5	  4	  1	  2	  1	0.68396	  1	0.90000	  0	 12	 30	 31	  0	
05-May-2013	sub2333	2333	  2	  0	 49	  2	  1	  2	  5	  4	  1	  2	  1	0.98118	  1	0.90000	  1	 12	 30	 51	  0	
05-May-2013	sub2333	2333	  2	  0	 50	  2	  1	  5	  2	  3	  1	  2	  0	1.37204	  0	0.90000	  1	 15	 45	 51	  0	
05-May-2013	sub2333	2333	  2	  0	 51	  2	  1	  3	  6	  2	  0	  1	  0	0.24561	  1	0.90000	  0	 13	 34	 49	  1	
05-May-2013	sub2333	2333	  2	  0	 52	  2	  1	  4	  3	  5	  1	  1	  0	0.91785	  0	0.90000	  1	 14	 42	 51	  0	
05-May-2013	sub2333	2333	  2	  0	 53	  2	  1	  2	  5	  4	  1	  1	  0	0.37625	  0	0.90000	  0	 12	 40	 41	  1	
05-May-2013	sub2333	2333	  2	  0	 54	  2	  1	  3	  6	  2	  1	  1	  1	0.78866	  1	0.90000	  0	 13	 32	 33	  0	
05-May-2013	sub2333	2333	  2	  0	 55	  2	  1	  4	  3	  5	  0	  2	  0	0.65652	  1	0.90000	  0	 14	 34	 49	  0	
05-May-2013	sub2333	2333	  2	  0	 56	  2	  1	  4	  3	  5	  1	  2	  1	0.39940	  1	0.90000	  0	 14	 32	 33	  1	
05-May-2013	sub2333	2333	  2	  0	 57	  2	  1	  2	  5	  4	  1	  2	  1	0.66995	  1	0.90000	  0	 12	 30	 31	  0	
05-May-2013	sub2333	2333	  2	  0	 58	  2	  1	  1	  1	  1	  1	  2	  0	0.43617	  0	0.90000	  0	 11	 40	 41	  1	
05-May-2013	sub2333	2333	  2	  0	 59	  2	  1	  6	  4	  5	  0	  2	  0	0.85996	  1	0.90000	  0	 16	 37	 48	  0	
05-May-2013	sub2333	2333	  2	  0	 60	  2	  1	  4	  3	  5	  1	  2	  1	0.86337	  1	0.90000	  0	 14	 32	 33	  0	
05-May-2013	sub2333	2333	  2	  0	 61	  2	  1	  1	  1	  1	  1	  2	  0	0.58169	  0	0.90000	  0	 11	 40	 41	  0	
05-May-2013	sub2333	2333	  2	  0	 62	  2	  1	  4	  3	  5	  1	  1	  0	0.65441	  0	0.90000	  0	 14	 42	 43	  0	
05-May-2013	sub2333	2333	  2	  0	 63	  2	  1	  2	  5	  4	  1	  2	  1	0.64842	  1	0.90000	  0	 12	 30	 31	  0	
05-May-2013	sub2333	2333	  2	  0	 64	  2	  1	  5	  2	  3	  0	  2	  1	0.60972	  0	0.90000	  0	 15	 47	 38	  0	
05-May-2013	sub2333	2333	  2	  0	 65	  2	  1	  5	  2	  3	  1	  2	  0	0.68293	  0	0.90000	  0	 15	 45	 46	  0	
05-May-2013	sub2333	2333	  2	  0	 66	  2	  1	  3	  6	  2	  0	  2	  1	0.33522	  0	0.90000	  0	 13	 44	 39	  1	
05-May-2013	sub2333	2333	  2	  0	 67	  2	  1	  1	  1	  1	  1	  2	  0	0.65183	  0	0.90000	  0	 11	 40	 41	  0	
05-May-2013	sub2333	2333	  2	  0	 68	  2	  1	  3	  6	  2	  1	  2	  0	0.79126	  0	0.90000	  0	 13	 42	 43	  0	
05-May-2013	sub2333	2333	  2	  0	 69	  2	  1	  1	  1	  1	  1	  1	  1	0.81712	  1	0.90000	  0	 11	 30	 31	  0	
05-May-2013	sub2333	2333	  2	  0	 70	  2	  1	  1	  1	  1	  1	  1	  1	0.57126	  1	0.90000	  0	 11	 30	 31	  0	
05-May-2013	sub2333	2333	  2	  0	 71	  2	  1	  5	  2	  3	  0	  2	  1	0.76104	  0	0.90000	  0	 15	 47	 38	  0	
05-May-2013	sub2333	2333	  2	  0	 72	  2	  1	  1	  1	  1	  1	  2	  0	0.65236	  0	0.90000	  0	 11	 40	 41	  0	
05-May-2013	sub2333	2333	  2	  0	 73	  2	  1	  5	  2	  3	  0	  2	  1	0.79732	  0	0.90000	  0	 15	 47	 38	  0	
05-May-2013	sub2333	2333	  2	  0	 74	  2	  1	  2	  5	  4	  1	  2	  1	0.79977	  1	0.90000	  0	 12	 30	 31	  0	
05-May-2013	sub2333	2333	  2	  0	 75	  2	  1	  4	  3	  5	  1	  1	  0	0.90099	  0	0.90000	  1	 14	 42	 51	  0	
05-May-2013	sub2333	2333	  2	  0	 76	  2	  2	  4	  3	  5	  1	  1	  0	0.40731	  0	0.90000	  0	 24	 82	 83	  1	
05-May-2013	sub2333	2333	  2	  0	 77	  2	  2	  5	  2	  3	  0	  2	  1	0.77295	  0	0.90000	  0	 25	 87	 68	  0	
05-May-2013	sub2333	2333	  2	  0	 78	  2	  2	  3	  6	  2	  1	  1	  1	1.01288	  1	0.90000	  1	 23	 62	 51	  0	
05-May-2013	sub2333	2333	  2	  0	 79	  2	  2	  4	  3	  5	  1	  1	  0	0.33553	  0	0.90000	  0	 24	 82	 83	  1	
05-May-2013	sub2333	2333	  2	  0	 80	  2	  2	  2	  5	  4	  1	  2	  1	0.61666	  1	0.90000	  0	 22	 60	 61	  0	
05-May-2013	sub2333	2333	  2	  0	 81	  2	  2	  5	  2	  3	  0	  2	  1	0.75387	  0	0.90000	  0	 25	 87	 68	  0	
05-May-2013	sub2333	2333	  2	  0	 82	  2	  2	  4	  3	  5	  1	  2	  1	0.78258	  1	0.90000	  0	 24	 62	 63	  0	
05-May-2013	sub2333	2333	  2	  0	 83	  2	  2	  5	  2	  3	  0	  2	  1	0.85240	  0	0.90000	  0	 25	 87	 68	  0	
05-May-2013	sub2333	2333	  2	  0	 84	  2	  2	  5	  2	  3	  0	  2	  1	0.62142	  0	0.90000	  0	 25	 87	 68	  0	
05-May-2013	sub2333	2333	  2	  0	 85	  2	  2	  2	  5	  4	  1	  2	  1	0.83873	  1	0.90000	  0	 22	 60	 61	  0	
05-May-2013	sub2333	2333	  2	  0	 86	  2	  2	  4	  3	  5	  1	  2	  1	0.70296	  1	0.90000	  0	 24	 62	 63	  0	
05-May-2013	sub2333	2333	  2	  0	 87	  2	  2	  6	  4	  5	  0	  2	  0	0.86400	  1	0.90000	  0	 26	 67	 88	  0	
05-May-2013	sub2333	2333	  2	  0	 88	  2	  2	  6	  4	  5	  0	  1	  1	0.83302	  0	0.90000	  0	 26	 87	 68	  0	
05-May-2013	sub2333	2333	  2	  0	 89	  2	  2	  5	  2	  3	  0	  2	  1	0.71455	  0	0.90000	  0	 25	 87	 68	  0	
05-May-2013	sub2333	2333	  2	  0	 90	  2	  2	  5	  2	  3	  0	  2	  1	0.74336	  0	0.90000	  0	 25	 87	 68	  0	
05-May-2013	sub2333	2333	  2	  0	 91	  2	  2	  2	  5	  4	  1	  2	  1	0.64258	  1	0.90000	  0	 22	 60	 61	  0	
05-May-2013	sub2333	2333	  2	  0	 92	  2	  2	  2	  5	  4	  1	  2	  1	0.50939	  1	0.90000	  0	 22	 60	 61	  0	
05-May-2013	sub2333	2333	  2	  0	 93	  2	  2	  6	  4	  5	  1	  1	  0	1.10298	  0	0.90000	  1	 26	 85	 51	  0	
05-May-2013	sub2333	2333	  2	  0	 94	  2	  2	  4	  3	  5	  1	  2	  1	0.75262	  1	0.90000	  0	 24	 62	 63	  0	
05-May-2013	sub2333	2333	  2	  0	 95	  2	  2	  6	  4	  5	  0	  1	  1	0.71893	  0	0.90000	  0	 26	 87	 68	  0	
05-May-2013	sub2333	2333	  2	  0	 96	  2	  2	  6	  4	  5	  1	  1	  0	0.71369	  0	0.90000	  0	 26	 85	 86	  0	
05-May-2013	sub2333	2333	  2	  0	 97	  2	  2	  3	  6	  2	  0	  2	  1	0.71585	  0	0.90000	  0	 23	 84	 69	  0	
05-May-2013	sub2333	2333	  2	  0	 98	  2	  2	  2	  5	  4	  1	  2	  1	0.67820	  1	0.90000	  0	 22	 60	 61	  0	
05-May-2013	sub2333	2333	  2	  0	 99	  2	  2	  3	  6	  2	  0	  2	  1	0.75512	  0	0.90000	  0	 23	 84	 69	  0	
05-May-2013	sub2333	2333	  2	  0	100	  2	  2	  4	  3	  5	  1	  2	  1	1.10425	  1	0.90000	  1	 24	 62	 51	  0	
05-May-2013	sub2333	2333	  2	  0	101	  2	  2	  2	  5	  4	  1	  2	  1	0.59246	  1	0.90000	  0	 22	 60	 61	  0	
05-May-2013	sub2333	2333	  2	  0	102	  2	  2	  3	  6	  2	  1	  2	  0	0.39589	  0	0.90000	  0	 23	 82	 83	  1	
05-May-2013	sub2333	2333	  2	  0	103	  2	  2	  1	  1	  1	  1	  2	  0	0.45613	  0	0.90000	  0	 21	 80	 81	  1	
05-May-2013	sub2333	2333	  2	  0	104	  2	  2	  2	  5	  4	  1	  2	  1	0.58497	  1	0.90000	  0	 22	 60	 61	  0	
05-May-2013	sub2333	2333	  2	  0	105	  2	  2	  3	  6	  2	  1	  1	  1	0.88609	  1	0.90000	  0	 23	 62	 63	  0	
05-May-2013	sub2333	2333	  2	  0	106	  2	  2	  6	  4	  5	  1	  1	  0	0.69192	  0	0.90000	  0	 26	 85	 86	  0	
05-May-2013	sub2333	2333	  2	  0	107	  2	  2	  1	  1	  1	  1	  1	  1	0.71750	  1	0.90000	  0	 21	 60	 61	  0	
05-May-2013	sub2333	2333	  2	  0	108	  2	  2	  4	  3	  5	  1	  2	  1	0.74525	  1	0.90000	  0	 24	 62	 63	  0	
05-May-2013	sub2333	2333	  2	  0	109	  2	  2	  4	  3	  5	  1	  2	  1	0.57597	  1	0.90000	  0	 24	 62	 63	  0	
05-May-2013	sub2333	2333	  2	  0	110	  2	  2	  4	  3	  5	  1	  2	  1	0.51245	  1	0.90000	  0	 24	 62	 63	  0	
05-May-2013	sub2333	2333	  2	  0	111	  2	  2	  5	  2	  3	  0	  2	  1	0.65222	  0	0.90000	  0	 25	 87	 68	  0	
05-May-2013	sub2333	2333	  2	  0	112	  2	  2	  1	  1	  1	  1	  1	  1	0.82736	  1	0.90000	  0	 21	 60	 61	  0	
05-May-2013	sub2333	2333	  2	  0	113	  2	  2	  2	  5	  4	  1	  2	  1	0.52863	  1	0.90000	  0	 22	 60	 61	  0	
05-May-2013	sub2333	2333	  2	  0	114	  2	  2	  1	  1	  1	  1	  1	  1	0.71510	  1	0.90000	  0	 21	 60	 61	  0	
05-May-2013	sub2333	2333	  2	  0	115	  2	  2	  6	  4	  5	  0	  1	  1	0.60632	  0	0.90000	  0	 26	 87	 68	  0	
05-May-2013	sub2333	2333	  2	  0	116	  2	  2	  2	  5	  4	  1	  2	  1	0.48682	  1	0.90000	  0	 22	 60	 61	  1	
05-May-2013	sub2333	2333	  2	  0	117	  2	  2	  2	  5	  4	  1	  2	  1	0.59198	  1	0.90000	  0	 22	 60	 61	  0	
05-May-2013	sub2333	2333	  2	  0	118	  2	  2	  3	  6	  2	  1	  1	  1	0.73082	  1	0.90000	  0	 23	 62	 63	  0	
05-May-2013	sub2333	2333	  2	  0	119	  2	  2	  1	  1	  1	  1	  1	  1	0.73484	  1	0.90000	  0	 21	 60	 61	  0	
05-May-2013	sub2333	2333	  2	  0	120	  2	  2	  6	  4	  5	  0	  1	  1	0.58888	  0	0.90000	  0	 26	 87	 68	  0	
05-May-2013	sub2333	2333	  2	  0	121	  2	  2	  1	  1	  1	  1	  2	  0	0.80648	  0	0.90000	  0	 21	 80	 81	  0	
05-May-2013	sub2333	2333	  2	  0	122	  2	  2	  1	  1	  1	  1	  1	  1	0.47539	  1	0.90000	  0	 21	 60	 61	  1	
05-May-2013	sub2333	2333	  2	  0	123	  2	  2	  5	  2	  3	  0	  2	  1	0.69475	  0	0.90000	  0	 25	 87	 68	  0	
05-May-2013	sub2333	2333	  2	  0	124	  2	  2	  5	  2	  3	  0	  1	  0	0.79172	  1	0.90000	  0	 25	 67	 88	  0	
05-May-2013	sub2333	2333	  2	  0	125	  2	  2	  3	  6	  2	  1	  1	  1	0.57560	  1	0.90000	  0	 23	 62	 63	  0	
05-May-2013	sub2333	2333	  2	  0	126	  2	  2	  6	  4	  5	  1	  1	  0	0.63804	  0	0.90000	  0	 26	 85	 86	  0	
05-May-2013	sub2333	2333	  2	  0	127	  2	  2	  1	  1	  1	  1	  1	  1	0.68047	  1	0.90000	  0	 21	 60	 61	  0	
05-May-2013	sub2333	2333	  2	  0	128	  2	  2	  4	  3	  5	  0	  2	  0	0.74054	  1	0.90000	  0	 24	 64	 89	  0	
05-May-2013	sub2333	2333	  2	  0	129	  2	  2	  5	  2	  3	  0	  2	  1	0.63430	  0	0.90000	  0	 25	 87	 68	  0	
05-May-2013	sub2333	2333	  2	  0	130	  2	  2	  3	  6	  2	  1	  1	  1	0.66477	  1	0.90000	  0	 23	 62	 63	  0	
05-May-2013	sub2333	2333	  2	  0	131	  2	  2	  5	  2	  3	  0	  2	  1	0.63844	  0	0.90000	  0	 25	 87	 68	  0	
05-May-2013	sub2333	2333	  2	  0	132	  2	  2	  4	  3	  5	  0	  1	  1	0.58313	  0	0.90000	  0	 24	 84	 69	  0	
05-May-2013	sub2333	2333	  2	  0	133	  2	  2	  2	  5	  4	  1	  2	  1	0.62974	  1	0.90000	  0	 22	 60	 61	  0	
05-May-2013	sub2333	2333	  2	  0	134	  2	  2	  1	  1	  1	  1	  1	  1	0.47826	  1	0.90000	  0	 21	 60	 61	  1	
05-May-2013	sub2333	2333	  2	  0	135	  2	  2	  1	  1	  1	  1	  1	  1	0.49095	  1	0.90000	  0	 21	 60	 61	  1	
05-May-2013	sub2333	2333	  2	  0	136	  2	  2	  4	  3	  5	  0	  1	  1	0.70411	  0	0.90000	  0	 24	 84	 69	  0	
05-May-2013	sub2333	2333	  2	  0	137	  2	  2	  6	  4	  5	  1	  1	  0	0.55148	  0	0.90000	  0	 26	 85	 86	  0	
05-May-2013	sub2333	2333	  2	  0	138	  2	  2	  6	  4	  5	  0	  2	  0	0.48892	  1	0.90000	  0	 26	 67	 88	  1	
05-May-2013	sub2333	2333	  2	  0	139	  2	  2	  3	  6	  2	  1	  1	  1	0.60911	  1	0.90000	  0	 23	 62	 63	  0	
05-May-2013	sub2333	2333	  2	  0	140	  2	  2	  1	  1	  1	  1	  1	  1	0.62483	  1	0.90000	  0	 21	 60	 61	  0	
05-May-2013	sub2333	2333	  2	  0	141	  2	  2	  3	  6	  2	  1	  1	  1	0.58150	  1	0.90000	  0	 23	 62	 63	  0	
05-May-2013	sub2333	2333	  2	  0	142	  2	  2	  5	  2	  3	  0	  2	  1	0.81937	  0	0.90000	  0	 25	 87	 68	  0	
05-May-2013	sub2333	2333	  2	  0	143	  2	  2	  6	  4	  5	  1	  1	  0	0.59686	  0	0.90000	  0	 26	 85	 86	  0	
05-May-2013	sub2333	2333	  2	  0	144	  2	  2	  3	  6	  2	  1	  1	  1	0.70642	  1	0.90000	  0	 23	 62	 63	  0	
05-May-2013	sub2333	2333	  2	  0	145	  2	  2	  3	  6	  2	  1	  1	  1	0.48649	  1	0.90000	  0	 23	 62	 63	  1	
05-May-2013	sub2333	2333	  2	  0	146	  2	  2	  1	  1	  1	  1	  1	  1	0.59157	  1	0.90000	  0	 21	 60	 61	  0	
05-May-2013	sub2333	2333	  2	  0	147	  2	  2	  2	  5	  4	  1	  2	  1	0.64916	  1	0.90000	  0	 22	 60	 61	  0	
05-May-2013	sub2333	2333	  2	  0	148	  2	  2	  5	  2	  3	  0	  2	  1	0.59360	  0	0.90000	  0	 25	 87	 68	  0	
05-May-2013	sub2333	2333	  2	  0	149	  2	  2	  4	  3	  5	  1	  1	  0	0.59832	  0	0.90000	  0	 24	 82	 83	  0	
05-May-2013	sub2333	2333	  2	  0	150	  2	  2	  1	  1	  1	  1	  1	  1	0.63676	  1	0.90000	  0	 21	 60	 61	  0	
05-May-2013	sub2333	2333	  2	  0	  1	  3	  1	  4	  2	  5	  1	  1	  0	0.77355	  0	0.60000	  1	 14	 42	 51	  0	
05-May-2013	sub2333	2333	  2	  0	  2	  3	  1	  1	  3	  2	  1	  1	  1	0.47581	  1	0.90000	  0	 11	 30	 31	  1	
05-May-2013	sub2333	2333	  2	  0	  3	  3	  1	  2	  6	  3	  1	  1	  0	0.40812	  0	0.90000	  0	 12	 40	 41	  1	
05-May-2013	sub2333	2333	  2	  0	  4	  3	  1	  6	  4	  2	  0	  1	  1	0.50784	  0	0.90000	  0	 16	 47	 38	  0	
05-May-2013	sub2333	2333	  2	  0	  5	  3	  1	  1	  3	  2	  1	  1	  1	0.40326	  1	0.90000	  0	 11	 30	 31	  1	
05-May-2013	sub2333	2333	  2	  0	  6	  3	  1	  5	  5	  1	  1	  1	  1	0.43469	  1	0.90000	  0	 15	 35	 36	  1	
05-May-2013	sub2333	2333	  2	  0	  7	  3	  1	  4	  2	  5	  0	  2	  0	0.93408	  1	0.90000	  1	 14	 34	 51	  0	
05-May-2013	sub2333	2333	  2	  0	  8	  3	  1	  6	  4	  2	  1	  1	  0	0.56887	  0	0.90000	  0	 16	 45	 46	  0	
05-May-2013	sub2333	2333	  2	  0	  9	  3	  1	  6	  4	  2	  0	  2	  0	0.40543	  1	0.90000	  0	 16	 37	 48	  1	
05-May-2013	sub2333	2333	  2	  0	 10	  3	  1	  5	  5	  1	  0	  1	  0	0.55704	  1	0.90000	  0	 15	 37	 48	  0	
05-May-2013	sub2333	2333	  2	  0	 11	  3	  1	  1	  3	  2	  1	  1	  1	0.44947	  1	0.90000	  0	 11	 30	 31	  1	
05-May-2013	sub2333	2333	  2	  0	 12	  3	  1	  3	  1	  6	  1	  2	  0	0.69140	  0	0.90000	  0	 13	 42	 43	  0	
05-May-2013	sub2333	2333	  2	  0	 13	  3	  1	  1	  3	  2	  1	  1	  1	0.56918	  1	0.90000	  0	 11	 30	 31	  0	
05-May-2013	sub2333	2333	  2	  0	 14	  3	  1	  2	  6	  3	  1	  1	  0	0.61008	  0	0.90000	  0	 12	 40	 41	  0	
05-May-2013	sub2333	2333	  2	  0	 15	  3	  1	  3	  1	  6	  1	  2	  0	0.95901	  0	0.90000	  1	 13	 42	 51	  0	
05-May-2013	sub2333	2333	  2	  0	 16	  3	  1	  2	  6	  3	  1	  1	  0	0.42149	  0	0.90000	  0	 12	 40	 41	  1	
05-May-2013	sub2333	2333	  2	  0	 17	  3	  1	  4	  2	  5	  1	  1	  0	0.60597	  0	0.90000	  0	 14	 42	 43	  0	
05-May-2013	sub2333	2333	  2	  0	 18	  3	  1	  2	  6	  3	  1	  1	  0	0.61076	  0	0.90000	  0	 12	 40	 41	  0	
05-May-2013	sub2333	2333	  2	  0	 19	  3	  1	  4	  2	  5	  1	  2	  1	0.95362	  1	0.90000	  1	 14	 32	 51	  0	
05-May-2013	sub2333	2333	  2	  0	 20	  3	  1	  2	  6	  3	  1	  2	  1	0.71866	  1	0.90000	  0	 12	 30	 31	  0	
05-May-2013	sub2333	2333	  2	  0	 21	  3	  1	  4	  2	  5	  1	  2	  1	0.55395	  1	0.90000	  0	 14	 32	 33	  0	
05-May-2013	sub2333	2333	  2	  0	 22	  3	  1	  3	  1	  6	  1	  2	  0	0.59388	  0	0.90000	  0	 13	 42	 43	  0	
05-May-2013	sub2333	2333	  2	  0	 23	  3	  1	  2	  6	  3	  1	  1	  0	0.81727	  0	0.90000	  0	 12	 40	 41	  0	
05-May-2013	sub2333	2333	  2	  0	 24	  3	  1	  2	  6	  3	  1	  2	  1	0.64031	  1	0.90000	  0	 12	 30	 31	  0	
05-May-2013	sub2333	2333	  2	  0	 25	  3	  1	  4	  2	  5	  1	  2	  1	0.74454	  1	0.90000	  0	 14	 32	 33	  0	
05-May-2013	sub2333	2333	  2	  0	 26	  3	  1	  2	  6	  3	  1	  2	  1	0.45245	  1	0.90000	  0	 12	 30	 31	  1	
05-May-2013	sub2333	2333	  2	  0	 27	  3	  1	  5	  5	  1	  1	  2	  0	0.55157	  0	0.90000	  0	 15	 45	 46	  0	
05-May-2013	sub2333	2333	  2	  0	 28	  3	  1	  2	  6	  3	  1	  2	  1	0.79244	  1	0.90000	  0	 12	 30	 31	  0	
05-May-2013	sub2333	2333	  2	  0	 29	  3	  1	  6	  4	  2	  0	  1	  1	0.68167	  0	0.90000	  0	 16	 47	 38	  0	
05-May-2013	sub2333	2333	  2	  0	 30	  3	  1	  1	  3	  2	  1	  1	  1	0.65800	  1	0.90000	  0	 11	 30	 31	  0	
05-May-2013	sub2333	2333	  2	  0	 31	  3	  1	  3	  1	  6	  0	  1	  0	0.82703	  1	0.90000	  0	 13	 34	 49	  0	
05-May-2013	sub2333	2333	  2	  0	 32	  3	  1	  3	  1	  6	  1	  2	  0	0.40298	  0	0.90000	  0	 13	 42	 43	  1	
05-May-2013	sub2333	2333	  2	  0	 33	  3	  1	  1	  3	  2	  1	  1	  1	0.58420	  1	0.90000	  0	 11	 30	 31	  0	
05-May-2013	sub2333	2333	  2	  0	 34	  3	  1	  1	  3	  2	  1	  1	  1	0.54398	  1	0.90000	  0	 11	 30	 31	  0	
05-May-2013	sub2333	2333	  2	  0	 35	  3	  1	  4	  2	  5	  1	  2	  1	0.62168	  1	0.90000	  0	 14	 32	 33	  0	
05-May-2013	sub2333	2333	  2	  0	 36	  3	  1	  3	  1	  6	  1	  2	  0	0.76535	  0	0.90000	  0	 13	 42	 43	  0	
05-May-2013	sub2333	2333	  2	  0	 37	  3	  1	  3	  1	  6	  1	  1	  1	0.47073	  1	0.90000	  0	 13	 32	 33	  1	
05-May-2013	sub2333	2333	  2	  0	 38	  3	  1	  6	  4	  2	  1	  1	  0	0.72746	  0	0.90000	  0	 16	 45	 46	  0	
05-May-2013	sub2333	2333	  2	  0	 39	  3	  1	  2	  6	  3	  1	  2	  1	0.90262	  1	0.90000	  1	 12	 30	 51	  0	
05-May-2013	sub2333	2333	  2	  0	 40	  3	  1	  4	  2	  5	  1	  2	  1	0.50306	  1	0.90000	  0	 14	 32	 33	  0	
05-May-2013	sub2333	2333	  2	  0	 41	  3	  1	  6	  4	  2	  0	  2	  0	0.44444	  1	0.90000	  0	 16	 37	 48	  1	
05-May-2013	sub2333	2333	  2	  0	 42	  3	  1	  1	  3	  2	  1	  1	  1	0.73404	  1	0.90000	  0	 11	 30	 31	  0	
05-May-2013	sub2333	2333	  2	  0	 43	  3	  1	  5	  5	  1	  0	  2	  1	1.11789	  0	0.90000	  1	 15	 47	 51	  0	
05-May-2013	sub2333	2333	  2	  0	 44	  3	  1	  1	  3	  2	  1	  1	  1	0.57486	  1	0.90000	  0	 11	 30	 31	  0	
05-May-2013	sub2333	2333	  2	  0	 45	  3	  1	  2	  6	  3	  1	  2	  1	0.68519	  1	0.90000	  0	 12	 30	 31	  0	
05-May-2013	sub2333	2333	  2	  0	 46	  3	  1	  6	  4	  2	  1	  2	  1	0.55557	  1	0.90000	  0	 16	 35	 36	  0	
05-May-2013	sub2333	2333	  2	  0	 47	  3	  1	  3	  1	  6	  1	  2	  0	0.74470	  0	0.90000	  0	 13	 42	 43	  0	
05-May-2013	sub2333	2333	  2	  0	 48	  3	  1	  5	  5	  1	  1	  1	  1	0.62517	  1	0.90000	  0	 15	 35	 36	  0	
05-May-2013	sub2333	2333	  2	  0	 49	  3	  1	  5	  5	  1	  0	  1	  0	0.43931	  1	0.90000	  0	 15	 37	 48	  1	
05-May-2013	sub2333	2333	  2	  0	 50	  3	  1	  4	  2	  5	  1	  1	  0	0.37746	  0	0.90000	  0	 14	 42	 43	  1	
05-May-2013	sub2333	2333	  2	  0	 51	  3	  1	  5	  5	  1	  0	  2	  1	0.54192	  0	0.90000	  0	 15	 47	 38	  0	
05-May-2013	sub2333	2333	  2	  0	 52	  3	  1	  5	  5	  1	  1	  2	  0	0.49184	  0	0.90000	  0	 15	 45	 46	  1	
05-May-2013	sub2333	2333	  2	  0	 53	  3	  1	  4	  2	  5	  1	  2	  1	0.44863	  1	0.90000	  0	 14	 32	 33	  1	
05-May-2013	sub2333	2333	  2	  0	 54	  3	  1	  3	  1	  6	  1	  2	  0	0.47684	  0	0.90000	  0	 13	 42	 43	  1	
05-May-2013	sub2333	2333	  2	  0	 55	  3	  1	  4	  2	  5	  0	  1	  1	0.35128	  0	0.90000	  0	 14	 44	 39	  1	
05-May-2013	sub2333	2333	  2	  0	 56	  3	  1	  4	  2	  5	  1	  1	  0	0.44434	  0	0.90000	  0	 14	 42	 43	  1	
05-May-2013	sub2333	2333	  2	  0	 57	  3	  1	  6	  4	  2	  1	  2	  1	0.41684	  1	0.90000	  0	 16	 35	 36	  1	
05-May-2013	sub2333	2333	  2	  0	 58	  3	  1	  2	  6	  3	  1	  2	  1	0.41663	  1	0.90000	  0	 12	 30	 31	  1	
05-May-2013	sub2333	2333	  2	  0	 59	  3	  1	  6	  4	  2	  1	  2	  1	0.43173	  1	0.90000	  0	 16	 35	 36	  1	
05-May-2013	sub2333	2333	  2	  0	 60	  3	  1	  1	  3	  2	  1	  2	  0	0.47456	  0	0.90000	  0	 11	 40	 41	  1	
05-May-2013	sub2333	2333	  2	  0	 61	  3	  1	  6	  4	  2	  0	  2	  0	0.93789	  1	0.90000	  1	 16	 37	 51	  0	
05-May-2013	sub2333	2333	  2	  0	 62	  3	  1	  2	  6	  3	  1	  2	  1	0.63102	  1	0.90000	  0	 12	 30	 31	  0	
05-May-2013	sub2333	2333	  2	  0	 63	  3	  1	  5	  5	  1	  0	  2	  1	0.30709	  0	0.90000	  0	 15	 47	 38	  1	
05-May-2013	sub2333	2333	  2	  0	 64	  3	  1	  6	  4	  2	  1	  2	  1	0.65015	  1	0.90000	  0	 16	 35	 36	  0	
05-May-2013	sub2333	2333	  2	  0	 65	  3	  1	  3	  1	  6	  0	  1	  0	0.48511	  1	0.90000	  0	 13	 34	 49	  1	
05-May-2013	sub2333	2333	  2	  0	 66	  3	  1	  6	  4	  2	  0	  2	  0	0.92524	  1	0.90000	  1	 16	 37	 51	  0	
05-May-2013	sub2333	2333	  2	  0	 67	  3	  1	  6	  4	  2	  1	  2	  1	0.60874	  1	0.90000	  0	 16	 35	 36	  0	
05-May-2013	sub2333	2333	  2	  0	 68	  3	  1	  1	  3	  2	  1	  1	  1	0.80883	  1	0.90000	  0	 11	 30	 31	  0	
05-May-2013	sub2333	2333	  2	  0	 69	  3	  1	  5	  5	  1	  1	  2	  0	0.82143	  0	0.90000	  0	 15	 45	 46	  0	
05-May-2013	sub2333	2333	  2	  0	 70	  3	  1	  3	  1	  6	  1	  2	  0	0.91560	  0	0.90000	  1	 13	 42	 51	  0	
05-May-2013	sub2333	2333	  2	  0	 71	  3	  1	  1	  3	  2	  1	  1	  1	0.65034	  1	0.90000	  0	 11	 30	 31	  0	
05-May-2013	sub2333	2333	  2	  0	 72	  3	  1	  3	  1	  6	  1	  1	  1	0.69688	  1	0.90000	  0	 13	 32	 33	  0	
05-May-2013	sub2333	2333	  2	  0	 73	  3	  1	  5	  5	  1	  0	  1	  0	0.76495	  1	0.90000	  0	 15	 37	 48	  0	
05-May-2013	sub2333	2333	  2	  0	 74	  3	  1	  3	  1	  6	  0	  1	  0	0.91086	  1	0.90000	  1	 13	 34	 51	  0	
05-May-2013	sub2333	2333	  2	  0	 75	  3	  1	  5	  5	  1	  1	  2	  0	0.70645	  0	0.90000	  0	 15	 45	 46	  0	
05-May-2013	sub2333	2333	  2	  0	 76	  3	  2	  1	  3	  2	  1	  1	  1	0.59329	  1	0.90000	  0	 21	 60	 61	  0	
05-May-2013	sub2333	2333	  2	  0	 77	  3	  2	  1	  3	  2	  1	  1	  1	0.50878	  1	0.90000	  0	 21	 60	 61	  0	
05-May-2013	sub2333	2333	  2	  0	 78	  3	  2	  1	  3	  2	  1	  1	  1	0.53442	  1	0.90000	  0	 21	 60	 61	  0	
05-May-2013	sub2333	2333	  2	  0	 79	  3	  2	  4	  2	  5	  1	  2	  1	0.84069	  1	0.90000	  0	 24	 62	 63	  0	
05-May-2013	sub2333	2333	  2	  0	 80	  3	  2	  4	  2	  5	  1	  2	  1	0.57567	  1	0.90000	  0	 24	 62	 63	  0	
05-May-2013	sub2333	2333	  2	  0	 81	  3	  2	  4	  2	  5	  1	  2	  1	0.48815	  1	0.90000	  0	 24	 62	 63	  1	
05-May-2013	sub2333	2333	  2	  0	 82	  3	  2	  3	  1	  6	  1	  1	  1	0.74535	  1	0.90000	  0	 23	 62	 63	  0	
05-May-2013	sub2333	2333	  2	  0	 83	  3	  2	  2	  6	  3	  1	  2	  1	0.68025	  1	0.90000	  0	 22	 60	 61	  0	
05-May-2013	sub2333	2333	  2	  0	 84	  3	  2	  6	  4	  2	  0	  2	  0	0.77264	  1	0.90000	  0	 26	 67	 88	  0	
05-May-2013	sub2333	2333	  2	  0	 85	  3	  2	  2	  6	  3	  1	  2	  1	0.69366	  1	0.90000	  0	 22	 60	 61	  0	
05-May-2013	sub2333	2333	  2	  0	 86	  3	  2	  6	  4	  2	  0	  1	  1	0.45259	  0	0.90000	  0	 26	 87	 68	  1	
05-May-2013	sub2333	2333	  2	  0	 87	  3	  2	  5	  5	  1	  0	  1	  0	0.73155	  1	0.90000	  0	 25	 67	 88	  0	
05-May-2013	sub2333	2333	  2	  0	 88	  3	  2	  2	  6	  3	  1	  2	  1	0.77267	  1	0.90000	  0	 22	 60	 61	  0	
05-May-2013	sub2333	2333	  2	  0	 89	  3	  2	  4	  2	  5	  1	  2	  1	0.75777	  1	0.90000	  0	 24	 62	 63	  0	
05-May-2013	sub2333	2333	  2	  0	 90	  3	  2	  6	  4	  2	  1	  1	  0	0.66201	  0	0.90000	  0	 26	 85	 86	  0	
05-May-2013	sub2333	2333	  2	  0	 91	  3	  2	  4	  2	  5	  1	  2	  1	0.96946	  1	0.90000	  1	 24	 62	 51	  0	
05-May-2013	sub2333	2333	  2	  0	 92	  3	  2	  1	  3	  2	  1	  2	  0	0.48683	  0	0.90000	  0	 21	 80	 81	  1	
05-May-2013	sub2333	2333	  2	  0	 93	  3	  2	  1	  3	  2	  1	  1	  1	0.48207	  1	0.90000	  0	 21	 60	 61	  1	
05-May-2013	sub2333	2333	  2	  0	 94	  3	  2	  6	  4	  2	  1	  2	  1	0.73163	  1	0.90000	  0	 26	 65	 66	  0	
05-May-2013	sub2333	2333	  2	  0	 95	  3	  2	  5	  5	  1	  0	  1	  0	0.87619	  1	0.90000	  0	 25	 67	 88	  0	
05-May-2013	sub2333	2333	  2	  0	 96	  3	  2	  5	  5	  1	  0	  1	  0	0.60434	  1	0.90000	  0	 25	 67	 88	  0	
05-May-2013	sub2333	2333	  2	  0	 97	  3	  2	  5	  5	  1	  0	  2	  1	0.56867	  0	0.90000	  0	 25	 87	 68	  0	
05-May-2013	sub2333	2333	  2	  0	 98	  3	  2	  1	  3	  2	  1	  1	  1	0.64255	  1	0.90000	  0	 21	 60	 61	  0	
05-May-2013	sub2333	2333	  2	  0	 99	  3	  2	  3	  1	  6	  0	  1	  0	0.75831	  1	0.90000	  0	 23	 64	 89	  0	
05-May-2013	sub2333	2333	  2	  0	100	  3	  2	  2	  6	  3	  1	  2	  1	0.60883	  1	0.90000	  0	 22	 60	 61	  0	
05-May-2013	sub2333	2333	  2	  0	101	  3	  2	  6	  4	  2	  1	  1	  0	0.74286	  0	0.90000	  0	 26	 85	 86	  0	
05-May-2013	sub2333	2333	  2	  0	102	  3	  2	  1	  3	  2	  1	  1	  1	0.55451	  1	0.90000	  0	 21	 60	 61	  0	
05-May-2013	sub2333	2333	  2	  0	103	  3	  2	  5	  5	  1	  0	  1	  0	0.93111	  1	0.90000	  1	 25	 67	 51	  0	
05-May-2013	sub2333	2333	  2	  0	104	  3	  2	  3	  1	  6	  1	  2	  0	0.33039	  0	0.90000	  0	 23	 82	 83	  1	
05-May-2013	sub2333	2333	  2	  0	105	  3	  2	  6	  4	  2	  1	  1	  0	0.88266	  0	0.90000	  0	 26	 85	 86	  0	
05-May-2013	sub2333	2333	  2	  0	106	  3	  2	  3	  1	  6	  1	  1	  1	0.71937	  1	0.90000	  0	 23	 62	 63	  0	
05-May-2013	sub2333	2333	  2	  0	107	  3	  2	  1	  3	  2	  1	  1	  1	0.54937	  1	0.90000	  0	 21	 60	 61	  0	
05-May-2013	sub2333	2333	  2	  0	108	  3	  2	  6	  4	  2	  1	  1	  0	0.85851	  0	0.90000	  0	 26	 85	 86	  0	
05-May-2013	sub2333	2333	  2	  0	109	  3	  2	  6	  4	  2	  0	  1	  1	1.23614	  0	0.90000	  1	 26	 87	 51	  0	
05-May-2013	sub2333	2333	  2	  0	110	  3	  2	  3	  1	  6	  1	  1	  1	0.59367	  1	0.90000	  0	 23	 62	 63	  0	
05-May-2013	sub2333	2333	  2	  0	111	  3	  2	  3	  1	  6	  1	  1	  1	0.55820	  1	0.90000	  0	 23	 62	 63	  0	
05-May-2013	sub2333	2333	  2	  0	112	  3	  2	  1	  3	  2	  1	  1	  1	0.57638	  1	0.90000	  0	 21	 60	 61	  0	
05-May-2013	sub2333	2333	  2	  0	113	  3	  2	  2	  6	  3	  1	  2	  1	0.59028	  1	0.90000	  0	 22	 60	 61	  0	
05-May-2013	sub2333	2333	  2	  0	114	  3	  2	  3	  1	  6	  1	  1	  1	0.60062	  1	0.90000	  0	 23	 62	 63	  0	
05-May-2013	sub2333	2333	  2	  0	115	  3	  2	  2	  6	  3	  1	  2	  1	0.65600	  1	0.90000	  0	 22	 60	 61	  0	
05-May-2013	sub2333	2333	  2	  0	116	  3	  2	  5	  5	  1	  0	  1	  0	0.72370	  1	0.90000	  0	 25	 67	 88	  0	
05-May-2013	sub2333	2333	  2	  0	117	  3	  2	  3	  1	  6	  1	  1	  1	0.67926	  1	0.90000	  0	 23	 62	 63	  0	
05-May-2013	sub2333	2333	  2	  0	118	  3	  2	  5	  5	  1	  0	  2	  1	0.52213	  0	0.90000	  0	 25	 87	 68	  0	
05-May-2013	sub2333	2333	  2	  0	119	  3	  2	  4	  2	  5	  1	  2	  1	0.60781	  1	0.90000	  0	 24	 62	 63	  0	
05-May-2013	sub2333	2333	  2	  0	120	  3	  2	  5	  5	  1	  0	  2	  1	0.45084	  0	0.90000	  0	 25	 87	 68	  1	
05-May-2013	sub2333	2333	  2	  0	121	  3	  2	  2	  6	  3	  1	  2	  1	0.66704	  1	0.90000	  0	 22	 60	 61	  0	
05-May-2013	sub2333	2333	  2	  0	122	  3	  2	  2	  6	  3	  1	  2	  1	0.58032	  1	0.90000	  0	 22	 60	 61	  0	
05-May-2013	sub2333	2333	  2	  0	123	  3	  2	  1	  3	  2	  1	  1	  1	0.68125	  1	0.90000	  0	 21	 60	 61	  0	
05-May-2013	sub2333	2333	  2	  0	124	  3	  2	  4	  2	  5	  0	  2	  0	0.41168	  1	0.90000	  0	 24	 64	 89	  1	
05-May-2013	sub2333	2333	  2	  0	125	  3	  2	  3	  1	  6	  1	  1	  1	0.65712	  1	0.90000	  0	 23	 62	 63	  0	
05-May-2013	sub2333	2333	  2	  0	126	  3	  2	  1	  3	  2	  1	  1	  1	0.52533	  1	0.90000	  0	 21	 60	 61	  0	
05-May-2013	sub2333	2333	  2	  0	127	  3	  2	  5	  5	  1	  0	  2	  1	0.62409	  0	0.90000	  0	 25	 87	 68	  0	
05-May-2013	sub2333	2333	  2	  0	128	  3	  2	  3	  1	  6	  1	  1	  1	0.58026	  1	0.90000	  0	 23	 62	 63	  0	
05-May-2013	sub2333	2333	  2	  0	129	  3	  2	  6	  4	  2	  0	  2	  0	0.65795	  1	0.90000	  0	 26	 67	 88	  0	
05-May-2013	sub2333	2333	  2	  0	130	  3	  2	  3	  1	  6	  0	  1	  0	0.52367	  1	0.90000	  0	 23	 64	 89	  0	
05-May-2013	sub2333	2333	  2	  0	131	  3	  2	  5	  5	  1	  0	  2	  1	0.64803	  0	0.90000	  0	 25	 87	 68	  0	
05-May-2013	sub2333	2333	  2	  0	132	  3	  2	  2	  6	  3	  1	  2	  1	0.57071	  1	0.90000	  0	 22	 60	 61	  0	
05-May-2013	sub2333	2333	  2	  0	133	  3	  2	  3	  1	  6	  1	  1	  1	0.61747	  1	0.90000	  0	 23	 62	 63	  0	
05-May-2013	sub2333	2333	  2	  0	134	  3	  2	  2	  6	  3	  1	  2	  1	0.60926	  1	0.90000	  0	 22	 60	 61	  0	
05-May-2013	sub2333	2333	  2	  0	135	  3	  2	  4	  2	  5	  0	  2	  0	0.55388	  1	0.90000	  0	 24	 64	 89	  0	
05-May-2013	sub2333	2333	  2	  0	136	  3	  2	  4	  2	  5	  1	  2	  1	0.43778	  1	0.90000	  0	 24	 62	 63	  1	
05-May-2013	sub2333	2333	  2	  0	137	  3	  2	  4	  2	  5	  0	  2	  0	0.49497	  1	0.90000	  0	 24	 64	 89	  1	
05-May-2013	sub2333	2333	  2	  0	138	  3	  2	  5	  5	  1	  0	  2	  1	0.43935	  0	0.90000	  0	 25	 87	 68	  1	
05-May-2013	sub2333	2333	  2	  0	139	  3	  2	  1	  3	  2	  1	  1	  1	0.55533	  1	0.90000	  0	 21	 60	 61	  0	
05-May-2013	sub2333	2333	  2	  0	140	  3	  2	  6	  4	  2	  1	  1	  0	0.66442	  0	0.90000	  0	 26	 85	 86	  0	
05-May-2013	sub2333	2333	  2	  0	141	  3	  2	  1	  3	  2	  1	  1	  1	0.55203	  1	0.90000	  0	 21	 60	 61	  0	
05-May-2013	sub2333	2333	  2	  0	142	  3	  2	  4	  2	  5	  1	  2	  1	0.51168	  1	0.90000	  0	 24	 62	 63	  0	
05-May-2013	sub2333	2333	  2	  0	143	  3	  2	  5	  5	  1	  0	  2	  1	0.70810	  0	0.90000	  0	 25	 87	 68	  0	
05-May-2013	sub2333	2333	  2	  0	144	  3	  2	  2	  6	  3	  1	  2	  1	0.55708	  1	0.90000	  0	 22	 60	 61	  0	
05-May-2013	sub2333	2333	  2	  0	145	  3	  2	  4	  2	  5	  1	  2	  1	0.51946	  1	0.90000	  0	 24	 62	 63	  0	
05-May-2013	sub2333	2333	  2	  0	146	  3	  2	  6	  4	  2	  0	  1	  1	0.63938	  0	0.90000	  0	 26	 87	 68	  0	
05-May-2013	sub2333	2333	  2	  0	147	  3	  2	  6	  4	  2	  0	  1	  1	0.68699	  0	0.90000	  0	 26	 87	 68	  0	
05-May-2013	sub2333	2333	  2	  0	148	  3	  2	  4	  2	  5	  1	  2	  1	0.59194	  1	0.90000	  0	 24	 62	 63	  0	
05-May-2013	sub2333	2333	  2	  0	149	  3	  2	  5	  5	  1	  0	  2	  1	0.73244	  0	0.90000	  0	 25	 87	 68	  0	
05-May-2013	sub2333	2333	  2	  0	150	  3	  2	  2	  6	  3	  1	  2	  1	0.54526	  1	0.90000	  0	 22	 60	 61	  0	
05-May-2013	sub2333	2333	  2	  0	  1	  4	  1	  2	  5	  5	  1	  1	  0	0.47009	  0	0.60000	  0	 12	 40	 41	  1	
05-May-2013	sub2333	2333	  2	  0	  2	  4	  1	  4	  3	  6	  1	  1	  0	0.47248	  0	0.30000	  1	 14	 42	 51	  1	
05-May-2013	sub2333	2333	  2	  0	  3	  4	  1	  3	  1	  3	  1	  1	  1	0.32657	  1	0.90000	  0	 13	 32	 33	  1	
05-May-2013	sub2333	2333	  2	  0	  4	  4	  1	  1	  4	  6	  1	  1	  1	0.55051	  1	0.90000	  0	 11	 30	 31	  0	
05-May-2013	sub2333	2333	  2	  0	  5	  4	  1	  4	  3	  6	  1	  1	  0	0.39046	  0	0.90000	  0	 14	 42	 43	  1	
05-May-2013	sub2333	2333	  2	  0	  6	  4	  1	  4	  3	  6	  1	  2	  1	0.49176	  1	0.90000	  0	 14	 32	 33	  1	
05-May-2013	sub2333	2333	  2	  0	  7	  4	  1	  1	  4	  6	  1	  1	  1	0.55541	  1	0.90000	  0	 11	 30	 31	  0	
05-May-2013	sub2333	2333	  2	  0	  8	  4	  1	  3	  1	  3	  1	  1	  1	0.70749	  1	0.90000	  0	 13	 32	 33	  0	
05-May-2013	sub2333	2333	  2	  0	  9	  4	  1	  6	  2	  2	  1	  1	  0	0.61947	  0	0.90000	  0	 16	 45	 46	  0	
05-May-2013	sub2333	2333	  2	  0	 10	  4	  1	  2	  5	  5	  1	  1	  0	0.67377	  0	0.90000	  0	 12	 40	 41	  0	
05-May-2013	sub2333	2333	  2	  0	 11	  4	  1	  4	  3	  6	  0	  1	  1	0.81844	  0	0.90000	  0	 14	 44	 39	  0	
05-May-2013	sub2333	2333	  2	  0	 12	  4	  1	  4	  3	  6	  1	  1	  0	0.50084	  0	0.90000	  0	 14	 42	 43	  0	
05-May-2013	sub2333	2333	  2	  0	 13	  4	  1	  1	  4	  6	  1	  1	  1	0.50299	  1	0.90000	  0	 11	 30	 31	  0	
05-May-2013	sub2333	2333	  2	  0	 14	  4	  1	  6	  2	  2	  0	  2	  0	0.80543	  1	0.90000	  0	 16	 37	 48	  0	
05-May-2013	sub2333	2333	  2	  0	 15	  4	  1	  3	  1	  3	  1	  1	  1	0.47480	  1	0.90000	  0	 13	 32	 33	  1	
05-May-2013	sub2333	2333	  2	  0	 16	  4	  1	  2	  5	  5	  1	  1	  0	0.65810	  0	0.80000	  0	 12	 40	 41	  0	
05-May-2013	sub2333	2333	  2	  0	 17	  4	  1	  3	  1	  3	  0	  1	  0	0.59764	  1	0.80000	  0	 13	 34	 49	  0	
05-May-2013	sub2333	2333	  2	  0	 18	  4	  1	  6	  2	  2	  0	  1	  1	0.63002	  0	0.70000	  0	 16	 47	 38	  0	
05-May-2013	sub2333	2333	  2	  0	 19	  4	  1	  3	  1	  3	  1	  1	  1	0.55720	  1	0.70000	  0	 13	 32	 33	  0	
05-May-2013	sub2333	2333	  2	  0	 20	  4	  1	  5	  6	  5	  1	  1	  1	0.57034	  1	0.70000	  0	 15	 35	 36	  0	
05-May-2013	sub2333	2333	  2	  0	 21	  4	  1	  1	  4	  6	  1	  1	  1	0.46199	  1	0.60000	  0	 11	 30	 31	  1	
05-May-2013	sub2333	2333	  2	  0	 22	  4	  1	  6	  2	  2	  0	  1	  1	0.43710	  0	0.60000	  0	 16	 47	 38	  1	
05-May-2013	sub2333	2333	  2	  0	 23	  4	  1	  1	  4	  6	  1	  1	  1	0.45103	  1	0.60000	  0	 11	 30	 31	  1	
05-May-2013	sub2333	2333	  2	  0	 24	  4	  1	  3	  1	  3	  1	  1	  1	0.54667	  1	0.60000	  0	 13	 32	 33	  0	
05-May-2013	sub2333	2333	  2	  0	 25	  4	  1	  4	  3	  6	  1	  1	  0	0.75705	  0	0.60000	  1	 14	 42	 51	  0	
05-May-2013	sub2333	2333	  2	  0	 26	  4	  1	  1	  4	  6	  1	  1	  1	0.45552	  1	0.90000	  0	 11	 30	 31	  1	
05-May-2013	sub2333	2333	  2	  0	 27	  4	  1	  2	  5	  5	  1	  1	  0	0.56773	  0	0.90000	  0	 12	 40	 41	  0	
05-May-2013	sub2333	2333	  2	  0	 28	  4	  1	  2	  5	  5	  1	  2	  1	0.43202	  1	0.90000	  0	 12	 30	 31	  1	
05-May-2013	sub2333	2333	  2	  0	 29	  4	  1	  1	  4	  6	  1	  1	  1	0.53476	  1	0.90000	  0	 11	 30	 31	  0	
05-May-2013	sub2333	2333	  2	  0	 30	  4	  1	  6	  2	  2	  0	  2	  0	0.79597	  1	0.80000	  0	 16	 37	 48	  0	
05-May-2013	sub2333	2333	  2	  0	 31	  4	  1	  1	  4	  6	  1	  1	  1	0.43704	  1	0.80000	  0	 11	 30	 31	  1	
05-May-2013	sub2333	2333	  2	  0	 32	  4	  1	  5	  6	  5	  1	  1	  1	0.63346	  1	0.80000	  0	 15	 35	 36	  0	
05-May-2013	sub2333	2333	  2	  0	 33	  4	  1	  1	  4	  6	  1	  1	  1	0.54927	  1	0.80000	  0	 11	 30	 31	  0	
05-May-2013	sub2333	2333	  2	  0	 34	  4	  1	  6	  2	  2	  0	  2	  0	0.72490	  1	0.80000	  0	 16	 37	 48	  0	
05-May-2013	sub2333	2333	  2	  0	 35	  4	  1	  1	  4	  6	  1	  1	  1	0.48043	  1	0.70000	  0	 11	 30	 31	  1	
05-May-2013	sub2333	2333	  2	  0	 36	  4	  1	  5	  6	  5	  1	  1	  1	0.48703	  1	0.70000	  0	 15	 35	 36	  1	
05-May-2013	sub2333	2333	  2	  0	 37	  4	  1	  6	  2	  2	  0	  1	  1	0.48598	  0	0.70000	  0	 16	 47	 38	  1	
05-May-2013	sub2333	2333	  2	  0	 38	  4	  1	  5	  6	  5	  1	  1	  1	0.68079	  1	0.70000	  0	 15	 35	 36	  0	
05-May-2013	sub2333	2333	  2	  0	 39	  4	  1	  3	  1	  3	  0	  1	  0	0.60019	  1	0.70000	  0	 13	 34	 49	  0	
05-May-2013	sub2333	2333	  2	  0	 40	  4	  1	  5	  6	  5	  1	  1	  1	0.52967	  1	0.70000	  0	 15	 35	 36	  0	
05-May-2013	sub2333	2333	  2	  0	 41	  4	  1	  2	  5	  5	  1	  1	  0	0.45692	  0	0.60000	  0	 12	 40	 41	  1	
05-May-2013	sub2333	2333	  2	  0	 42	  4	  1	  3	  1	  3	  1	  1	  1	0.42880	  1	0.60000	  0	 13	 32	 33	  1	
05-May-2013	sub2333	2333	  2	  0	 43	  4	  1	  3	  1	  3	  1	  1	  1	0.50512	  1	0.60000	  0	 13	 32	 33	  0	
05-May-2013	sub2333	2333	  2	  0	 44	  4	  1	  6	  2	  2	  1	  1	  0	0.74797	  0	0.60000	  1	 16	 45	 51	  0	
05-May-2013	sub2333	2333	  2	  0	 45	  4	  1	  6	  2	  2	  1	  1	  0	0.37658	  0	0.80000	  0	 16	 45	 46	  1	
05-May-2013	sub2333	2333	  2	  0	 46	  4	  1	  2	  5	  5	  1	  1	  0	0.62633	  0	0.80000	  0	 12	 40	 41	  0	
05-May-2013	sub2333	2333	  2	  0	 47	  4	  1	  2	  5	  5	  1	  2	  1	0.48870	  1	0.80000	  0	 12	 30	 31	  1	
05-May-2013	sub2333	2333	  2	  0	 48	  4	  1	  3	  1	  3	  1	  1	  1	0.51175	  1	0.80000	  0	 13	 32	 33	  0	
05-May-2013	sub2333	2333	  2	  0	 49	  4	  1	  3	  1	  3	  0	  1	  0	0.47728	  1	0.80000	  0	 13	 34	 49	  1	
05-May-2013	sub2333	2333	  2	  0	 50	  4	  1	  4	  3	  6	  1	  1	  0	0.78829	  0	0.80000	  0	 14	 42	 43	  0	
05-May-2013	sub2333	2333	  2	  0	 51	  4	  1	  5	  6	  5	  0	  1	  0	0.62305	  1	0.70000	  0	 15	 37	 48	  0	
05-May-2013	sub2333	2333	  2	  0	 52	  4	  1	  5	  6	  5	  1	  1	  1	0.61048	  1	0.70000	  0	 15	 35	 36	  0	
05-May-2013	sub2333	2333	  2	  0	 53	  4	  1	  4	  3	  6	  0	  1	  1	0.59586	  0	0.70000	  0	 14	 44	 39	  0	
05-May-2013	sub2333	2333	  2	  0	 54	  4	  1	  5	  6	  5	  0	  1	  0	0.62167	  1	0.70000	  0	 15	 37	 48	  0	
05-May-2013	sub2333	2333	  2	  0	 55	  4	  1	  4	  3	  6	  1	  1	  0	0.59209	  0	0.70000	  0	 14	 42	 43	  0	
05-May-2013	sub2333	2333	  2	  0	 56	  4	  1	  2	  5	  5	  1	  2	  1	0.74348	  1	0.70000	  1	 12	 30	 51	  0	
05-May-2013	sub2333	2333	  2	  0	 57	  4	  1	  2	  5	  5	  1	  2	  1	0.43906	  1	0.90000	  0	 12	 30	 31	  1	
05-May-2013	sub2333	2333	  2	  0	 58	  4	  1	  3	  1	  3	  1	  1	  1	0.51551	  1	0.90000	  0	 13	 32	 33	  0	
05-May-2013	sub2333	2333	  2	  0	 59	  4	  1	  5	  6	  5	  0	  1	  0	0.61246	  1	0.80000	  0	 15	 37	 48	  0	
05-May-2013	sub2333	2333	  2	  0	 60	  4	  1	  2	  5	  5	  1	  2	  1	0.65643	  1	0.80000	  0	 12	 30	 31	  0	
05-May-2013	sub2333	2333	  2	  0	 61	  4	  1	  2	  5	  5	  1	  2	  1	0.66088	  1	0.80000	  0	 12	 30	 31	  0	
05-May-2013	sub2333	2333	  2	  0	 62	  4	  1	  6	  2	  2	  1	  2	  1	0.75441	  1	0.80000	  0	 16	 35	 36	  0	
05-May-2013	sub2333	2333	  2	  0	 63	  4	  1	  6	  2	  2	  0	  2	  0	0.50170	  1	0.80000	  0	 16	 37	 48	  0	
05-May-2013	sub2333	2333	  2	  0	 64	  4	  1	  4	  3	  6	  1	  1	  0	0.82729	  0	0.80000	  1	 14	 42	 51	  0	
05-May-2013	sub2333	2333	  2	  0	 65	  4	  1	  6	  2	  2	  0	  2	  0	0.70890	  1	0.90000	  0	 16	 37	 48	  0	
05-May-2013	sub2333	2333	  2	  0	 66	  4	  1	  1	  4	  6	  1	  1	  1	0.60783	  1	0.90000	  0	 11	 30	 31	  0	
05-May-2013	sub2333	2333	  2	  0	 67	  4	  1	  6	  2	  2	  1	  1	  0	1.08327	  0	0.90000	  1	 16	 45	 51	  0	
05-May-2013	sub2333	2333	  2	  0	 68	  4	  1	  5	  6	  5	  1	  2	  0	0.84059	  0	0.90000	  0	 15	 45	 46	  0	
05-May-2013	sub2333	2333	  2	  0	 69	  4	  1	  4	  3	  6	  1	  1	  0	0.67002	  0	0.90000	  0	 14	 42	 43	  0	
05-May-2013	sub2333	2333	  2	  0	 70	  4	  1	  5	  6	  5	  0	  1	  0	0.52257	  1	0.90000	  0	 15	 37	 48	  0	
05-May-2013	sub2333	2333	  2	  0	 71	  4	  1	  2	  5	  5	  1	  2	  1	0.93173	  1	0.90000	  1	 12	 30	 51	  0	
05-May-2013	sub2333	2333	  2	  0	 72	  4	  1	  5	  6	  5	  0	  2	  1	0.69273	  0	0.90000	  0	 15	 47	 38	  0	
05-May-2013	sub2333	2333	  2	  0	 73	  4	  1	  3	  1	  3	  1	  1	  1	0.67820	  1	0.90000	  0	 13	 32	 33	  0	
05-May-2013	sub2333	2333	  2	  0	 74	  4	  1	  1	  4	  6	  1	  1	  1	0.53795	  1	0.90000	  0	 11	 30	 31	  0	
05-May-2013	sub2333	2333	  2	  0	 75	  4	  1	  4	  3	  6	  1	  1	  0	0.67031	  0	0.90000	  0	 14	 42	 43	  0	
05-May-2013	sub2333	2333	  2	  0	 76	  4	  2	  2	  5	  5	  1	  2	  1	0.63251	  1	0.90000	  0	 22	 60	 61	  0	
05-May-2013	sub2333	2333	  2	  0	 77	  4	  2	  2	  5	  5	  1	  2	  1	0.78419	  1	0.90000	  0	 22	 60	 61	  0	
05-May-2013	sub2333	2333	  2	  0	 78	  4	  2	  2	  5	  5	  1	  2	  1	0.47621	  1	0.90000	  0	 22	 60	 61	  1	
05-May-2013	sub2333	2333	  2	  0	 79	  4	  2	  3	  1	  3	  1	  1	  1	0.55958	  1	0.90000	  0	 23	 62	 63	  0	
05-May-2013	sub2333	2333	  2	  0	 80	  4	  2	  2	  5	  5	  1	  2	  1	0.60671	  1	0.90000	  0	 22	 60	 61	  0	
05-May-2013	sub2333	2333	  2	  0	 81	  4	  2	  5	  6	  5	  0	  2	  1	0.71266	  0	0.90000	  0	 25	 87	 68	  0	
05-May-2013	sub2333	2333	  2	  0	 82	  4	  2	  5	  6	  5	  0	  2	  1	0.52360	  0	0.90000	  0	 25	 87	 68	  0	
05-May-2013	sub2333	2333	  2	  0	 83	  4	  2	  2	  5	  5	  1	  2	  1	0.63527	  1	0.90000	  0	 22	 60	 61	  0	
05-May-2013	sub2333	2333	  2	  0	 84	  4	  2	  6	  2	  2	  0	  2	  0	0.70234	  1	0.90000	  0	 26	 67	 88	  0	
05-May-2013	sub2333	2333	  2	  0	 85	  4	  2	  4	  3	  6	  1	  1	  0	0.69578	  0	0.90000	  0	 24	 82	 83	  0	
05-May-2013	sub2333	2333	  2	  0	 86	  4	  2	  4	  3	  6	  0	  2	  0	0.43562	  1	0.90000	  0	 24	 64	 89	  1	
05-May-2013	sub2333	2333	  2	  0	 87	  4	  2	  6	  2	  2	  0	  2	  0	0.70932	  1	0.90000	  0	 26	 67	 88	  0	
05-May-2013	sub2333	2333	  2	  0	 88	  4	  2	  5	  6	  5	  0	  1	  0	1.06048	  1	0.90000	  1	 25	 67	 51	  0	
05-May-2013	sub2333	2333	  2	  0	 89	  4	  2	  3	  1	  3	  0	  1	  0	0.60873	  1	0.90000	  0	 23	 64	 89	  0	
05-May-2013	sub2333	2333	  2	  0	 90	  4	  2	  6	  2	  2	  1	  2	  1	0.66982	  1	0.90000	  0	 26	 65	 66	  0	
05-May-2013	sub2333	2333	  2	  0	 91	  4	  2	  5	  6	  5	  0	  2	  1	0.63494	  0	0.90000	  0	 25	 87	 68	  0	
05-May-2013	sub2333	2333	  2	  0	 92	  4	  2	  3	  1	  3	  1	  1	  1	0.79305	  1	0.90000	  0	 23	 62	 63	  0	
05-May-2013	sub2333	2333	  2	  0	 93	  4	  2	  2	  5	  5	  1	  2	  1	0.62038	  1	0.90000	  0	 22	 60	 61	  0	
05-May-2013	sub2333	2333	  2	  0	 94	  4	  2	  4	  3	  6	  1	  1	  0	0.70232	  0	0.90000	  0	 24	 82	 83	  0	
05-May-2013	sub2333	2333	  2	  0	 95	  4	  2	  2	  5	  5	  1	  2	  1	0.59614	  1	0.90000	  0	 22	 60	 61	  0	
05-May-2013	sub2333	2333	  2	  0	 96	  4	  2	  4	  3	  6	  1	  2	  1	0.50510	  1	0.90000	  0	 24	 62	 63	  0	
05-May-2013	sub2333	2333	  2	  0	 97	  4	  2	  1	  4	  6	  1	  1	  1	0.68733	  1	0.90000	  0	 21	 60	 61	  0	
05-May-2013	sub2333	2333	  2	  0	 98	  4	  2	  3	  1	  3	  1	  1	  1	0.54601	  1	0.90000	  0	 23	 62	 63	  0	
05-May-2013	sub2333	2333	  2	  0	 99	  4	  2	  5	  6	  5	  0	  2	  1	0.67481	  0	0.90000	  0	 25	 87	 68	  0	
05-May-2013	sub2333	2333	  2	  0	100	  4	  2	  4	  3	  6	  0	  2	  0	0.65267	  1	0.90000	  0	 24	 64	 89	  0	
05-May-2013	sub2333	2333	  2	  0	101	  4	  2	  5	  6	  5	  0	  2	  1	0.69590	  0	0.90000	  0	 25	 87	 68	  0	
05-May-2013	sub2333	2333	  2	  0	102	  4	  2	  2	  5	  5	  1	  2	  1	0.86802	  1	0.90000	  0	 22	 60	 61	  0	
05-May-2013	sub2333	2333	  2	  0	103	  4	  2	  1	  4	  6	  1	  1	  1	0.58127	  1	0.90000	  0	 21	 60	 61	  0	
05-May-2013	sub2333	2333	  2	  0	104	  4	  2	  6	  2	  2	  1	  2	  1	0.59662	  1	0.90000	  0	 26	 65	 66	  0	
05-May-2013	sub2333	2333	  2	  0	105	  4	  2	  6	  2	  2	  0	  2	  0	0.48386	  1	0.90000	  0	 26	 67	 88	  1	
05-May-2013	sub2333	2333	  2	  0	106	  4	  2	  6	  2	  2	  1	  2	  1	0.42134	  1	0.90000	  0	 26	 65	 66	  1	
05-May-2013	sub2333	2333	  2	  0	107	  4	  2	  3	  1	  3	  1	  1	  1	0.60102	  1	0.90000	  0	 23	 62	 63	  0	
05-May-2013	sub2333	2333	  2	  0	108	  4	  2	  3	  1	  3	  1	  1	  1	0.49285	  1	0.90000	  0	 23	 62	 63	  1	
05-May-2013	sub2333	2333	  2	  0	109	  4	  2	  4	  3	  6	  0	  2	  0	0.72089	  1	0.90000	  0	 24	 64	 89	  0	
05-May-2013	sub2333	2333	  2	  0	110	  4	  2	  4	  3	  6	  1	  2	  1	0.33467	  1	0.90000	  0	 24	 62	 63	  1	
05-May-2013	sub2333	2333	  2	  0	111	  4	  2	  4	  3	  6	  1	  2	  1	0.43983	  1	0.90000	  0	 24	 62	 63	  1	
05-May-2013	sub2333	2333	  2	  0	112	  4	  2	  3	  1	  3	  1	  1	  1	0.52725	  1	0.90000	  0	 23	 62	 63	  0	
05-May-2013	sub2333	2333	  2	  0	113	  4	  2	  5	  6	  5	  0	  2	  1	0.66594	  0	0.90000	  0	 25	 87	 68	  0	
05-May-2013	sub2333	2333	  2	  0	114	  4	  2	  1	  4	  6	  1	  1	  1	0.64561	  1	0.90000	  0	 21	 60	 61	  0	
05-May-2013	sub2333	2333	  2	  0	115	  4	  2	  1	  4	  6	  1	  1	  1	0.51782	  1	0.90000	  0	 21	 60	 61	  0	
05-May-2013	sub2333	2333	  2	  0	116	  4	  2	  4	  3	  6	  1	  1	  0	0.61069	  0	0.80000	  0	 24	 82	 83	  0	
05-May-2013	sub2333	2333	  2	  0	117	  4	  2	  2	  5	  5	  1	  2	  1	0.75503	  1	0.80000	  0	 22	 60	 61	  0	
05-May-2013	sub2333	2333	  2	  0	118	  4	  2	  6	  2	  2	  0	  2	  0	0.65618	  1	0.80000	  0	 26	 67	 88	  0	
05-May-2013	sub2333	2333	  2	  0	119	  4	  2	  6	  2	  2	  0	  2	  0	0.58033	  1	0.80000	  0	 26	 67	 88	  0	
05-May-2013	sub2333	2333	  2	  0	120	  4	  2	  6	  2	  2	  1	  2	  1	0.43782	  1	0.80000	  0	 26	 65	 66	  1	
05-May-2013	sub2333	2333	  2	  0	121	  4	  2	  1	  4	  6	  1	  1	  1	0.62995	  1	0.80000	  0	 21	 60	 61	  0	
05-May-2013	sub2333	2333	  2	  0	122	  4	  2	  3	  1	  3	  1	  1	  1	0.57227	  1	0.80000	  0	 23	 62	 63	  0	
05-May-2013	sub2333	2333	  2	  0	123	  4	  2	  5	  6	  5	  0	  2	  1	0.59438	  0	0.80000	  0	 25	 87	 68	  0	
05-May-2013	sub2333	2333	  2	  0	124	  4	  2	  2	  5	  5	  1	  2	  1	0.55351	  1	0.80000	  0	 22	 60	 61	  0	
05-May-2013	sub2333	2333	  2	  0	125	  4	  2	  4	  3	  6	  1	  2	  1	0.62141	  1	0.80000	  0	 24	 62	 63	  0	
05-May-2013	sub2333	2333	  2	  0	126	  4	  2	  2	  5	  5	  1	  2	  1	0.52838	  1	0.80000	  0	 22	 60	 61	  0	
05-May-2013	sub2333	2333	  2	  0	127	  4	  2	  1	  4	  6	  1	  1	  1	0.72718	  1	0.80000	  0	 21	 60	 61	  0	
05-May-2013	sub2333	2333	  2	  0	128	  4	  2	  1	  4	  6	  1	  1	  1	0.73742	  1	0.80000	  0	 21	 60	 61	  0	
05-May-2013	sub2333	2333	  2	  0	129	  4	  2	  3	  1	  3	  0	  2	  1	0.59762	  0	0.80000	  0	 23	 84	 69	  0	
05-May-2013	sub2333	2333	  2	  0	130	  4	  2	  6	  2	  2	  0	  1	  1	0.48796	  0	0.80000	  0	 26	 87	 68	  1	
05-May-2013	sub2333	2333	  2	  0	131	  4	  2	  1	  4	  6	  1	  1	  1	0.55973	  1	0.80000	  0	 21	 60	 61	  0	
05-May-2013	sub2333	2333	  2	  0	132	  4	  2	  5	  6	  5	  0	  2	  1	0.51192	  0	0.80000	  0	 25	 87	 68	  0	
05-May-2013	sub2333	2333	  2	  0	133	  4	  2	  3	  1	  3	  1	  1	  1	0.58358	  1	0.80000	  0	 23	 62	 63	  0	
05-May-2013	sub2333	2333	  2	  0	134	  4	  2	  6	  2	  2	  1	  2	  1	0.58749	  1	0.80000	  0	 26	 65	 66	  0	
05-May-2013	sub2333	2333	  2	  0	135	  4	  2	  5	  6	  5	  0	  2	  1	0.72616	  0	0.70000	  1	 25	 87	 51	  0	
05-May-2013	sub2333	2333	  2	  0	136	  4	  2	  3	  1	  3	  1	  1	  1	0.58546	  1	0.80000	  0	 23	 62	 63	  0	
05-May-2013	sub2333	2333	  2	  0	137	  4	  2	  1	  4	  6	  1	  1	  1	0.60612	  1	0.80000	  0	 21	 60	 61	  0	
05-May-2013	sub2333	2333	  2	  0	138	  4	  2	  5	  6	  5	  0	  1	  0	0.79104	  1	0.80000	  0	 25	 67	 88	  0	
05-May-2013	sub2333	2333	  2	  0	139	  4	  2	  5	  6	  5	  0	  2	  1	0.88044	  0	0.80000	  1	 25	 87	 51	  0	
05-May-2013	sub2333	2333	  2	  0	140	  4	  2	  1	  4	  6	  1	  1	  1	0.46013	  1	0.90000	  0	 21	 60	 61	  1	
05-May-2013	sub2333	2333	  2	  0	141	  4	  2	  4	  3	  6	  1	  2	  1	0.82022	  1	0.90000	  0	 24	 62	 63	  0	
05-May-2013	sub2333	2333	  2	  0	142	  4	  2	  3	  1	  3	  1	  1	  1	0.55738	  1	0.90000	  0	 23	 62	 63	  0	
05-May-2013	sub2333	2333	  2	  0	143	  4	  2	  4	  3	  6	  1	  2	  1	0.57492	  1	0.90000	  0	 24	 62	 63	  0	
05-May-2013	sub2333	2333	  2	  0	144	  4	  2	  4	  3	  6	  1	  2	  1	0.51837	  1	0.80000	  0	 24	 62	 63	  0	
05-May-2013	sub2333	2333	  2	  0	145	  4	  2	  1	  4	  6	  1	  1	  1	0.68128	  1	0.80000	  0	 21	 60	 61	  0	
05-May-2013	sub2333	2333	  2	  0	146	  4	  2	  1	  4	  6	  1	  1	  1	0.61562	  1	0.80000	  0	 21	 60	 61	  0	
05-May-2013	sub2333	2333	  2	  0	147	  4	  2	  2	  5	  5	  1	  2	  1	0.80179	  1	0.80000	  1	 22	 60	 51	  0	
05-May-2013	sub2333	2333	  2	  0	148	  4	  2	  5	  6	  5	  0	  1	  0	0.74241	  1	0.90000	  0	 25	 67	 88	  0	
05-May-2013	sub2333	2333	  2	  0	149	  4	  2	  6	  2	  2	  1	  2	  1	0.77410	  1	0.90000	  0	 26	 65	 66	  0	
05-May-2013	sub2333	2333	  2	  0	150	  4	  2	  1	  4	  6	  1	  1	  1	0.64376	  1	0.90000	  0	 21	 60	 61	  0	
05-May-2013	sub2333	2333	  2	  0	  1	  5	  1	  5	  2	  6	  1	  1	  1	0.49692	  1	0.60000	  0	 15	 35	 36	  1	
05-May-2013	sub2333	2333	  2	  0	  2	  5	  1	  4	  3	  4	  1	  1	  0	0.48873	  0	0.30000	  1	 14	 42	 51	  1	
05-May-2013	sub2333	2333	  2	  0	  3	  5	  1	  3	  4	  4	  1	  1	  1	0.27021	  1	0.90000	  0	 13	 32	 33	  1	
05-May-2013	sub2333	2333	  2	  0	  4	  5	  1	  6	  1	  5	  1	  1	  0	0.31168	  0	0.90000	  0	 16	 45	 46	  1	
05-May-2013	sub2333	2333	  2	  0	  5	  5	  1	  5	  2	  6	  1	  1	  1	0.42848	  1	0.90000	  0	 15	 35	 36	  1	
05-May-2013	sub2333	2333	  2	  0	  6	  5	  1	  4	  3	  4	  1	  1	  0	0.52615	  0	0.90000	  0	 14	 42	 43	  0	
05-May-2013	sub2333	2333	  2	  0	  7	  5	  1	  5	  2	  6	  1	  1	  1	0.49884	  1	0.90000	  0	 15	 35	 36	  1	
05-May-2013	sub2333	2333	  2	  0	  8	  5	  1	  3	  4	  4	  1	  1	  1	0.49601	  1	0.90000	  0	 13	 32	 33	  1	
05-May-2013	sub2333	2333	  2	  0	  9	  5	  1	  4	  3	  4	  1	  2	  1	0.46365	  1	0.90000	  0	 14	 32	 33	  1	
05-May-2013	sub2333	2333	  2	  0	 10	  5	  1	  6	  1	  5	  1	  1	  0	0.50652	  0	0.90000	  0	 16	 45	 46	  0	
05-May-2013	sub2333	2333	  2	  0	 11	  5	  1	  4	  3	  4	  1	  2	  1	0.74665	  1	0.90000	  0	 14	 32	 33	  0	
05-May-2013	sub2333	2333	  2	  0	 12	  5	  1	  6	  1	  5	  0	  2	  0	0.37394	  1	0.90000	  0	 16	 37	 48	  1	
05-May-2013	sub2333	2333	  2	  0	 13	  5	  1	  3	  4	  4	  1	  1	  1	0.58548	  1	0.90000	  0	 13	 32	 33	  0	
05-May-2013	sub2333	2333	  2	  0	 14	  5	  1	  2	  5	  3	  1	  1	  0	0.61778	  0	0.90000	  0	 12	 40	 41	  0	
05-May-2013	sub2333	2333	  2	  0	 15	  5	  1	  3	  4	  4	  1	  1	  1	0.62756	  1	0.90000	  0	 13	 32	 33	  0	
05-May-2013	sub2333	2333	  2	  0	 16	  5	  1	  1	  6	  6	  1	  1	  1	0.57812	  1	0.80000	  0	 11	 30	 31	  0	
05-May-2013	sub2333	2333	  2	  0	 17	  5	  1	  6	  1	  5	  0	  2	  0	0.55825	  1	0.80000	  0	 16	 37	 48	  0	
05-May-2013	sub2333	2333	  2	  0	 18	  5	  1	  5	  2	  6	  0	  1	  0	0.55024	  1	0.70000	  0	 15	 37	 48	  0	
05-May-2013	sub2333	2333	  2	  0	 19	  5	  1	  1	  6	  6	  1	  1	  1	0.70656	  1	0.70000	  1	 11	 30	 51	  0	
05-May-2013	sub2333	2333	  2	  0	 20	  5	  1	  5	  2	  6	  0	  1	  0	0.49010	  1	0.90000	  0	 15	 37	 48	  1	
05-May-2013	sub2333	2333	  2	  0	 21	  5	  1	  5	  2	  6	  1	  2	  0	0.47831	  0	0.90000	  0	 15	 45	 46	  1	
05-May-2013	sub2333	2333	  2	  0	 22	  5	  1	  1	  6	  6	  1	  1	  1	0.52422	  1	0.90000	  0	 11	 30	 31	  0	
05-May-2013	sub2333	2333	  2	  0	 23	  5	  1	  4	  3	  4	  0	  1	  1	0.48217	  0	0.90000	  0	 14	 44	 39	  1	
05-May-2013	sub2333	2333	  2	  0	 24	  5	  1	  4	  3	  4	  1	  1	  0	0.44592	  0	0.90000	  0	 14	 42	 43	  1	
05-May-2013	sub2333	2333	  2	  0	 25	  5	  1	  6	  1	  5	  0	  2	  0	0.54997	  1	0.90000	  0	 16	 37	 48	  0	
05-May-2013	sub2333	2333	  2	  0	 26	  5	  1	  3	  4	  4	  1	  1	  1	0.47316	  1	0.90000	  0	 13	 32	 33	  1	
05-May-2013	sub2333	2333	  2	  0	 27	  5	  1	  6	  1	  5	  1	  2	  1	0.67674	  1	0.90000	  0	 16	 35	 36	  0	
05-May-2013	sub2333	2333	  2	  0	 28	  5	  1	  5	  2	  6	  0	  1	  0	0.40732	  1	0.90000	  0	 15	 37	 48	  1	
05-May-2013	sub2333	2333	  2	  0	 29	  5	  1	  6	  1	  5	  1	  2	  1	0.51495	  1	0.90000	  0	 16	 35	 36	  0	
05-May-2013	sub2333	2333	  2	  0	 30	  5	  1	  2	  5	  3	  1	  2	  1	0.62142	  1	0.80000	  0	 12	 30	 31	  0	
05-May-2013	sub2333	2333	  2	  0	 31	  5	  1	  4	  3	  4	  1	  2	  1	0.59620	  1	0.80000	  0	 14	 32	 33	  0	
05-May-2013	sub2333	2333	  2	  0	 32	  5	  1	  2	  5	  3	  1	  1	  0	0.58837	  0	0.80000	  0	 12	 40	 41	  0	
05-May-2013	sub2333	2333	  2	  0	 33	  5	  1	  6	  1	  5	  0	  2	  0	0.55530	  1	0.80000	  0	 16	 37	 48	  0	
05-May-2013	sub2333	2333	  2	  0	 34	  5	  1	  5	  2	  6	  1	  2	  0	0.47512	  0	0.80000	  0	 15	 45	 46	  1	
05-May-2013	sub2333	2333	  2	  0	 35	  5	  1	  5	  2	  6	  0	  2	  1	0.32870	  0	0.70000	  0	 15	 47	 38	  1	
05-May-2013	sub2333	2333	  2	  0	 36	  5	  1	  6	  1	  5	  1	  2	  1	0.41438	  1	0.70000	  0	 16	 35	 36	  1	
05-May-2013	sub2333	2333	  2	  0	 37	  5	  1	  1	  6	  6	  1	  1	  1	0.63680	  1	0.70000	  0	 11	 30	 31	  0	
05-May-2013	sub2333	2333	  2	  0	 38	  5	  1	  3	  4	  4	  1	  1	  1	0.40020	  1	0.70000	  0	 13	 32	 33	  1	
05-May-2013	sub2333	2333	  2	  0	 39	  5	  1	  6	  1	  5	  1	  1	  0	0.37330	  0	0.70000	  0	 16	 45	 46	  1	
05-May-2013	sub2333	2333	  2	  0	 40	  5	  1	  1	  6	  6	  1	  1	  1	0.56706	  1	0.70000	  0	 11	 30	 31	  0	
05-May-2013	sub2333	2333	  2	  0	 41	  5	  1	  1	  6	  6	  1	  1	  1	0.57537	  1	0.60000	  0	 11	 30	 31	  0	
05-May-2013	sub2333	2333	  2	  0	 42	  5	  1	  2	  5	  3	  1	  2	  1	0.38429	  1	0.60000	  0	 12	 30	 31	  1	
05-May-2013	sub2333	2333	  2	  0	 43	  5	  1	  3	  4	  4	  1	  1	  1	0.70450	  1	0.60000	  1	 13	 32	 51	  0	
05-May-2013	sub2333	2333	  2	  0	 44	  5	  1	  3	  4	  4	  0	  1	  0	0.32720	  1	0.80000	  0	 13	 34	 49	  1	
05-May-2013	sub2333	2333	  2	  0	 45	  5	  1	  3	  4	  4	  1	  1	  1	0.56517	  1	0.80000	  0	 13	 32	 33	  0	
05-May-2013	sub2333	2333	  2	  0	 46	  5	  1	  4	  3	  4	  1	  2	  1	0.63852	  1	0.80000	  0	 14	 32	 33	  0	
05-May-2013	sub2333	2333	  2	  0	 47	  5	  1	  2	  5	  3	  1	  1	  0	0.61425	  0	0.80000	  0	 12	 40	 41	  0	
05-May-2013	sub2333	2333	  2	  0	 48	  5	  1	  2	  5	  3	  1	  2	  1	0.38428	  1	0.80000	  0	 12	 30	 31	  1	
05-May-2013	sub2333	2333	  2	  0	 49	  5	  1	  1	  6	  6	  1	  1	  1	0.57700	  1	0.80000	  0	 11	 30	 31	  0	
05-May-2013	sub2333	2333	  2	  0	 50	  5	  1	  5	  2	  6	  1	  2	  0	0.63467	  0	0.80000	  0	 15	 45	 46	  0	
05-May-2013	sub2333	2333	  2	  0	 51	  5	  1	  1	  6	  6	  1	  1	  1	0.59419	  1	0.70000	  0	 11	 30	 31	  0	
05-May-2013	sub2333	2333	  2	  0	 52	  5	  1	  3	  4	  4	  1	  2	  0	0.47880	  0	0.70000	  0	 13	 42	 43	  1	
05-May-2013	sub2333	2333	  2	  0	 53	  5	  1	  4	  3	  4	  1	  2	  1	0.68791	  1	0.70000	  0	 14	 32	 33	  0	
05-May-2013	sub2333	2333	  2	  0	 54	  5	  1	  4	  3	  4	  1	  2	  1	0.50914	  1	0.70000	  0	 14	 32	 33	  0	
05-May-2013	sub2333	2333	  2	  0	 55	  5	  1	  2	  5	  3	  1	  2	  1	0.77714	  1	0.70000	  1	 12	 30	 51	  0	
05-May-2013	sub2333	2333	  2	  0	 56	  5	  1	  1	  6	  6	  1	  1	  1	0.51795	  1	0.90000	  0	 11	 30	 31	  0	
05-May-2013	sub2333	2333	  2	  0	 57	  5	  1	  1	  6	  6	  1	  1	  1	0.47470	  1	0.90000	  0	 11	 30	 31	  1	
05-May-2013	sub2333	2333	  2	  0	 58	  5	  1	  2	  5	  3	  1	  2	  1	0.45266	  1	0.90000	  0	 12	 30	 31	  1	
05-May-2013	sub2333	2333	  2	  0	 59	  5	  1	  2	  5	  3	  1	  2	  1	0.63337	  1	0.80000	  0	 12	 30	 31	  0	
05-May-2013	sub2333	2333	  2	  0	 60	  5	  1	  4	  3	  4	  1	  2	  1	0.92957	  1	0.80000	  1	 14	 32	 51	  0	
05-May-2013	sub2333	2333	  2	  0	 61	  5	  1	  6	  1	  5	  0	  2	  0	0.52497	  1	0.90000	  0	 16	 37	 48	  0	
05-May-2013	sub2333	2333	  2	  0	 62	  5	  1	  2	  5	  3	  1	  2	  1	0.52995	  1	0.90000	  0	 12	 30	 31	  0	
05-May-2013	sub2333	2333	  2	  0	 63	  5	  1	  6	  1	  5	  0	  2	  0	0.41667	  1	0.90000	  0	 16	 37	 48	  1	
05-May-2013	sub2333	2333	  2	  0	 64	  5	  1	  3	  4	  4	  0	  1	  0	0.74424	  1	0.90000	  0	 13	 34	 49	  0	
05-May-2013	sub2333	2333	  2	  0	 65	  5	  1	  2	  5	  3	  1	  2	  1	0.58372	  1	0.90000	  0	 12	 30	 31	  0	
05-May-2013	sub2333	2333	  2	  0	 66	  5	  1	  3	  4	  4	  1	  1	  1	0.60357	  1	0.90000	  0	 13	 32	 33	  0	
05-May-2013	sub2333	2333	  2	  0	 67	  5	  1	  6	  1	  5	  0	  2	  0	0.80242	  1	0.90000	  0	 16	 37	 48	  0	
05-May-2013	sub2333	2333	  2	  0	 68	  5	  1	  4	  3	  4	  0	  2	  0	0.60689	  1	0.90000	  0	 14	 34	 49	  0	
05-May-2013	sub2333	2333	  2	  0	 69	  5	  1	  3	  4	  4	  0	  1	  0	0.69262	  1	0.90000	  0	 13	 34	 49	  0	
05-May-2013	sub2333	2333	  2	  0	 70	  5	  1	  1	  6	  6	  1	  1	  1	0.88250	  1	0.90000	  0	 11	 30	 31	  0	
05-May-2013	sub2333	2333	  2	  0	 71	  5	  1	  5	  2	  6	  0	  2	  1	0.67093	  0	0.90000	  0	 15	 47	 38	  0	
05-May-2013	sub2333	2333	  2	  0	 72	  5	  1	  2	  5	  3	  1	  2	  1	0.65459	  1	0.90000	  0	 12	 30	 31	  0	
05-May-2013	sub2333	2333	  2	  0	 73	  5	  1	  1	  6	  6	  1	  1	  1	0.55292	  1	0.80000	  0	 11	 30	 31	  0	
05-May-2013	sub2333	2333	  2	  0	 74	  5	  1	  2	  5	  3	  1	  1	  0	0.58231	  0	0.80000	  0	 12	 40	 41	  0	
05-May-2013	sub2333	2333	  2	  0	 75	  5	  1	  5	  2	  6	  1	  2	  0	0.43514	  0	0.80000	  0	 15	 45	 46	  1	
05-May-2013	sub2333	2333	  2	  0	 76	  5	  2	  3	  4	  4	  1	  1	  1	0.86969	  1	0.80000	  1	 23	 62	 51	  0	
05-May-2013	sub2333	2333	  2	  0	 77	  5	  2	  5	  2	  6	  0	  2	  1	0.62945	  0	0.90000	  0	 25	 87	 68	  0	
05-May-2013	sub2333	2333	  2	  0	 78	  5	  2	  3	  4	  4	  1	  2	  0	0.39152	  0	0.90000	  0	 23	 82	 83	  1	
05-May-2013	sub2333	2333	  2	  0	 79	  5	  2	  4	  3	  4	  1	  2	  1	0.56899	  1	0.90000	  0	 24	 62	 63	  0	
05-May-2013	sub2333	2333	  2	  0	 80	  5	  2	  4	  3	  4	  1	  2	  1	0.51102	  1	0.90000	  0	 24	 62	 63	  0	
05-May-2013	sub2333	2333	  2	  0	 81	  5	  2	  1	  6	  6	  1	  1	  1	0.64699	  1	0.90000	  0	 21	 60	 61	  0	
05-May-2013	sub2333	2333	  2	  0	 82	  5	  2	  4	  3	  4	  0	  2	  0	0.59308	  1	0.90000	  0	 24	 64	 89	  0	
05-May-2013	sub2333	2333	  2	  0	 83	  5	  2	  2	  5	  3	  1	  2	  1	0.65044	  1	0.90000	  0	 22	 60	 61	  0	
05-May-2013	sub2333	2333	  2	  0	 84	  5	  2	  5	  2	  6	  0	  2	  1	0.87270	  0	0.90000	  0	 25	 87	 68	  0	
05-May-2013	sub2333	2333	  2	  0	 85	  5	  2	  5	  2	  6	  0	  2	  1	0.44018	  0	0.90000	  0	 25	 87	 68	  1	
05-May-2013	sub2333	2333	  2	  0	 86	  5	  2	  1	  6	  6	  1	  1	  1	0.72675	  1	0.90000	  0	 21	 60	 61	  0	
05-May-2013	sub2333	2333	  2	  0	 87	  5	  2	  5	  2	  6	  0	  2	  1	0.67690	  0	0.80000	  0	 25	 87	 68	  0	
05-May-2013	sub2333	2333	  2	  0	 88	  5	  2	  3	  4	  4	  0	  2	  1	0.87632	  0	0.80000	  1	 23	 84	 51	  0	
05-May-2013	sub2333	2333	  2	  0	 89	  5	  2	  1	  6	  6	  1	  1	  1	0.62741	  1	0.90000	  0	 21	 60	 61	  0	
05-May-2013	sub2333	2333	  2	  0	 90	  5	  2	  2	  5	  3	  1	  2	  1	0.64828	  1	0.90000	  0	 22	 60	 61	  0	
05-May-2013	sub2333	2333	  2	  0	 91	  5	  2	  2	  5	  3	  1	  2	  1	0.41829	  1	0.90000	  0	 22	 60	 61	  1	
05-May-2013	sub2333	2333	  2	  0	 92	  5	  2	  1	  6	  6	  1	  1	  1	0.57710	  1	0.90000	  0	 21	 60	 61	  0	
05-May-2013	sub2333	2333	  2	  0	 93	  5	  2	  3	  4	  4	  1	  2	  0	0.51158	  0	0.90000	  0	 23	 82	 83	  0	
05-May-2013	sub2333	2333	  2	  0	 94	  5	  2	  6	  1	  5	  0	  2	  0	0.63298	  1	0.90000	  0	 26	 67	 88	  0	
05-May-2013	sub2333	2333	  2	  0	 95	  5	  2	  6	  1	  5	  0	  1	  1	0.48584	  0	0.90000	  0	 26	 87	 68	  1	
05-May-2013	sub2333	2333	  2	  0	 96	  5	  2	  5	  2	  6	  0	  2	  1	0.77649	  0	0.90000	  0	 25	 87	 68	  0	
05-May-2013	sub2333	2333	  2	  0	 97	  5	  2	  1	  6	  6	  1	  1	  1	0.57670	  1	0.90000	  0	 21	 60	 61	  0	
05-May-2013	sub2333	2333	  2	  0	 98	  5	  2	  3	  4	  4	  0	  2	  1	0.50981	  0	0.90000	  0	 23	 84	 69	  0	
05-May-2013	sub2333	2333	  2	  0	 99	  5	  2	  5	  2	  6	  0	  2	  1	0.82265	  0	0.90000	  0	 25	 87	 68	  0	
05-May-2013	sub2333	2333	  2	  0	100	  5	  2	  2	  5	  3	  1	  2	  1	0.70193	  1	0.90000	  0	 22	 60	 61	  0	
05-May-2013	sub2333	2333	  2	  0	101	  5	  2	  4	  3	  4	  1	  2	  1	0.52347	  1	0.80000	  0	 24	 62	 63	  0	
05-May-2013	sub2333	2333	  2	  0	102	  5	  2	  1	  6	  6	  1	  1	  1	0.61442	  1	0.80000	  0	 21	 60	 61	  0	
05-May-2013	sub2333	2333	  2	  0	103	  5	  2	  5	  2	  6	  0	  2	  1	0.69905	  0	0.80000	  0	 25	 87	 68	  0	
05-May-2013	sub2333	2333	  2	  0	104	  5	  2	  1	  6	  6	  1	  1	  1	0.55512	  1	0.80000	  0	 21	 60	 61	  0	
05-May-2013	sub2333	2333	  2	  0	105	  5	  2	  6	  1	  5	  1	  2	  1	0.79072	  1	0.80000	  0	 26	 65	 66	  0	
05-May-2013	sub2333	2333	  2	  0	106	  5	  2	  3	  4	  4	  1	  1	  1	0.81682	  1	0.80000	  1	 23	 62	 51	  0	
05-May-2013	sub2333	2333	  2	  0	107	  5	  2	  5	  2	  6	  0	  2	  1	0.57680	  0	0.90000	  0	 25	 87	 68	  0	
05-May-2013	sub2333	2333	  2	  0	108	  5	  2	  6	  1	  5	  0	  2	  0	0.66288	  1	0.90000	  0	 26	 67	 88	  0	
05-May-2013	sub2333	2333	  2	  0	109	  5	  2	  6	  1	  5	  1	  1	  0	0.52978	  0	0.90000	  0	 26	 85	 86	  0	
05-May-2013	sub2333	2333	  2	  0	110	  5	  2	  1	  6	  6	  1	  1	  1	0.75635	  1	0.90000	  0	 21	 60	 61	  0	
05-May-2013	sub2333	2333	  2	  0	111	  5	  2	  1	  6	  6	  1	  1	  1	0.38217	  1	0.90000	  0	 21	 60	 61	  1	
05-May-2013	sub2333	2333	  2	  0	112	  5	  2	  4	  3	  4	  1	  2	  1	0.74431	  1	0.90000	  0	 24	 62	 63	  0	
05-May-2013	sub2333	2333	  2	  0	113	  5	  2	  4	  3	  4	  0	  2	  0	0.47223	  1	0.90000	  0	 24	 64	 89	  1	
05-May-2013	sub2333	2333	  2	  0	114	  5	  2	  3	  4	  4	  1	  1	  1	0.53015	  1	0.90000	  0	 23	 62	 63	  0	
05-May-2013	sub2333	2333	  2	  0	115	  5	  2	  5	  2	  6	  0	  2	  1	0.61186	  0	0.90000	  0	 25	 87	 68	  0	
05-May-2013	sub2333	2333	  2	  0	116	  5	  2	  5	  2	  6	  0	  2	  1	0.61047	  0	0.80000	  0	 25	 87	 68	  0	
05-May-2013	sub2333	2333	  2	  0	117	  5	  2	  4	  3	  4	  1	  2	  1	0.50194	  1	0.80000	  0	 24	 62	 63	  0	
05-May-2013	sub2333	2333	  2	  0	118	  5	  2	  6	  1	  5	  1	  2	  1	0.73101	  1	0.80000	  0	 26	 65	 66	  0	
05-May-2013	sub2333	2333	  2	  0	119	  5	  2	  4	  3	  4	  1	  2	  1	0.49863	  1	0.80000	  0	 24	 62	 63	  1	
05-May-2013	sub2333	2333	  2	  0	120	  5	  2	  6	  1	  5	  0	  1	  1	0.48312	  0	0.80000	  0	 26	 87	 68	  1	
05-May-2013	sub2333	2333	  2	  0	121	  5	  2	  2	  5	  3	  1	  2	  1	0.63329	  1	0.80000	  0	 22	 60	 61	  0	
05-May-2013	sub2333	2333	  2	  0	122	  5	  2	  1	  6	  6	  1	  1	  1	0.63060	  1	0.80000	  0	 21	 60	 61	  0	
05-May-2013	sub2333	2333	  2	  0	123	  5	  2	  4	  3	  4	  1	  2	  1	0.45886	  1	0.80000	  0	 24	 62	 63	  1	
05-May-2013	sub2333	2333	  2	  0	124	  5	  2	  2	  5	  3	  1	  2	  1	0.54341	  1	0.80000	  0	 22	 60	 61	  0	
05-May-2013	sub2333	2333	  2	  0	125	  5	  2	  4	  3	  4	  1	  2	  1	0.58817	  1	0.80000	  0	 24	 62	 63	  0	
05-May-2013	sub2333	2333	  2	  0	126	  5	  2	  1	  6	  6	  1	  1	  1	0.58703	  1	0.80000	  0	 21	 60	 61	  0	
05-May-2013	sub2333	2333	  2	  0	127	  5	  2	  2	  5	  3	  1	  2	  1	0.56609	  1	0.80000	  0	 22	 60	 61	  0	
05-May-2013	sub2333	2333	  2	  0	128	  5	  2	  6	  1	  5	  0	  2	  0	0.81518	  1	0.80000	  1	 26	 67	 51	  0	
05-May-2013	sub2333	2333	  2	  0	129	  5	  2	  2	  5	  3	  1	  1	  0	0.76778	  0	0.90000	  0	 22	 80	 81	  0	
05-May-2013	sub2333	2333	  2	  0	130	  5	  2	  3	  4	  4	  1	  1	  1	0.69618	  1	0.80000	  0	 23	 62	 63	  0	
05-May-2013	sub2333	2333	  2	  0	131	  5	  2	  2	  5	  3	  1	  2	  1	0.48170	  1	0.80000	  0	 22	 60	 61	  1	
05-May-2013	sub2333	2333	  2	  0	132	  5	  2	  2	  5	  3	  1	  2	  1	0.40843	  1	0.80000	  0	 22	 60	 61	  1	
05-May-2013	sub2333	2333	  2	  0	133	  5	  2	  1	  6	  6	  1	  1	  1	0.52154	  1	0.80000	  0	 21	 60	 61	  0	
05-May-2013	sub2333	2333	  2	  0	134	  5	  2	  4	  3	  4	  1	  2	  1	0.50481	  1	0.80000	  0	 24	 62	 63	  0	
05-May-2013	sub2333	2333	  2	  0	135	  5	  2	  6	  1	  5	  1	  1	  0	0.71211	  0	0.80000	  0	 26	 85	 86	  0	
05-May-2013	sub2333	2333	  2	  0	136	  5	  2	  6	  1	  5	  0	  2	  0	0.45061	  1	0.80000	  0	 26	 67	 88	  1	
05-May-2013	sub2333	2333	  2	  0	137	  5	  2	  2	  5	  3	  1	  2	  1	0.57539	  1	0.80000	  0	 22	 60	 61	  0	
05-May-2013	sub2333	2333	  2	  0	138	  5	  2	  1	  6	  6	  1	  1	  1	0.49730	  1	0.80000	  0	 21	 60	 61	  1	
05-May-2013	sub2333	2333	  2	  0	139	  5	  2	  6	  1	  5	  1	  1	  0	0.63377	  0	0.80000	  0	 26	 85	 86	  0	
05-May-2013	sub2333	2333	  2	  0	140	  5	  2	  4	  3	  4	  1	  1	  0	0.34181	  0	0.80000	  0	 24	 82	 83	  1	
05-May-2013	sub2333	2333	  2	  0	141	  5	  2	  3	  4	  4	  1	  1	  1	0.94625	  1	0.80000	  1	 23	 62	 51	  0	
05-May-2013	sub2333	2333	  2	  0	142	  5	  2	  5	  2	  6	  0	  2	  1	0.58061	  0	0.90000	  0	 25	 87	 68	  0	
05-May-2013	sub2333	2333	  2	  0	143	  5	  2	  6	  1	  5	  1	  1	  0	0.83229	  0	0.90000	  0	 26	 85	 86	  0	
05-May-2013	sub2333	2333	  2	  0	144	  5	  2	  3	  4	  4	  1	  1	  1	0.88274	  1	0.80000	  1	 23	 62	 51	  0	
05-May-2013	sub2333	2333	  2	  0	145	  5	  2	  5	  2	  6	  0	  2	  1	0.42222	  0	0.90000	  0	 25	 87	 68	  1	
05-May-2013	sub2333	2333	  2	  0	146	  5	  2	  5	  2	  6	  0	  2	  1	0.53770	  0	0.90000	  0	 25	 87	 68	  0	
05-May-2013	sub2333	2333	  2	  0	147	  5	  2	  3	  4	  4	  1	  2	  0	1.03748	  0	0.90000	  1	 23	 82	 51	  0	
05-May-2013	sub2333	2333	  2	  0	148	  5	  2	  2	  5	  3	  1	  2	  1	0.64221	  1	0.90000	  0	 22	 60	 61	  0	
05-May-2013	sub2333	2333	  2	  0	149	  5	  2	  3	  4	  4	  1	  1	  1	0.90361	  1	0.90000	  1	 23	 62	 51	  0	
05-May-2013	sub2333	2333	  2	  0	150	  5	  2	  4	  3	  4	  0	  2	  0	0.53721	  1	0.90000	  0	 24	 64	 89	  0	
05-May-2013	sub2333	2333	  2	  0	  1	  6	  1	  1	  1	  2	  1	  1	  1	1.62505	  1	0.60000	  1	 11	 30	 51	  0	
05-May-2013	sub2333	2333	  2	  0	  2	  6	  1	  2	  4	  1	  1	  1	  0	0.34517	  0	0.90000	  0	 12	 40	 41	  1	
05-May-2013	sub2333	2333	  2	  0	  3	  6	  1	  5	  5	  6	  1	  1	  1	0.71270	  1	0.90000	  0	 15	 35	 36	  0	
05-May-2013	sub2333	2333	  2	  0	  4	  6	  1	  6	  2	  4	  0	  1	  1	0.56447	  0	0.90000	  0	 16	 47	 38	  0	
05-May-2013	sub2333	2333	  2	  0	  5	  6	  1	  6	  2	  4	  1	  1	  0	0.62694	  0	0.90000	  0	 16	 45	 46	  0	
05-May-2013	sub2333	2333	  2	  0	  6	  6	  1	  2	  4	  1	  1	  1	  0	0.51408	  0	0.90000	  0	 12	 40	 41	  0	
05-May-2013	sub2333	2333	  2	  0	  7	  6	  1	  3	  6	  1	  0	  1	  0	0.52076	  1	0.90000	  0	 13	 34	 49	  0	
05-May-2013	sub2333	2333	  2	  0	  8	  6	  1	  1	  1	  2	  1	  1	  1	0.57567	  1	0.90000	  0	 11	 30	 31	  0	
05-May-2013	sub2333	2333	  2	  0	  9	  6	  1	  3	  6	  1	  1	  1	  1	0.48104	  1	0.90000	  0	 13	 32	 33	  1	
05-May-2013	sub2333	2333	  2	  0	 10	  6	  1	  1	  1	  2	  1	  1	  1	0.48722	  1	0.90000	  0	 11	 30	 31	  1	
05-May-2013	sub2333	2333	  2	  0	 11	  6	  1	  4	  3	  1	  1	  1	  0	0.52927	  0	0.90000	  0	 14	 42	 43	  0	
05-May-2013	sub2333	2333	  2	  0	 12	  6	  1	  2	  4	  1	  1	  1	  0	0.54938	  0	0.90000	  0	 12	 40	 41	  0	
05-May-2013	sub2333	2333	  2	  0	 13	  6	  1	  4	  3	  1	  0	  1	  1	0.90034	  0	0.90000	  1	 14	 44	 51	  0	
05-May-2013	sub2333	2333	  2	  0	 14	  6	  1	  1	  1	  2	  1	  1	  1	1.04589	  1	0.90000	  1	 11	 30	 51	  0	
05-May-2013	sub2333	2333	  2	  0	 15	  6	  1	  3	  6	  1	  1	  1	  1	0.41259	  1	0.90000	  0	 13	 32	 33	  1	
05-May-2013	sub2333	2333	  2	  0	 16	  6	  1	  5	  5	  6	  1	  1	  1	0.50037	  1	0.90000	  0	 15	 35	 36	  0	
05-May-2013	sub2333	2333	  2	  0	 17	  6	  1	  2	  4	  1	  1	  1	  0	0.32818	  0	0.90000	  0	 12	 40	 41	  1	
05-May-2013	sub2333	2333	  2	  0	 18	  6	  1	  5	  5	  6	  1	  1	  1	0.78934	  1	0.90000	  0	 15	 35	 36	  0	
05-May-2013	sub2333	2333	  2	  0	 19	  6	  1	  4	  3	  1	  1	  1	  0	0.92900	  0	0.90000	  1	 14	 42	 51	  0	
05-May-2013	sub2333	2333	  2	  0	 20	  6	  1	  3	  6	  1	  1	  1	  1	0.43808	  1	0.90000	  0	 13	 32	 33	  1	
05-May-2013	sub2333	2333	  2	  0	 21	  6	  1	  5	  5	  6	  0	  1	  0	0.47819	  1	0.90000	  0	 15	 37	 48	  1	
05-May-2013	sub2333	2333	  2	  0	 22	  6	  1	  4	  3	  1	  0	  1	  1	0.57496	  0	0.90000	  0	 14	 44	 39	  0	
05-May-2013	sub2333	2333	  2	  0	 23	  6	  1	  4	  3	  1	  1	  1	  0	0.47780	  0	0.90000	  0	 14	 42	 43	  1	
05-May-2013	sub2333	2333	  2	  0	 24	  6	  1	  4	  3	  1	  1	  1	  0	0.50367	  0	0.90000	  0	 14	 42	 43	  0	
05-May-2013	sub2333	2333	  2	  0	 25	  6	  1	  6	  2	  4	  0	  1	  1	0.58490	  0	0.90000	  0	 16	 47	 38	  0	
05-May-2013	sub2333	2333	  2	  0	 26	  6	  1	  2	  4	  1	  1	  1	  0	0.54111	  0	0.90000	  0	 12	 40	 41	  0	
05-May-2013	sub2333	2333	  2	  0	 27	  6	  1	  1	  1	  2	  1	  1	  1	0.67565	  1	0.90000	  0	 11	 30	 31	  0	
05-May-2013	sub2333	2333	  2	  0	 28	  6	  1	  2	  4	  1	  1	  1	  0	0.48146	  0	0.90000	  0	 12	 40	 41	  1	
05-May-2013	sub2333	2333	  2	  0	 29	  6	  1	  2	  4	  1	  1	  2	  1	0.43468	  1	0.90000	  0	 12	 30	 31	  1	
05-May-2013	sub2333	2333	  2	  0	 30	  6	  1	  6	  2	  4	  1	  1	  0	0.52798	  0	0.90000	  0	 16	 45	 46	  0	
05-May-2013	sub2333	2333	  2	  0	 31	  6	  1	  1	  1	  2	  1	  1	  1	0.79621	  1	0.90000	  0	 11	 30	 31	  0	
05-May-2013	sub2333	2333	  2	  0	 32	  6	  1	  6	  2	  4	  1	  2	  1	0.43692	  1	0.90000	  0	 16	 35	 36	  1	
05-May-2013	sub2333	2333	  2	  0	 33	  6	  1	  6	  2	  4	  1	  2	  1	0.51011	  1	0.90000	  0	 16	 35	 36	  0	
05-May-2013	sub2333	2333	  2	  0	 34	  6	  1	  2	  4	  1	  1	  2	  1	0.81068	  1	0.90000	  0	 12	 30	 31	  0	
05-May-2013	sub2333	2333	  2	  0	 35	  6	  1	  5	  5	  6	  0	  1	  0	0.64380	  1	0.90000	  0	 15	 37	 48	  0	
05-May-2013	sub2333	2333	  2	  0	 36	  6	  1	  2	  4	  1	  1	  2	  1	0.80544	  1	0.90000	  0	 12	 30	 31	  0	
05-May-2013	sub2333	2333	  2	  0	 37	  6	  1	  5	  5	  6	  1	  2	  0	0.36833	  0	0.90000	  0	 15	 45	 46	  1	
05-May-2013	sub2333	2333	  2	  0	 38	  6	  1	  5	  5	  6	  1	  2	  0	0.54036	  0	0.90000	  0	 15	 45	 46	  0	
05-May-2013	sub2333	2333	  2	  0	 39	  6	  1	  3	  6	  1	  1	  1	  1	0.60827	  1	0.90000	  0	 13	 32	 33	  0	
05-May-2013	sub2333	2333	  2	  0	 40	  6	  1	  1	  1	  2	  1	  1	  1	0.63410	  1	0.90000	  0	 11	 30	 31	  0	
05-May-2013	sub2333	2333	  2	  0	 41	  6	  1	  2	  4	  1	  1	  2	  1	0.58841	  1	0.90000	  0	 12	 30	 31	  0	
05-May-2013	sub2333	2333	  2	  0	 42	  6	  1	  6	  2	  4	  0	  2	  0	0.61764	  1	0.90000	  0	 16	 37	 48	  0	
05-May-2013	sub2333	2333	  2	  0	 43	  6	  1	  1	  1	  2	  1	  1	  1	0.55105	  1	0.90000	  0	 11	 30	 31	  0	
05-May-2013	sub2333	2333	  2	  0	 44	  6	  1	  6	  2	  4	  1	  2	  1	0.73563	  1	0.90000	  0	 16	 35	 36	  0	
05-May-2013	sub2333	2333	  2	  0	 45	  6	  1	  3	  6	  1	  1	  1	  1	0.65797	  1	0.90000	  0	 13	 32	 33	  0	
05-May-2013	sub2333	2333	  2	  0	 46	  6	  1	  3	  6	  1	  1	  1	  1	0.60794	  1	0.90000	  0	 13	 32	 33	  0	
05-May-2013	sub2333	2333	  2	  0	 47	  6	  1	  3	  6	  1	  1	  1	  1	0.53312	  1	0.90000	  0	 13	 32	 33	  0	
05-May-2013	sub2333	2333	  2	  0	 48	  6	  1	  2	  4	  1	  1	  2	  1	0.59635	  1	0.90000	  0	 12	 30	 31	  0	
05-May-2013	sub2333	2333	  2	  0	 49	  6	  1	  4	  3	  1	  1	  1	  0	0.95030	  0	0.90000	  1	 14	 42	 51	  0	
05-May-2013	sub2333	2333	  2	  0	 50	  6	  1	  6	  2	  4	  0	  2	  0	0.65814	  1	0.90000	  0	 16	 37	 48	  0	
05-May-2013	sub2333	2333	  2	  0	 51	  6	  1	  3	  6	  1	  1	  1	  1	0.71249	  1	0.90000	  0	 13	 32	 33	  0	
05-May-2013	sub2333	2333	  2	  0	 52	  6	  1	  4	  3	  1	  1	  2	  1	0.72224	  1	0.90000	  0	 14	 32	 33	  0	
05-May-2013	sub2333	2333	  2	  0	 53	  6	  1	  2	  4	  1	  1	  2	  1	0.55160	  1	0.90000	  0	 12	 30	 31	  0	
05-May-2013	sub2333	2333	  2	  0	 54	  6	  1	  5	  5	  6	  0	  2	  1	0.74525	  0	0.90000	  0	 15	 47	 38	  0	
05-May-2013	sub2333	2333	  2	  0	 55	  6	  1	  1	  1	  2	  1	  2	  0	0.42917	  0	0.90000	  0	 11	 40	 41	  1	
05-May-2013	sub2333	2333	  2	  0	 56	  6	  1	  6	  2	  4	  1	  2	  1	0.58618	  1	0.90000	  0	 16	 35	 36	  0	
05-May-2013	sub2333	2333	  2	  0	 57	  6	  1	  5	  5	  6	  1	  1	  1	0.65436	  1	0.90000	  0	 15	 35	 36	  0	
05-May-2013	sub2333	2333	  2	  0	 58	  6	  1	  4	  3	  1	  1	  1	  0	0.64190	  0	0.90000	  0	 14	 42	 43	  0	
05-May-2013	sub2333	2333	  2	  0	 59	  6	  1	  6	  2	  4	  1	  2	  1	0.53354	  1	0.90000	  0	 16	 35	 36	  0	
05-May-2013	sub2333	2333	  2	  0	 60	  6	  1	  5	  5	  6	  0	  2	  1	0.47453	  0	0.90000	  0	 15	 47	 38	  1	
05-May-2013	sub2333	2333	  2	  0	 61	  6	  1	  5	  5	  6	  0	  2	  1	0.51916	  0	0.90000	  0	 15	 47	 38	  0	
05-May-2013	sub2333	2333	  2	  0	 62	  6	  1	  1	  1	  2	  1	  1	  1	0.87654	  1	0.90000	  0	 11	 30	 31	  0	
05-May-2013	sub2333	2333	  2	  0	 63	  6	  1	  2	  4	  1	  1	  2	  1	0.51521	  1	0.90000	  0	 12	 30	 31	  0	
05-May-2013	sub2333	2333	  2	  0	 64	  6	  1	  4	  3	  1	  1	  2	  1	0.47649	  1	0.90000	  0	 14	 32	 33	  1	
05-May-2013	sub2333	2333	  2	  0	 65	  6	  1	  1	  1	  2	  1	  2	  0	0.44459	  0	0.90000	  0	 11	 40	 41	  1	
05-May-2013	sub2333	2333	  2	  0	 66	  6	  1	  4	  3	  1	  1	  2	  1	0.63962	  1	0.90000	  0	 14	 32	 33	  0	
05-May-2013	sub2333	2333	  2	  0	 67	  6	  1	  3	  6	  1	  0	  1	  0	0.57074	  1	0.90000	  0	 13	 34	 49	  0	
05-May-2013	sub2333	2333	  2	  0	 68	  6	  1	  3	  6	  1	  1	  1	  1	0.42516	  1	0.90000	  0	 13	 32	 33	  1	
05-May-2013	sub2333	2333	  2	  0	 69	  6	  1	  5	  5	  6	  0	  2	  1	0.59849	  0	0.90000	  0	 15	 47	 38	  0	
05-May-2013	sub2333	2333	  2	  0	 70	  6	  1	  6	  2	  4	  0	  2	  0	0.54221	  1	0.90000	  0	 16	 37	 48	  0	
05-May-2013	sub2333	2333	  2	  0	 71	  6	  1	  1	  1	  2	  1	  1	  1	0.63960	  1	0.90000	  0	 11	 30	 31	  0	
05-May-2013	sub2333	2333	  2	  0	 72	  6	  1	  6	  2	  4	  0	  2	  0	0.67590	  1	0.90000	  0	 16	 37	 48	  0	
05-May-2013	sub2333	2333	  2	  0	 73	  6	  1	  3	  6	  1	  1	  1	  1	0.57504	  1	0.80000	  0	 13	 32	 33	  0	
05-May-2013	sub2333	2333	  2	  0	 74	  6	  1	  4	  3	  1	  1	  1	  0	0.96862	  0	0.80000	  1	 14	 42	 51	  0	
05-May-2013	sub2333	2333	  2	  0	 75	  6	  1	  3	  6	  1	  0	  1	  0	0.32978	  1	0.90000	  0	 13	 34	 49	  1	
05-May-2013	sub2333	2333	  2	  0	 76	  6	  2	  3	  6	  1	  1	  1	  1	0.44021	  1	0.90000	  0	 23	 62	 63	  1	
05-May-2013	sub2333	2333	  2	  0	 77	  6	  2	  4	  3	  1	  1	  1	  0	0.63119	  0	0.90000	  0	 24	 82	 83	  0	
05-May-2013	sub2333	2333	  2	  0	 78	  6	  2	  3	  6	  1	  1	  1	  1	0.57974	  1	0.90000	  0	 23	 62	 63	  0	
05-May-2013	sub2333	2333	  2	  0	 79	  6	  2	  1	  1	  2	  1	  1	  1	0.61385	  1	0.90000	  0	 21	 60	 61	  0	
05-May-2013	sub2333	2333	  2	  0	 80	  6	  2	  2	  4	  1	  1	  2	  1	0.59367	  1	0.90000	  0	 22	 60	 61	  0	
05-May-2013	sub2333	2333	  2	  0	 81	  6	  2	  6	  2	  4	  1	  2	  1	0.63940	  1	0.90000	  0	 26	 65	 66	  0	
05-May-2013	sub2333	2333	  2	  0	 82	  6	  2	  1	  1	  2	  1	  1	  1	0.56833	  1	0.90000	  0	 21	 60	 61	  0	
05-May-2013	sub2333	2333	  2	  0	 83	  6	  2	  1	  1	  2	  1	  1	  1	0.58910	  1	0.90000	  0	 21	 60	 61	  0	
05-May-2013	sub2333	2333	  2	  0	 84	  6	  2	  4	  3	  1	  0	  1	  1	0.57669	  0	0.90000	  0	 24	 84	 69	  0	
05-May-2013	sub2333	2333	  2	  0	 85	  6	  2	  1	  1	  2	  1	  1	  1	0.44986	  1	0.90000	  0	 21	 60	 61	  1	
05-May-2013	sub2333	2333	  2	  0	 86	  6	  2	  1	  1	  2	  1	  1	  1	0.51171	  1	0.90000	  0	 21	 60	 61	  0	
05-May-2013	sub2333	2333	  2	  0	 87	  6	  2	  5	  5	  6	  0	  2	  1	0.57116	  0	0.80000	  0	 25	 87	 68	  0	
05-May-2013	sub2333	2333	  2	  0	 88	  6	  2	  6	  2	  4	  1	  2	  1	0.91099	  1	0.80000	  1	 26	 65	 51	  0	
05-May-2013	sub2333	2333	  2	  0	 89	  6	  2	  5	  5	  6	  0	  2	  1	0.61605	  0	0.90000	  0	 25	 87	 68	  0	
05-May-2013	sub2333	2333	  2	  0	 90	  6	  2	  2	  4	  1	  1	  2	  1	0.45242	  1	0.90000	  0	 22	 60	 61	  1	
05-May-2013	sub2333	2333	  2	  0	 91	  6	  2	  5	  5	  6	  0	  2	  1	0.34906	  0	0.90000	  0	 25	 87	 68	  1	
05-May-2013	sub2333	2333	  2	  0	 92	  6	  2	  6	  2	  4	  1	  2	  1	0.51416	  1	0.90000	  0	 26	 65	 66	  0	
05-May-2013	sub2333	2333	  2	  0	 93	  6	  2	  3	  6	  1	  1	  1	  1	0.69049	  1	0.90000	  0	 23	 62	 63	  0	
05-May-2013	sub2333	2333	  2	  0	 94	  6	  2	  2	  4	  1	  1	  2	  1	0.88455	  1	0.90000	  0	 22	 60	 61	  0	
05-May-2013	sub2333	2333	  2	  0	 95	  6	  2	  5	  5	  6	  0	  2	  1	0.68756	  0	0.90000	  0	 25	 87	 68	  0	
05-May-2013	sub2333	2333	  2	  0	 96	  6	  2	  2	  4	  1	  1	  2	  1	0.47531	  1	0.90000	  0	 22	 60	 61	  1	
05-May-2013	sub2333	2333	  2	  0	 97	  6	  2	  1	  1	  2	  1	  2	  0	0.32371	  0	0.90000	  0	 21	 80	 81	  1	
05-May-2013	sub2333	2333	  2	  0	 98	  6	  2	  2	  4	  1	  1	  2	  1	0.64073	  1	0.90000	  0	 22	 60	 61	  0	
05-May-2013	sub2333	2333	  2	  0	 99	  6	  2	  4	  3	  1	  1	  1	  0	0.77727	  0	0.90000	  0	 24	 82	 83	  0	
05-May-2013	sub2333	2333	  2	  0	100	  6	  2	  4	  3	  1	  1	  2	  1	0.30347	  1	0.90000	  0	 24	 62	 63	  1	
05-May-2013	sub2333	2333	  2	  0	101	  6	  2	  4	  3	  1	  1	  2	  1	0.37980	  1	0.80000	  0	 24	 62	 63	  1	
05-May-2013	sub2333	2333	  2	  0	102	  6	  2	  4	  3	  1	  1	  2	  1	0.43925	  1	0.80000	  0	 24	 62	 63	  1	
05-May-2013	sub2333	2333	  2	  0	103	  6	  2	  6	  2	  4	  0	  2	  0	0.59909	  1	0.80000	  0	 26	 67	 88	  0	
05-May-2013	sub2333	2333	  2	  0	104	  6	  2	  3	  6	  1	  1	  1	  1	0.57495	  1	0.80000	  0	 23	 62	 63	  0	
05-May-2013	sub2333	2333	  2	  0	105	  6	  2	  6	  2	  4	  0	  2	  0	0.70885	  1	0.80000	  0	 26	 67	 88	  0	
05-May-2013	sub2333	2333	  2	  0	106	  6	  2	  1	  1	  2	  1	  1	  1	0.62123	  1	0.80000	  0	 21	 60	 61	  0	
05-May-2013	sub2333	2333	  2	  0	107	  6	  2	  4	  3	  1	  1	  2	  1	0.76145	  1	0.80000	  0	 24	 62	 63	  0	
05-May-2013	sub2333	2333	  2	  0	108	  6	  2	  6	  2	  4	  0	  1	  1	0.47858	  0	0.80000	  0	 26	 87	 68	  1	
05-May-2013	sub2333	2333	  2	  0	109	  6	  2	  3	  6	  1	  1	  1	  1	0.60133	  1	0.80000	  0	 23	 62	 63	  0	
05-May-2013	sub2333	2333	  2	  0	110	  6	  2	  3	  6	  1	  1	  1	  1	0.52730	  1	0.80000	  0	 23	 62	 63	  0	
05-May-2013	sub2333	2333	  2	  0	111	  6	  2	  4	  3	  1	  1	  2	  1	0.69825	  1	0.80000	  0	 24	 62	 63	  0	
05-May-2013	sub2333	2333	  2	  0	112	  6	  2	  4	  3	  1	  1	  2	  1	0.61376	  1	0.80000	  0	 24	 62	 63	  0	
05-May-2013	sub2333	2333	  2	  0	113	  6	  2	  3	  6	  1	  1	  1	  1	0.59436	  1	0.80000	  0	 23	 62	 63	  0	
05-May-2013	sub2333	2333	  2	  0	114	  6	  2	  1	  1	  2	  1	  1	  1	0.62042	  1	0.80000	  0	 21	 60	 61	  0	
05-May-2013	sub2333	2333	  2	  0	115	  6	  2	  1	  1	  2	  1	  1	  1	0.44554	  1	0.80000	  0	 21	 60	 61	  1	
05-May-2013	sub2333	2333	  2	  0	116	  6	  2	  4	  3	  1	  1	  2	  1	0.81838	  1	0.80000	  1	 24	 62	 51	  0	
05-May-2013	sub2333	2333	  2	  0	117	  6	  2	  5	  5	  6	  0	  2	  1	0.89741	  0	0.80000	  1	 25	 87	 51	  0	
05-May-2013	sub2333	2333	  2	  0	118	  6	  2	  4	  3	  1	  1	  2	  1	0.65329	  1	0.90000	  0	 24	 62	 63	  0	
05-May-2013	sub2333	2333	  2	  0	119	  6	  2	  5	  5	  6	  0	  2	  1	0.65709	  0	0.90000	  0	 25	 87	 68	  0	
05-May-2013	sub2333	2333	  2	  0	120	  6	  2	  2	  4	  1	  1	  2	  1	0.44078	  1	0.90000	  0	 22	 60	 61	  1	
05-May-2013	sub2333	2333	  2	  0	121	  6	  2	  6	  2	  4	  1	  2	  1	0.55644	  1	0.90000	  0	 26	 65	 66	  0	
05-May-2013	sub2333	2333	  2	  0	122	  6	  2	  3	  6	  1	  0	  1	  0	0.54195	  1	0.90000	  0	 23	 64	 89	  0	
05-May-2013	sub2333	2333	  2	  0	123	  6	  2	  5	  5	  6	  0	  2	  1	0.62692	  0	0.90000	  0	 25	 87	 68	  0	
05-May-2013	sub2333	2333	  2	  0	124	  6	  2	  5	  5	  6	  0	  2	  1	0.47234	  0	0.90000	  0	 25	 87	 68	  1	
05-May-2013	sub2333	2333	  2	  0	125	  6	  2	  1	  1	  2	  1	  1	  1	0.57476	  1	0.90000	  0	 21	 60	 61	  0	
05-May-2013	sub2333	2333	  2	  0	126	  6	  2	  5	  5	  6	  0	  2	  1	0.49935	  0	0.90000	  0	 25	 87	 68	  1	
05-May-2013	sub2333	2333	  2	  0	127	  6	  2	  3	  6	  1	  1	  1	  1	0.58475	  1	0.90000	  0	 23	 62	 63	  0	
05-May-2013	sub2333	2333	  2	  0	128	  6	  2	  2	  4	  1	  1	  2	  1	0.50710	  1	0.90000	  0	 22	 60	 61	  0	
05-May-2013	sub2333	2333	  2	  0	129	  6	  2	  3	  6	  1	  0	  1	  0	0.34166	  1	0.90000	  0	 23	 64	 89	  1	
05-May-2013	sub2333	2333	  2	  0	130	  6	  2	  2	  4	  1	  1	  2	  1	0.58379	  1	0.80000	  0	 22	 60	 61	  0	
05-May-2013	sub2333	2333	  2	  0	131	  6	  2	  2	  4	  1	  1	  1	  0	0.29386	  0	0.80000	  0	 22	 80	 81	  1	
05-May-2013	sub2333	2333	  2	  0	132	  6	  2	  4	  3	  1	  0	  2	  0	0.58207	  1	0.80000	  0	 24	 64	 89	  0	
05-May-2013	sub2333	2333	  2	  0	133	  6	  2	  3	  6	  1	  1	  2	  0	0.28560	  0	0.80000	  0	 23	 82	 83	  1	
05-May-2013	sub2333	2333	  2	  0	134	  6	  2	  6	  2	  4	  0	  2	  0	0.65699	  1	0.80000	  0	 26	 67	 88	  0	
05-May-2013	sub2333	2333	  2	  0	135	  6	  2	  2	  4	  1	  1	  2	  1	0.64560	  1	0.80000	  0	 22	 60	 61	  0	
05-May-2013	sub2333	2333	  2	  0	136	  6	  2	  3	  6	  1	  1	  1	  1	0.62703	  1	0.80000	  0	 23	 62	 63	  0	
05-May-2013	sub2333	2333	  2	  0	137	  6	  2	  5	  5	  6	  0	  2	  1	0.58310	  0	0.80000	  0	 25	 87	 68	  0	
05-May-2013	sub2333	2333	  2	  0	138	  6	  2	  6	  2	  4	  1	  2	  1	0.91368	  1	0.80000	  1	 26	 65	 51	  0	
05-May-2013	sub2333	2333	  2	  0	139	  6	  2	  6	  2	  4	  0	  2	  0	0.40302	  1	0.90000	  0	 26	 67	 88	  1	
05-May-2013	sub2333	2333	  2	  0	140	  6	  2	  2	  4	  1	  1	  2	  1	0.68884	  1	0.90000	  0	 22	 60	 61	  0	
05-May-2013	sub2333	2333	  2	  0	141	  6	  2	  4	  3	  1	  0	  2	  0	0.57915	  1	0.90000	  0	 24	 64	 89	  0	
05-May-2013	sub2333	2333	  2	  0	142	  6	  2	  1	  1	  2	  1	  1	  1	0.57747	  1	0.90000	  0	 21	 60	 61	  0	
05-May-2013	sub2333	2333	  2	  0	143	  6	  2	  5	  5	  6	  0	  2	  1	0.92239	  0	0.90000	  1	 25	 87	 51	  0	
05-May-2013	sub2333	2333	  2	  0	144	  6	  2	  1	  1	  2	  1	  1	  1	0.50704	  1	0.90000	  0	 21	 60	 61	  0	
05-May-2013	sub2333	2333	  2	  0	145	  6	  2	  2	  4	  1	  1	  2	  1	0.58336	  1	0.90000	  0	 22	 60	 61	  0	
05-May-2013	sub2333	2333	  2	  0	146	  6	  2	  6	  2	  4	  1	  1	  0	0.89318	  0	0.90000	  0	 26	 85	 86	  0	
05-May-2013	sub2333	2333	  2	  0	147	  6	  2	  1	  1	  2	  1	  1	  1	0.59071	  1	0.90000	  0	 21	 60	 61	  0	
05-May-2013	sub2333	2333	  2	  0	148	  6	  2	  5	  5	  6	  0	  2	  1	0.64905	  0	0.90000	  0	 25	 87	 68	  0	
05-May-2013	sub2333	2333	  2	  0	149	  6	  2	  6	  2	  4	  0	  1	  1	0.72382	  0	0.90000	  0	 26	 87	 68	  0	
05-May-2013	sub2333	2333	  2	  0	150	  6	  2	  5	  5	  6	  0	  2	  1	0.56000	  0	0.90000	  0	 25	 87	 68	  0	
