Date 	 Name 	 ID 	 Gender 	 Appearance 	 Trial 	 Block 	 Bin 	 Condition 	 Category 	 Number 	 Valid 	 Keypress 	 Correct 	 RT 	 Realcorrect 	 Deadline 	 Timeout 	 Stimtrigger 	 Resptrigger 	 Fedtrigger 	 WithinTime 	 
06-May-2013	sub2334	2334	  2	  0	  1	  1	  1	  1	  2	  5	  1	  1	  1	5.27005	  1	0.60000	  1	 11	 30	 51	  0	
06-May-2013	sub2334	2334	  2	  0	  2	  1	  1	  4	  4	  4	  0	  2	  0	1.12209	  1	0.90000	  1	 14	 34	 51	  0	
06-May-2013	sub2334	2334	  2	  0	  3	  1	  1	  3	  3	  2	  1	  1	  1	0.57169	  1	0.90000	  0	 13	 32	 33	  0	
06-May-2013	sub2334	2334	  2	  0	  4	  1	  1	  4	  4	  4	  1	  2	  1	0.57296	  1	0.90000	  0	 14	 32	 33	  0	
06-May-2013	sub2334	2334	  2	  0	  5	  1	  1	  5	  6	  3	  1	  1	  1	0.74457	  1	0.90000	  0	 15	 35	 36	  0	
06-May-2013	sub2334	2334	  2	  0	  6	  1	  1	  6	  1	  4	  0	  2	  0	0.54497	  1	0.90000	  0	 16	 37	 48	  0	
06-May-2013	sub2334	2334	  2	  0	  7	  1	  1	  6	  1	  4	  1	  1	  0	0.48195	  0	0.90000	  0	 16	 45	 46	  1	
06-May-2013	sub2334	2334	  2	  0	  8	  1	  1	  4	  4	  4	  1	  2	  1	0.51503	  1	0.90000	  0	 14	 32	 33	  0	
06-May-2013	sub2334	2334	  2	  0	  9	  1	  1	  3	  3	  2	  1	  1	  1	0.45161	  1	0.90000	  0	 13	 32	 33	  1	
06-May-2013	sub2334	2334	  2	  0	 10	  1	  1	  2	  5	  4	  1	  2	  1	0.50414	  1	0.90000	  0	 12	 30	 31	  0	
06-May-2013	sub2334	2334	  2	  0	 11	  1	  1	  6	  1	  4	  0	  2	  0	0.57327	  1	0.90000	  0	 16	 37	 48	  0	
06-May-2013	sub2334	2334	  2	  0	 12	  1	  1	  3	  3	  2	  1	  1	  1	0.43004	  1	0.90000	  0	 13	 32	 33	  1	
06-May-2013	sub2334	2334	  2	  0	 13	  1	  1	  5	  6	  3	  0	  1	  0	0.59185	  1	0.90000	  0	 15	 37	 48	  0	
06-May-2013	sub2334	2334	  2	  0	 14	  1	  1	  5	  6	  3	  0	  2	  1	0.73629	  0	0.90000	  0	 15	 47	 38	  0	
06-May-2013	sub2334	2334	  2	  0	 15	  1	  1	  6	  1	  4	  1	  1	  0	0.41168	  0	0.90000	  0	 16	 45	 46	  1	
06-May-2013	sub2334	2334	  2	  0	 16	  1	  1	  2	  5	  4	  1	  2	  1	0.45032	  1	0.90000	  0	 12	 30	 31	  1	
06-May-2013	sub2334	2334	  2	  0	 17	  1	  1	  1	  2	  5	  1	  1	  1	0.58942	  1	0.90000	  0	 11	 30	 31	  0	
06-May-2013	sub2334	2334	  2	  0	 18	  1	  1	  2	  5	  4	  1	  2	  1	0.54652	  1	0.90000	  0	 12	 30	 31	  0	
06-May-2013	sub2334	2334	  2	  0	 19	  1	  1	  1	  2	  5	  1	  2	  0	0.55239	  0	0.90000	  0	 11	 40	 41	  0	
06-May-2013	sub2334	2334	  2	  0	 20	  1	  1	  1	  2	  5	  1	  2	  0	0.47937	  0	0.90000	  0	 11	 40	 41	  1	
06-May-2013	sub2334	2334	  2	  0	 21	  1	  1	  2	  5	  4	  1	  1	  0	0.50870	  0	0.90000	  0	 12	 40	 41	  0	
06-May-2013	sub2334	2334	  2	  0	 22	  1	  1	  1	  2	  5	  1	  2	  0	0.49734	  0	0.90000	  0	 11	 40	 41	  1	
06-May-2013	sub2334	2334	  2	  0	 23	  1	  1	  1	  2	  5	  1	  1	  1	0.39585	  1	0.90000	  0	 11	 30	 31	  1	
06-May-2013	sub2334	2334	  2	  0	 24	  1	  1	  5	  6	  3	  1	  1	  1	0.59886	  1	0.90000	  0	 15	 35	 36	  0	
06-May-2013	sub2334	2334	  2	  0	 25	  1	  1	  6	  1	  4	  0	  2	  0	0.64681	  1	0.90000	  0	 16	 37	 48	  0	
06-May-2013	sub2334	2334	  2	  0	 26	  1	  1	  2	  5	  4	  1	  1	  0	0.42336	  0	0.90000	  0	 12	 40	 41	  1	
06-May-2013	sub2334	2334	  2	  0	 27	  1	  1	  3	  3	  2	  1	  1	  1	0.43913	  1	0.90000	  0	 13	 32	 33	  1	
06-May-2013	sub2334	2334	  2	  0	 28	  1	  1	  1	  2	  5	  1	  2	  0	0.55022	  0	0.90000	  0	 11	 40	 41	  0	
06-May-2013	sub2334	2334	  2	  0	 29	  1	  1	  6	  1	  4	  1	  1	  0	0.39648	  0	0.90000	  0	 16	 45	 46	  1	
06-May-2013	sub2334	2334	  2	  0	 30	  1	  1	  2	  5	  4	  1	  1	  0	0.60990	  0	0.80000	  0	 12	 40	 41	  0	
06-May-2013	sub2334	2334	  2	  0	 31	  1	  1	  6	  1	  4	  1	  2	  1	0.37336	  1	0.80000	  0	 16	 35	 36	  1	
06-May-2013	sub2334	2334	  2	  0	 32	  1	  1	  4	  4	  4	  1	  1	  0	0.54964	  0	0.80000	  0	 14	 42	 43	  0	
06-May-2013	sub2334	2334	  2	  0	 33	  1	  1	  2	  5	  4	  1	  2	  1	0.36636	  1	0.80000	  0	 12	 30	 31	  1	
06-May-2013	sub2334	2334	  2	  0	 34	  1	  1	  2	  5	  4	  1	  2	  1	0.44514	  1	0.80000	  0	 12	 30	 31	  1	
06-May-2013	sub2334	2334	  2	  0	 35	  1	  1	  4	  4	  4	  1	  2	  1	0.41860	  1	0.70000	  0	 14	 32	 33	  1	
06-May-2013	sub2334	2334	  2	  0	 36	  1	  1	  2	  5	  4	  1	  2	  1	0.40552	  1	0.70000	  0	 12	 30	 31	  1	
06-May-2013	sub2334	2334	  2	  0	 37	  1	  1	  3	  3	  2	  1	  1	  1	0.44641	  1	0.70000	  0	 13	 32	 33	  1	
06-May-2013	sub2334	2334	  2	  0	 38	  1	  1	  1	  2	  5	  1	  2	  0	0.53552	  0	0.70000	  0	 11	 40	 41	  0	
06-May-2013	sub2334	2334	  2	  0	 39	  1	  1	  4	  4	  4	  1	  2	  1	0.53437	  1	0.70000	  0	 14	 32	 33	  0	
06-May-2013	sub2334	2334	  2	  0	 40	  1	  1	  4	  4	  4	  1	  2	  1	0.60875	  1	0.70000	  0	 14	 32	 33	  0	
06-May-2013	sub2334	2334	  2	  0	 41	  1	  1	  3	  3	  2	  1	  1	  1	0.37083	  1	0.60000	  0	 13	 32	 33	  1	
06-May-2013	sub2334	2334	  2	  0	 42	  1	  1	  6	  1	  4	  0	  2	  0	0.39954	  1	0.60000	  0	 16	 37	 48	  1	
06-May-2013	sub2334	2334	  2	  0	 43	  1	  1	  5	  6	  3	  1	  1	  1	0.40315	  1	0.60000	  0	 15	 35	 36	  1	
06-May-2013	sub2334	2334	  2	  0	 44	  1	  1	  3	  3	  2	  0	  1	  0	0.44759	  1	0.60000	  0	 13	 34	 49	  1	
06-May-2013	sub2334	2334	  2	  0	 45	  1	  1	  6	  1	  4	  0	  1	  1	0.57884	  0	0.60000	  0	 16	 47	 38	  0	
06-May-2013	sub2334	2334	  2	  0	 46	  1	  1	  1	  2	  5	  1	  1	  1	0.49121	  1	0.60000	  0	 11	 30	 31	  1	
06-May-2013	sub2334	2334	  2	  0	 47	  1	  1	  2	  5	  4	  1	  2	  1	0.36011	  1	0.60000	  0	 12	 30	 31	  1	
06-May-2013	sub2334	2334	  2	  0	 48	  1	  1	  2	  5	  4	  1	  2	  1	0.43746	  1	0.60000	  0	 12	 30	 31	  1	
06-May-2013	sub2334	2334	  2	  0	 49	  1	  1	  4	  4	  4	  0	  2	  0	0.45930	  1	0.60000	  0	 14	 34	 49	  1	
06-May-2013	sub2334	2334	  2	  0	 50	  1	  1	  5	  6	  3	  0	  1	  0	0.56770	  1	0.60000	  0	 15	 37	 48	  0	
06-May-2013	sub2334	2334	  2	  0	 51	  1	  1	  1	  2	  5	  1	  1	  1	0.56072	  1	0.50000	  1	 11	 30	 51	  0	
06-May-2013	sub2334	2334	  2	  0	 52	  1	  1	  4	  4	  4	  1	  1	  0	0.48583	  0	0.70000	  0	 14	 42	 43	  1	
06-May-2013	sub2334	2334	  2	  0	 53	  1	  1	  6	  1	  4	  0	  1	  1	0.45948	  0	0.70000	  0	 16	 47	 38	  1	
06-May-2013	sub2334	2334	  2	  0	 54	  1	  1	  6	  1	  4	  0	  2	  0	0.38691	  1	0.70000	  0	 16	 37	 48	  1	
06-May-2013	sub2334	2334	  2	  0	 55	  1	  1	  3	  3	  2	  1	  1	  1	0.46070	  1	0.70000	  0	 13	 32	 33	  1	
06-May-2013	sub2334	2334	  2	  0	 56	  1	  1	  3	  3	  2	  0	  1	  0	0.45435	  1	0.70000	  0	 13	 34	 49	  1	
06-May-2013	sub2334	2334	  2	  0	 57	  1	  1	  1	  2	  5	  1	  1	  1	0.55341	  1	0.70000	  0	 11	 30	 31	  0	
06-May-2013	sub2334	2334	  2	  0	 58	  1	  1	  5	  6	  3	  1	  2	  0	0.41783	  0	0.70000	  0	 15	 45	 46	  1	
06-May-2013	sub2334	2334	  2	  0	 59	  1	  1	  1	  2	  5	  1	  1	  1	0.51717	  1	0.70000	  0	 11	 30	 31	  0	
06-May-2013	sub2334	2334	  2	  0	 60	  1	  1	  2	  5	  4	  1	  1	  0	0.42621	  0	0.70000	  0	 12	 40	 41	  1	
06-May-2013	sub2334	2334	  2	  0	 61	  1	  1	  5	  6	  3	  1	  1	  1	0.53242	  1	0.60000	  0	 15	 35	 36	  0	
06-May-2013	sub2334	2334	  2	  0	 62	  1	  1	  2	  5	  4	  1	  2	  1	0.42443	  1	0.60000	  0	 12	 30	 31	  1	
06-May-2013	sub2334	2334	  2	  0	 63	  1	  1	  3	  3	  2	  1	  1	  1	0.55115	  1	0.60000	  0	 13	 32	 33	  0	
06-May-2013	sub2334	2334	  2	  0	 64	  1	  1	  5	  6	  3	  0	  2	  1	0.38146	  0	0.60000	  0	 15	 47	 38	  1	
06-May-2013	sub2334	2334	  2	  0	 65	  1	  1	  6	  1	  4	  0	  1	  1	0.55550	  0	0.60000	  0	 16	 47	 38	  0	
06-May-2013	sub2334	2334	  2	  0	 66	  1	  1	  3	  3	  2	  0	  1	  0	0.56002	  1	0.60000	  0	 13	 34	 49	  0	
06-May-2013	sub2334	2334	  2	  0	 67	  1	  1	  4	  4	  4	  1	  2	  1	0.58141	  1	0.60000	  0	 14	 32	 33	  0	
06-May-2013	sub2334	2334	  2	  0	 68	  1	  1	  6	  1	  4	  1	  1	  0	0.63146	  0	0.60000	  1	 16	 45	 51	  0	
06-May-2013	sub2334	2334	  2	  0	 69	  1	  1	  3	  3	  2	  1	  1	  1	0.41691	  1	0.70000	  0	 13	 32	 33	  1	
06-May-2013	sub2334	2334	  2	  0	 70	  1	  1	  4	  4	  4	  1	  2	  1	0.60093	  1	0.70000	  0	 14	 32	 33	  0	
06-May-2013	sub2334	2334	  2	  0	 71	  1	  1	  5	  6	  3	  0	  1	  0	0.45654	  1	0.70000	  0	 15	 37	 48	  1	
06-May-2013	sub2334	2334	  2	  0	 72	  1	  1	  4	  4	  4	  1	  2	  1	0.59788	  1	0.70000	  0	 14	 32	 33	  0	
06-May-2013	sub2334	2334	  2	  0	 73	  1	  1	  5	  6	  3	  1	  2	  0	0.40792	  0	0.70000	  0	 15	 45	 46	  1	
06-May-2013	sub2334	2334	  2	  0	 74	  1	  1	  5	  6	  3	  1	  2	  0	0.41515	  0	0.70000	  0	 15	 45	 46	  1	
06-May-2013	sub2334	2334	  2	  0	 75	  1	  1	  3	  3	  2	  1	  1	  1	0.49311	  1	0.70000	  0	 13	 32	 33	  1	
06-May-2013	sub2334	2334	  2	  0	  1	  2	  1	  3	  6	  6	  0	  1	  0	0.82015	  1	0.60000	  1	 13	 34	 51	  0	
06-May-2013	sub2334	2334	  2	  0	  2	  2	  1	  1	  4	  1	  1	  2	  0	0.43337	  0	0.90000	  0	 11	 40	 41	  1	
06-May-2013	sub2334	2334	  2	  0	  3	  2	  1	  3	  6	  6	  1	  1	  1	0.65267	  1	0.90000	  0	 13	 32	 33	  0	
06-May-2013	sub2334	2334	  2	  0	  4	  2	  1	  2	  1	  1	  1	  1	  0	0.51803	  0	0.90000	  0	 12	 40	 41	  0	
06-May-2013	sub2334	2334	  2	  0	  5	  2	  1	  2	  1	  1	  1	  2	  1	0.48072	  1	0.90000	  0	 12	 30	 31	  1	
06-May-2013	sub2334	2334	  2	  0	  6	  2	  1	  4	  2	  4	  1	  1	  0	0.59707	  0	0.90000	  0	 14	 42	 43	  0	
06-May-2013	sub2334	2334	  2	  0	  7	  2	  1	  4	  2	  4	  1	  2	  1	0.38429	  1	0.90000	  0	 14	 32	 33	  1	
06-May-2013	sub2334	2334	  2	  0	  8	  2	  1	  5	  3	  3	  0	  2	  1	0.56766	  0	0.90000	  0	 15	 47	 38	  0	
06-May-2013	sub2334	2334	  2	  0	  9	  2	  1	  1	  4	  1	  1	  2	  0	0.54280	  0	0.90000	  0	 11	 40	 41	  0	
06-May-2013	sub2334	2334	  2	  0	 10	  2	  1	  3	  6	  6	  1	  2	  0	0.55963	  0	0.90000	  0	 13	 42	 43	  0	
06-May-2013	sub2334	2334	  2	  0	 11	  2	  1	  6	  5	  1	  0	  1	  1	0.45956	  0	0.90000	  0	 16	 47	 38	  1	
06-May-2013	sub2334	2334	  2	  0	 12	  2	  1	  1	  4	  1	  1	  1	  1	0.45348	  1	0.90000	  0	 11	 30	 31	  1	
06-May-2013	sub2334	2334	  2	  0	 13	  2	  1	  6	  5	  1	  0	  1	  1	0.74495	  0	0.90000	  0	 16	 47	 38	  0	
06-May-2013	sub2334	2334	  2	  0	 14	  2	  1	  3	  6	  6	  1	  1	  1	0.52394	  1	0.90000	  0	 13	 32	 33	  0	
06-May-2013	sub2334	2334	  2	  0	 15	  2	  1	  2	  1	  1	  1	  2	  1	0.58425	  1	0.90000	  0	 12	 30	 31	  0	
06-May-2013	sub2334	2334	  2	  0	 16	  2	  1	  1	  4	  1	  1	  2	  0	0.49706	  0	0.80000	  0	 11	 40	 41	  1	
06-May-2013	sub2334	2334	  2	  0	 17	  2	  1	  2	  1	  1	  1	  1	  0	0.52619	  0	0.80000	  0	 12	 40	 41	  0	
06-May-2013	sub2334	2334	  2	  0	 18	  2	  1	  2	  1	  1	  1	  2	  1	0.39630	  1	0.70000	  0	 12	 30	 31	  1	
06-May-2013	sub2334	2334	  2	  0	 19	  2	  1	  1	  4	  1	  1	  1	  1	0.39425	  1	0.70000	  0	 11	 30	 31	  1	
06-May-2013	sub2334	2334	  2	  0	 20	  2	  1	  6	  5	  1	  0	  2	  0	0.54209	  1	0.70000	  0	 16	 37	 48	  0	
06-May-2013	sub2334	2334	  2	  0	 21	  2	  1	  3	  6	  6	  1	  1	  1	0.44641	  1	0.60000	  0	 13	 32	 33	  1	
06-May-2013	sub2334	2334	  2	  0	 22	  2	  1	  1	  4	  1	  1	  1	  1	0.46938	  1	0.60000	  0	 11	 30	 31	  1	
06-May-2013	sub2334	2334	  2	  0	 23	  2	  1	  6	  5	  1	  0	  1	  1	0.45398	  0	0.60000	  0	 16	 47	 38	  1	
06-May-2013	sub2334	2334	  2	  0	 24	  2	  1	  6	  5	  1	  1	  1	  0	0.50304	  0	0.60000	  0	 16	 45	 46	  0	
06-May-2013	sub2334	2334	  2	  0	 25	  2	  1	  3	  6	  6	  1	  2	  0	0.50183	  0	0.60000	  0	 13	 42	 43	  0	
06-May-2013	sub2334	2334	  2	  0	 26	  2	  1	  6	  5	  1	  1	  1	  0	0.46235	  0	0.50000	  0	 16	 45	 46	  1	
06-May-2013	sub2334	2334	  2	  0	 27	  2	  1	  2	  1	  1	  1	  2	  1	0.43338	  1	0.50000	  0	 12	 30	 31	  1	
06-May-2013	sub2334	2334	  2	  0	 28	  2	  1	  2	  1	  1	  1	  2	  1	0.37166	  1	0.50000	  0	 12	 30	 31	  1	
06-May-2013	sub2334	2334	  2	  0	 29	  2	  1	  4	  2	  4	  1	  1	  0	0.62919	  0	0.50000	  1	 14	 42	 51	  0	
06-May-2013	sub2334	2334	  2	  0	 30	  2	  1	  5	  3	  3	  1	  2	  0	0.40476	  0	0.80000	  0	 15	 45	 46	  1	
06-May-2013	sub2334	2334	  2	  0	 31	  2	  1	  6	  5	  1	  1	  1	  0	0.53570	  0	0.80000	  0	 16	 45	 46	  0	
06-May-2013	sub2334	2334	  2	  0	 32	  2	  1	  5	  3	  3	  1	  2	  0	0.62409	  0	0.80000	  0	 15	 45	 46	  0	
06-May-2013	sub2334	2334	  2	  0	 33	  2	  1	  3	  6	  6	  0	  1	  0	0.80801	  1	0.80000	  1	 13	 34	 51	  0	
06-May-2013	sub2334	2334	  2	  0	 34	  2	  1	  2	  1	  1	  1	  2	  1	0.43041	  1	0.90000	  0	 12	 30	 31	  1	
06-May-2013	sub2334	2334	  2	  0	 35	  2	  1	  4	  2	  4	  1	  1	  0	0.56216	  0	0.90000	  0	 14	 42	 43	  0	
06-May-2013	sub2334	2334	  2	  0	 36	  2	  1	  6	  5	  1	  0	  1	  1	0.57890	  0	0.90000	  0	 16	 47	 38	  0	
06-May-2013	sub2334	2334	  2	  0	 37	  2	  1	  3	  6	  6	  1	  2	  0	0.41805	  0	0.90000	  0	 13	 42	 43	  1	
06-May-2013	sub2334	2334	  2	  0	 38	  2	  1	  3	  6	  6	  1	  1	  1	0.37945	  1	0.90000	  0	 13	 32	 33	  1	
06-May-2013	sub2334	2334	  2	  0	 39	  2	  1	  6	  5	  1	  1	  1	  0	0.49087	  0	0.90000	  0	 16	 45	 46	  1	
06-May-2013	sub2334	2334	  2	  0	 40	  2	  1	  5	  3	  3	  1	  2	  0	0.64111	  0	0.90000	  0	 15	 45	 46	  0	
06-May-2013	sub2334	2334	  2	  0	 41	  2	  1	  1	  4	  1	  1	  1	  1	0.47735	  1	0.90000	  0	 11	 30	 31	  1	
06-May-2013	sub2334	2334	  2	  0	 42	  2	  1	  5	  3	  3	  0	  1	  0	0.41275	  1	0.90000	  0	 15	 37	 48	  1	
06-May-2013	sub2334	2334	  2	  0	 43	  2	  1	  4	  2	  4	  1	  2	  1	0.47271	  1	0.90000	  0	 14	 32	 33	  1	
06-May-2013	sub2334	2334	  2	  0	 44	  2	  1	  3	  6	  6	  0	  1	  0	0.56705	  1	0.80000	  0	 13	 34	 49	  0	
06-May-2013	sub2334	2334	  2	  0	 45	  2	  1	  2	  1	  1	  1	  2	  1	0.44850	  1	0.80000	  0	 12	 30	 31	  1	
06-May-2013	sub2334	2334	  2	  0	 46	  2	  1	  5	  3	  3	  0	  1	  0	0.42914	  1	0.80000	  0	 15	 37	 48	  1	
06-May-2013	sub2334	2334	  2	  0	 47	  2	  1	  5	  3	  3	  0	  2	  1	0.38794	  0	0.80000	  0	 15	 47	 38	  1	
06-May-2013	sub2334	2334	  2	  0	 48	  2	  1	  2	  1	  1	  1	  1	  0	0.49050	  0	0.80000	  0	 12	 40	 41	  1	
06-May-2013	sub2334	2334	  2	  0	 49	  2	  1	  5	  3	  3	  1	  2	  0	0.54317	  0	0.80000	  0	 15	 45	 46	  0	
06-May-2013	sub2334	2334	  2	  0	 50	  2	  1	  5	  3	  3	  1	  1	  1	0.38429	  1	0.80000	  0	 15	 35	 36	  1	
06-May-2013	sub2334	2334	  2	  0	 51	  2	  1	  1	  4	  1	  1	  2	  0	0.59231	  0	0.70000	  0	 11	 40	 41	  0	
06-May-2013	sub2334	2334	  2	  0	 52	  2	  1	  1	  4	  1	  1	  1	  1	0.38651	  1	0.70000	  0	 11	 30	 31	  1	
06-May-2013	sub2334	2334	  2	  0	 53	  2	  1	  4	  2	  4	  0	  1	  1	0.47905	  0	0.70000	  0	 14	 44	 39	  1	
06-May-2013	sub2334	2334	  2	  0	 54	  2	  1	  3	  6	  6	  1	  1	  1	0.51398	  1	0.70000	  0	 13	 32	 33	  0	
06-May-2013	sub2334	2334	  2	  0	 55	  2	  1	  1	  4	  1	  1	  1	  1	0.42007	  1	0.70000	  0	 11	 30	 31	  1	
06-May-2013	sub2334	2334	  2	  0	 56	  2	  1	  6	  5	  1	  1	  1	  0	0.42355	  0	0.70000	  0	 16	 45	 46	  1	
06-May-2013	sub2334	2334	  2	  0	 57	  2	  1	  1	  4	  1	  1	  1	  1	0.51081	  1	0.70000	  0	 11	 30	 31	  0	
06-May-2013	sub2334	2334	  2	  0	 58	  2	  1	  4	  2	  4	  1	  2	  1	0.47457	  1	0.70000	  0	 14	 32	 33	  1	
06-May-2013	sub2334	2334	  2	  0	 59	  2	  1	  5	  3	  3	  1	  1	  1	0.50991	  1	0.70000	  0	 15	 35	 36	  0	
06-May-2013	sub2334	2334	  2	  0	 60	  2	  1	  4	  2	  4	  1	  2	  1	0.55242	  1	0.70000	  0	 14	 32	 33	  0	
06-May-2013	sub2334	2334	  2	  0	 61	  2	  1	  1	  4	  1	  1	  1	  1	0.36207	  1	0.60000	  0	 11	 30	 31	  1	
06-May-2013	sub2334	2334	  2	  0	 62	  2	  1	  4	  2	  4	  1	  2	  1	0.38348	  1	0.60000	  0	 14	 32	 33	  1	
06-May-2013	sub2334	2334	  2	  0	 63	  2	  1	  3	  6	  6	  1	  1	  1	0.38285	  1	0.60000	  0	 13	 32	 33	  1	
06-May-2013	sub2334	2334	  2	  0	 64	  2	  1	  5	  3	  3	  0	  1	  0	0.46345	  1	0.60000	  0	 15	 37	 48	  1	
06-May-2013	sub2334	2334	  2	  0	 65	  2	  1	  5	  3	  3	  0	  2	  1	0.54526	  0	0.60000	  0	 15	 47	 38	  0	
06-May-2013	sub2334	2334	  2	  0	 66	  2	  1	  4	  2	  4	  1	  2	  1	0.62641	  1	0.60000	  1	 14	 32	 51	  0	
06-May-2013	sub2334	2334	  2	  0	 67	  2	  1	  6	  5	  1	  1	  1	  0	0.47008	  0	0.80000	  0	 16	 45	 46	  1	
06-May-2013	sub2334	2334	  2	  0	 68	  2	  1	  6	  5	  1	  0	  2	  0	0.33456	  1	0.70000	  0	 16	 37	 48	  1	
06-May-2013	sub2334	2334	  2	  0	 69	  2	  1	  4	  2	  4	  0	  2	  0	0.53963	  1	0.70000	  0	 14	 34	 49	  0	
06-May-2013	sub2334	2334	  2	  0	 70	  2	  1	  2	  1	  1	  1	  1	  0	0.60383	  0	0.70000	  0	 12	 40	 41	  0	
06-May-2013	sub2334	2334	  2	  0	 71	  2	  1	  2	  1	  1	  1	  2	  1	0.37689	  1	0.70000	  0	 12	 30	 31	  1	
06-May-2013	sub2334	2334	  2	  0	 72	  2	  1	  2	  1	  1	  1	  2	  1	0.43010	  1	0.70000	  0	 12	 30	 31	  1	
06-May-2013	sub2334	2334	  2	  0	 73	  2	  1	  3	  6	  6	  1	  1	  1	0.48870	  1	0.70000	  0	 13	 32	 33	  1	
06-May-2013	sub2334	2334	  2	  0	 74	  2	  1	  4	  2	  4	  1	  1	  0	0.48977	  0	0.70000	  0	 14	 42	 43	  1	
06-May-2013	sub2334	2334	  2	  0	 75	  2	  1	  6	  5	  1	  1	  2	  1	0.44454	  1	0.70000	  0	 16	 35	 36	  1	
06-May-2013	sub2334	2334	  2	  0	 76	  2	  2	  3	  6	  6	  1	  2	  0	0.36407	  0	0.70000	  0	 23	 82	 83	  1	
06-May-2013	sub2334	2334	  2	  0	 77	  2	  2	  1	  4	  1	  1	  2	  0	0.32317	  0	0.70000	  0	 21	 80	 81	  1	
06-May-2013	sub2334	2334	  2	  0	 78	  2	  2	  6	  5	  1	  1	  2	  1	0.63020	  1	0.70000	  0	 26	 65	 66	  0	
06-May-2013	sub2334	2334	  2	  0	 79	  2	  2	  3	  6	  6	  1	  1	  1	0.42648	  1	0.70000	  0	 23	 62	 63	  1	
06-May-2013	sub2334	2334	  2	  0	 80	  2	  2	  3	  6	  6	  1	  1	  1	0.39855	  1	0.70000	  0	 23	 62	 63	  1	
06-May-2013	sub2334	2334	  2	  0	 81	  2	  2	  6	  5	  1	  0	  1	  1	0.44364	  0	0.60000	  0	 26	 87	 68	  1	
06-May-2013	sub2334	2334	  2	  0	 82	  2	  2	  6	  5	  1	  0	  1	  1	0.60064	  0	0.60000	  1	 26	 87	 51	  0	
06-May-2013	sub2334	2334	  2	  0	 83	  2	  2	  2	  1	  1	  1	  1	  0	0.39627	  0	0.80000	  0	 22	 80	 81	  1	
06-May-2013	sub2334	2334	  2	  0	 84	  2	  2	  3	  6	  6	  1	  2	  0	0.39975	  0	0.80000	  0	 23	 82	 83	  1	
06-May-2013	sub2334	2334	  2	  0	 85	  2	  2	  6	  5	  1	  1	  1	  0	0.55098	  0	0.70000	  0	 26	 85	 86	  0	
06-May-2013	sub2334	2334	  2	  0	 86	  2	  2	  5	  3	  3	  0	  2	  1	0.41969	  0	0.70000	  0	 25	 87	 68	  1	
06-May-2013	sub2334	2334	  2	  0	 87	  2	  2	  5	  3	  3	  0	  2	  1	0.36306	  0	0.70000	  0	 25	 87	 68	  1	
06-May-2013	sub2334	2334	  2	  0	 88	  2	  2	  1	  4	  1	  1	  1	  1	0.48713	  1	0.70000	  0	 21	 60	 61	  1	
06-May-2013	sub2334	2334	  2	  0	 89	  2	  2	  4	  2	  4	  0	  2	  0	0.44810	  1	0.70000	  0	 24	 64	 89	  1	
06-May-2013	sub2334	2334	  2	  0	 90	  2	  2	  3	  6	  6	  1	  1	  1	0.58590	  1	0.70000	  0	 23	 62	 63	  0	
06-May-2013	sub2334	2334	  2	  0	 91	  2	  2	  4	  2	  4	  1	  1	  0	0.39502	  0	0.70000	  0	 24	 82	 83	  1	
06-May-2013	sub2334	2334	  2	  0	 92	  2	  2	  3	  6	  6	  0	  1	  0	0.57235	  1	0.70000	  0	 23	 64	 89	  0	
06-May-2013	sub2334	2334	  2	  0	 93	  2	  2	  5	  3	  3	  0	  2	  1	0.41011	  0	0.70000	  0	 25	 87	 68	  1	
06-May-2013	sub2334	2334	  2	  0	 94	  2	  2	  4	  2	  4	  0	  1	  1	0.54521	  0	0.70000	  0	 24	 84	 69	  0	
06-May-2013	sub2334	2334	  2	  0	 95	  2	  2	  1	  4	  1	  1	  1	  1	0.43280	  1	0.70000	  0	 21	 60	 61	  1	
06-May-2013	sub2334	2334	  2	  0	 96	  2	  2	  5	  3	  3	  0	  2	  1	0.28375	  0	0.70000	  0	 25	 87	 68	  1	
06-May-2013	sub2334	2334	  2	  0	 97	  2	  2	  1	  4	  1	  1	  1	  1	0.37102	  1	0.70000	  0	 21	 60	 61	  1	
06-May-2013	sub2334	2334	  2	  0	 98	  2	  2	  2	  1	  1	  1	  2	  1	0.46220	  1	0.70000	  0	 22	 60	 61	  1	
06-May-2013	sub2334	2334	  2	  0	 99	  2	  2	  6	  5	  1	  0	  1	  1	0.39008	  0	0.70000	  0	 26	 87	 68	  1	
06-May-2013	sub2334	2334	  2	  0	100	  2	  2	  6	  5	  1	  1	  2	  1	0.36868	  1	0.70000	  0	 26	 65	 66	  1	
06-May-2013	sub2334	2334	  2	  0	101	  2	  2	  1	  4	  1	  1	  2	  0	0.44708	  0	0.60000	  0	 21	 80	 81	  1	
06-May-2013	sub2334	2334	  2	  0	102	  2	  2	  1	  4	  1	  1	  1	  1	0.54090	  1	0.60000	  0	 21	 60	 61	  0	
06-May-2013	sub2334	2334	  2	  0	103	  2	  2	  4	  2	  4	  1	  1	  0	0.66695	  0	0.60000	  1	 24	 82	 51	  0	
06-May-2013	sub2334	2334	  2	  0	104	  2	  2	  1	  4	  1	  1	  2	  0	0.18607	  0	0.70000	  0	 21	 80	 81	  1	
06-May-2013	sub2334	2334	  2	  0	105	  2	  2	  6	  5	  1	  1	  1	  0	0.43879	  0	0.70000	  0	 26	 85	 86	  1	
06-May-2013	sub2334	2334	  2	  0	106	  2	  2	  3	  6	  6	  1	  1	  1	0.60703	  1	0.70000	  0	 23	 62	 63	  0	
06-May-2013	sub2334	2334	  2	  0	107	  2	  2	  2	  1	  1	  1	  1	  0	0.41280	  0	0.70000	  0	 22	 80	 81	  1	
06-May-2013	sub2334	2334	  2	  0	108	  2	  2	  5	  3	  3	  0	  1	  0	0.60356	  1	0.70000	  0	 25	 67	 88	  0	
06-May-2013	sub2334	2334	  2	  0	109	  2	  2	  3	  6	  6	  1	  2	  0	0.36835	  0	0.70000	  0	 23	 82	 83	  1	
06-May-2013	sub2334	2334	  2	  0	110	  2	  2	  5	  3	  3	  0	  1	  0	0.36716	  1	0.70000	  0	 25	 67	 88	  1	
06-May-2013	sub2334	2334	  2	  0	111	  2	  2	  1	  4	  1	  1	  2	  0	0.29931	  0	0.70000	  0	 21	 80	 81	  1	
06-May-2013	sub2334	2334	  2	  0	112	  2	  2	  2	  1	  1	  1	  1	  0	0.39640	  0	0.70000	  0	 22	 80	 81	  1	
06-May-2013	sub2334	2334	  2	  0	113	  2	  2	  1	  4	  1	  1	  1	  1	0.38768	  1	0.70000	  0	 21	 60	 61	  1	
06-May-2013	sub2334	2334	  2	  0	114	  2	  2	  3	  6	  6	  1	  1	  1	0.50106	  1	0.70000	  0	 23	 62	 63	  0	
06-May-2013	sub2334	2334	  2	  0	115	  2	  2	  5	  3	  3	  0	  2	  1	0.43952	  0	0.70000	  0	 25	 87	 68	  1	
06-May-2013	sub2334	2334	  2	  0	116	  2	  2	  5	  3	  3	  0	  2	  1	0.40108	  0	0.70000	  0	 25	 87	 68	  1	
06-May-2013	sub2334	2334	  2	  0	117	  2	  2	  4	  2	  4	  1	  1	  0	0.45392	  0	0.70000	  0	 24	 82	 83	  1	
06-May-2013	sub2334	2334	  2	  0	118	  2	  2	  3	  6	  6	  0	  2	  1	0.42448	  0	0.70000	  0	 23	 84	 69	  1	
06-May-2013	sub2334	2334	  2	  0	119	  2	  2	  1	  4	  1	  1	  1	  1	0.56993	  1	0.70000	  0	 21	 60	 61	  0	
06-May-2013	sub2334	2334	  2	  0	120	  2	  2	  2	  1	  1	  1	  2	  1	0.39605	  1	0.70000	  0	 22	 60	 61	  1	
06-May-2013	sub2334	2334	  2	  0	121	  2	  2	  5	  3	  3	  0	  2	  1	0.42407	  0	0.60000	  0	 25	 87	 68	  1	
06-May-2013	sub2334	2334	  2	  0	122	  2	  2	  4	  2	  4	  1	  1	  0	0.44421	  0	0.60000	  0	 24	 82	 83	  1	
06-May-2013	sub2334	2334	  2	  0	123	  2	  2	  6	  5	  1	  0	  2	  0	0.52780	  1	0.60000	  0	 26	 67	 88	  0	
06-May-2013	sub2334	2334	  2	  0	124	  2	  2	  3	  6	  6	  1	  1	  1	0.30827	  1	0.60000	  0	 23	 62	 63	  1	
06-May-2013	sub2334	2334	  2	  0	125	  2	  2	  2	  1	  1	  1	  2	  1	0.31235	  1	0.60000	  0	 22	 60	 61	  1	
06-May-2013	sub2334	2334	  2	  0	126	  2	  2	  6	  5	  1	  0	  2	  0	0.43070	  1	0.60000	  0	 26	 67	 88	  1	
06-May-2013	sub2334	2334	  2	  0	127	  2	  2	  1	  4	  1	  1	  2	  0	0.37911	  0	0.60000	  0	 21	 80	 81	  1	
06-May-2013	sub2334	2334	  2	  0	128	  2	  2	  5	  3	  3	  0	  1	  0	0.10619	  1	0.60000	  0	 25	 67	 88	  1	
06-May-2013	sub2334	2334	  2	  0	129	  2	  2	  5	  3	  3	  0	  2	  1	0.26323	  0	0.60000	  0	 25	 87	 68	  1	
06-May-2013	sub2334	2334	  2	  0	130	  2	  2	  5	  3	  3	  0	  2	  1	0.36175	  0	0.60000	  0	 25	 87	 68	  1	
06-May-2013	sub2334	2334	  2	  0	131	  2	  2	  2	  1	  1	  1	  2	  1	0.57514	  1	0.60000	  0	 22	 60	 61	  0	
06-May-2013	sub2334	2334	  2	  0	132	  2	  2	  4	  2	  4	  0	  1	  1	0.57148	  0	0.60000	  0	 24	 84	 69	  0	
06-May-2013	sub2334	2334	  2	  0	133	  2	  2	  2	  1	  1	  1	  2	  1	0.42973	  1	0.60000	  0	 22	 60	 61	  1	
06-May-2013	sub2334	2334	  2	  0	134	  2	  2	  6	  5	  1	  0	  1	  1	0.45133	  0	0.60000	  0	 26	 87	 68	  1	
06-May-2013	sub2334	2334	  2	  0	135	  2	  2	  6	  5	  1	  1	  1	  0	0.55002	  0	0.60000	  0	 26	 85	 86	  0	
06-May-2013	sub2334	2334	  2	  0	136	  2	  2	  4	  2	  4	  1	  2	  1	0.35327	  1	0.60000	  0	 24	 62	 63	  1	
06-May-2013	sub2334	2334	  2	  0	137	  2	  2	  1	  4	  1	  1	  2	  0	0.41331	  0	0.60000	  0	 21	 80	 81	  1	
06-May-2013	sub2334	2334	  2	  0	138	  2	  2	  4	  2	  4	  1	  1	  0	0.46941	  0	0.60000	  0	 24	 82	 83	  1	
06-May-2013	sub2334	2334	  2	  0	139	  2	  2	  3	  6	  6	  1	  2	  0	0.44665	  0	0.60000	  0	 23	 82	 83	  1	
06-May-2013	sub2334	2334	  2	  0	140	  2	  2	  2	  1	  1	  1	  1	  0	0.38338	  0	0.60000	  0	 22	 80	 81	  1	
06-May-2013	sub2334	2334	  2	  0	141	  2	  2	  1	  4	  1	  1	  2	  0	0.43461	  0	0.60000	  0	 21	 80	 81	  1	
06-May-2013	sub2334	2334	  2	  0	142	  2	  2	  2	  1	  1	  1	  1	  0	0.17619	  0	0.60000	  0	 22	 80	 81	  1	
06-May-2013	sub2334	2334	  2	  0	143	  2	  2	  6	  5	  1	  1	  1	  0	0.56963	  0	0.60000	  0	 26	 85	 86	  0	
06-May-2013	sub2334	2334	  2	  0	144	  2	  2	  4	  2	  4	  1	  1	  0	0.58649	  0	0.60000	  0	 24	 82	 83	  0	
06-May-2013	sub2334	2334	  2	  0	145	  2	  2	  2	  1	  1	  1	  2	  1	0.27171	  1	0.60000	  0	 22	 60	 61	  1	
06-May-2013	sub2334	2334	  2	  0	146	  2	  2	  2	  1	  1	  1	  2	  1	0.36989	  1	0.60000	  0	 22	 60	 61	  1	
06-May-2013	sub2334	2334	  2	  0	147	  2	  2	  4	  2	  4	  1	  2	  1	0.41013	  1	0.60000	  0	 24	 62	 63	  1	
06-May-2013	sub2334	2334	  2	  0	148	  2	  2	  5	  3	  3	  0	  2	  1	0.42840	  0	0.60000	  0	 25	 87	 68	  1	
06-May-2013	sub2334	2334	  2	  0	149	  2	  2	  4	  2	  4	  1	  2	  1	0.49917	  1	0.60000	  0	 24	 62	 63	  1	
06-May-2013	sub2334	2334	  2	  0	150	  2	  2	  4	  2	  4	  1	  2	  1	0.40236	  1	0.60000	  0	 24	 62	 63	  1	
06-May-2013	sub2334	2334	  2	  0	  1	  3	  1	  4	  6	  2	  1	  1	  0	0.63014	  0	0.60000	  1	 14	 42	 51	  0	
06-May-2013	sub2334	2334	  2	  0	  2	  3	  1	  6	  2	  6	  1	  2	  1	0.26750	  1	0.90000	  0	 16	 35	 36	  1	
06-May-2013	sub2334	2334	  2	  0	  3	  3	  1	  1	  3	  1	  1	  1	  1	0.44710	  1	0.90000	  0	 11	 30	 31	  1	
06-May-2013	sub2334	2334	  2	  0	  4	  3	  1	  3	  4	  2	  0	  2	  1	0.38381	  0	0.90000	  0	 13	 44	 39	  1	
06-May-2013	sub2334	2334	  2	  0	  5	  3	  1	  4	  6	  2	  1	  1	  0	0.35221	  0	0.90000	  0	 14	 42	 43	  1	
06-May-2013	sub2334	2334	  2	  0	  6	  3	  1	  6	  2	  6	  0	  2	  0	0.32195	  1	0.90000	  0	 16	 37	 48	  1	
06-May-2013	sub2334	2334	  2	  0	  7	  3	  1	  5	  5	  2	  0	  1	  0	0.40753	  1	0.90000	  0	 15	 37	 48	  1	
06-May-2013	sub2334	2334	  2	  0	  8	  3	  1	  3	  4	  2	  1	  2	  0	0.72232	  0	0.90000	  0	 13	 42	 43	  0	
06-May-2013	sub2334	2334	  2	  0	  9	  3	  1	  1	  3	  1	  1	  1	  1	0.29295	  1	0.90000	  0	 11	 30	 31	  1	
06-May-2013	sub2334	2334	  2	  0	 10	  3	  1	  4	  6	  2	  1	  1	  0	0.54117	  0	0.90000	  0	 14	 42	 43	  0	
06-May-2013	sub2334	2334	  2	  0	 11	  3	  1	  4	  6	  2	  1	  2	  1	0.47814	  1	0.90000	  0	 14	 32	 33	  1	
06-May-2013	sub2334	2334	  2	  0	 12	  3	  1	  2	  1	  2	  1	  1	  0	0.57257	  0	0.90000	  0	 12	 40	 41	  0	
06-May-2013	sub2334	2334	  2	  0	 13	  3	  1	  2	  1	  2	  1	  2	  1	0.35049	  1	0.90000	  0	 12	 30	 31	  1	
06-May-2013	sub2334	2334	  2	  0	 14	  3	  1	  1	  3	  1	  1	  1	  1	0.55021	  1	0.90000	  0	 11	 30	 31	  0	
06-May-2013	sub2334	2334	  2	  0	 15	  3	  1	  4	  6	  2	  1	  1	  0	0.73228	  0	0.90000	  0	 14	 42	 43	  0	
06-May-2013	sub2334	2334	  2	  0	 16	  3	  1	  2	  1	  2	  1	  2	  1	0.42362	  1	0.80000	  0	 12	 30	 31	  1	
06-May-2013	sub2334	2334	  2	  0	 17	  3	  1	  5	  5	  2	  0	  2	  1	0.42375	  0	0.80000	  0	 15	 47	 38	  1	
06-May-2013	sub2334	2334	  2	  0	 18	  3	  1	  4	  6	  2	  1	  2	  1	0.43465	  1	0.70000	  0	 14	 32	 33	  1	
06-May-2013	sub2334	2334	  2	  0	 19	  3	  1	  5	  5	  2	  1	  2	  0	0.43602	  0	0.70000	  0	 15	 45	 46	  1	
06-May-2013	sub2334	2334	  2	  0	 20	  3	  1	  6	  2	  6	  0	  2	  0	0.49542	  1	0.70000	  0	 16	 37	 48	  1	
06-May-2013	sub2334	2334	  2	  0	 21	  3	  1	  1	  3	  1	  1	  1	  1	0.61227	  1	0.60000	  1	 11	 30	 51	  0	
06-May-2013	sub2334	2334	  2	  0	 22	  3	  1	  3	  4	  2	  1	  2	  0	0.51236	  0	0.90000	  0	 13	 42	 43	  0	
06-May-2013	sub2334	2334	  2	  0	 23	  3	  1	  3	  4	  2	  1	  1	  1	0.41017	  1	0.90000	  0	 13	 32	 33	  1	
06-May-2013	sub2334	2334	  2	  0	 24	  3	  1	  6	  2	  6	  0	  2	  0	0.59411	  1	0.90000	  0	 16	 37	 48	  0	
06-May-2013	sub2334	2334	  2	  0	 25	  3	  1	  6	  2	  6	  0	  1	  1	0.35868	  0	0.90000	  0	 16	 47	 38	  1	
06-May-2013	sub2334	2334	  2	  0	 26	  3	  1	  4	  6	  2	  1	  2	  1	0.55646	  1	0.90000	  0	 14	 32	 33	  0	
06-May-2013	sub2334	2334	  2	  0	 27	  3	  1	  5	  5	  2	  0	  2	  1	0.48579	  0	0.90000	  0	 15	 47	 38	  1	
06-May-2013	sub2334	2334	  2	  0	 28	  3	  1	  6	  2	  6	  0	  2	  0	0.52689	  1	0.90000	  0	 16	 37	 48	  0	
06-May-2013	sub2334	2334	  2	  0	 29	  3	  1	  4	  6	  2	  1	  2	  1	0.48037	  1	0.90000	  0	 14	 32	 33	  1	
06-May-2013	sub2334	2334	  2	  0	 30	  3	  1	  1	  3	  1	  1	  2	  0	0.47585	  0	0.80000	  0	 11	 40	 41	  1	
06-May-2013	sub2334	2334	  2	  0	 31	  3	  1	  6	  2	  6	  0	  2	  0	0.65132	  1	0.80000	  0	 16	 37	 48	  0	
06-May-2013	sub2334	2334	  2	  0	 32	  3	  1	  6	  2	  6	  1	  1	  0	0.38894	  0	0.80000	  0	 16	 45	 46	  1	
06-May-2013	sub2334	2334	  2	  0	 33	  3	  1	  3	  4	  2	  1	  2	  0	0.49795	  0	0.80000	  0	 13	 42	 43	  1	
06-May-2013	sub2334	2334	  2	  0	 34	  3	  1	  1	  3	  1	  1	  1	  1	0.43302	  1	0.80000	  0	 11	 30	 31	  1	
06-May-2013	sub2334	2334	  2	  0	 35	  3	  1	  2	  1	  2	  1	  1	  0	0.52571	  0	0.70000	  0	 12	 40	 41	  0	
06-May-2013	sub2334	2334	  2	  0	 36	  3	  1	  2	  1	  2	  1	  2	  1	0.36530	  1	0.70000	  0	 12	 30	 31	  1	
06-May-2013	sub2334	2334	  2	  0	 37	  3	  1	  5	  5	  2	  1	  1	  1	0.52413	  1	0.70000	  0	 15	 35	 36	  0	
06-May-2013	sub2334	2334	  2	  0	 38	  3	  1	  2	  1	  2	  1	  2	  1	0.46324	  1	0.70000	  0	 12	 30	 31	  1	
06-May-2013	sub2334	2334	  2	  0	 39	  3	  1	  2	  1	  2	  1	  2	  1	0.46455	  1	0.70000	  0	 12	 30	 31	  1	
06-May-2013	sub2334	2334	  2	  0	 40	  3	  1	  2	  1	  2	  1	  2	  1	4.36667	  1	0.70000	  1	 12	 30	 51	  0	
06-May-2013	sub2334	2334	  2	  0	 41	  3	  1	  3	  4	  2	  1	  1	  1	0.60298	  1	0.90000	  0	 13	 32	 33	  0	
06-May-2013	sub2334	2334	  2	  0	 42	  3	  1	  3	  4	  2	  1	  1	  1	0.40562	  1	0.90000	  0	 13	 32	 33	  1	
06-May-2013	sub2334	2334	  2	  0	 43	  3	  1	  2	  1	  2	  1	  2	  1	0.51966	  1	0.90000	  0	 12	 30	 31	  0	
06-May-2013	sub2334	2334	  2	  0	 44	  3	  1	  1	  3	  1	  1	  1	  1	0.49017	  1	0.80000	  0	 11	 30	 31	  1	
06-May-2013	sub2334	2334	  2	  0	 45	  3	  1	  1	  3	  1	  1	  1	  1	0.54592	  1	0.80000	  0	 11	 30	 31	  0	
06-May-2013	sub2334	2334	  2	  0	 46	  3	  1	  5	  5	  2	  0	  1	  0	0.48080	  1	0.80000	  0	 15	 37	 48	  1	
06-May-2013	sub2334	2334	  2	  0	 47	  3	  1	  3	  4	  2	  1	  1	  1	0.55726	  1	0.80000	  0	 13	 32	 33	  0	
06-May-2013	sub2334	2334	  2	  0	 48	  3	  1	  1	  3	  1	  1	  2	  0	0.37216	  0	0.80000	  0	 11	 40	 41	  1	
06-May-2013	sub2334	2334	  2	  0	 49	  3	  1	  5	  5	  2	  0	  1	  0	0.39908	  1	0.80000	  0	 15	 37	 48	  1	
06-May-2013	sub2334	2334	  2	  0	 50	  3	  1	  3	  4	  2	  0	  2	  1	0.67893	  0	0.80000	  0	 13	 44	 39	  0	
06-May-2013	sub2334	2334	  2	  0	 51	  3	  1	  6	  2	  6	  1	  1	  0	0.52873	  0	0.70000	  0	 16	 45	 46	  0	
06-May-2013	sub2334	2334	  2	  0	 52	  3	  1	  4	  6	  2	  1	  2	  1	0.56405	  1	0.70000	  0	 14	 32	 33	  0	
06-May-2013	sub2334	2334	  2	  0	 53	  3	  1	  2	  1	  2	  1	  2	  1	0.44467	  1	0.70000	  0	 12	 30	 31	  1	
06-May-2013	sub2334	2334	  2	  0	 54	  3	  1	  5	  5	  2	  1	  2	  0	0.44820	  0	0.70000	  0	 15	 45	 46	  1	
06-May-2013	sub2334	2334	  2	  0	 55	  3	  1	  3	  4	  2	  1	  2	  0	0.55485	  0	0.70000	  0	 13	 42	 43	  0	
06-May-2013	sub2334	2334	  2	  0	 56	  3	  1	  2	  1	  2	  1	  1	  0	0.42654	  0	0.70000	  0	 12	 40	 41	  1	
06-May-2013	sub2334	2334	  2	  0	 57	  3	  1	  5	  5	  2	  1	  2	  0	0.51148	  0	0.70000	  0	 15	 45	 46	  0	
06-May-2013	sub2334	2334	  2	  0	 58	  3	  1	  1	  3	  1	  1	  1	  1	0.43328	  1	0.70000	  0	 11	 30	 31	  1	
06-May-2013	sub2334	2334	  2	  0	 59	  3	  1	  5	  5	  2	  1	  1	  1	0.42875	  1	0.70000	  0	 15	 35	 36	  1	
06-May-2013	sub2334	2334	  2	  0	 60	  3	  1	  3	  4	  2	  0	  2	  1	0.41150	  0	0.70000	  0	 13	 44	 39	  1	
06-May-2013	sub2334	2334	  2	  0	 61	  3	  1	  1	  3	  1	  1	  1	  1	0.55569	  1	0.60000	  0	 11	 30	 31	  0	
06-May-2013	sub2334	2334	  2	  0	 62	  3	  1	  4	  6	  2	  0	  2	  0	0.46624	  1	0.60000	  0	 14	 34	 49	  1	
06-May-2013	sub2334	2334	  2	  0	 63	  3	  1	  6	  2	  6	  1	  2	  1	0.50626	  1	0.60000	  0	 16	 35	 36	  0	
06-May-2013	sub2334	2334	  2	  0	 64	  3	  1	  4	  6	  2	  1	  1	  0	0.68701	  0	0.60000	  1	 14	 42	 51	  0	
06-May-2013	sub2334	2334	  2	  0	 65	  3	  1	  2	  1	  2	  1	  2	  1	0.47687	  1	0.80000	  0	 12	 30	 31	  1	
06-May-2013	sub2334	2334	  2	  0	 66	  3	  1	  4	  6	  2	  0	  1	  1	0.40459	  0	0.80000	  0	 14	 44	 39	  1	
06-May-2013	sub2334	2334	  2	  0	 67	  3	  1	  5	  5	  2	  1	  2	  0	0.40541	  0	0.80000	  0	 15	 45	 46	  1	
06-May-2013	sub2334	2334	  2	  0	 68	  3	  1	  2	  1	  2	  1	  2	  1	0.59176	  1	0.70000	  0	 12	 30	 31	  0	
06-May-2013	sub2334	2334	  2	  0	 69	  3	  1	  6	  2	  6	  0	  1	  1	0.37405	  0	0.70000	  0	 16	 47	 38	  1	
06-May-2013	sub2334	2334	  2	  0	 70	  3	  1	  5	  5	  2	  1	  1	  1	0.56173	  1	0.70000	  0	 15	 35	 36	  0	
06-May-2013	sub2334	2334	  2	  0	 71	  3	  1	  6	  2	  6	  1	  1	  0	0.36959	  0	0.70000	  0	 16	 45	 46	  1	
06-May-2013	sub2334	2334	  2	  0	 72	  3	  1	  1	  3	  1	  1	  1	  1	0.57822	  1	0.70000	  0	 11	 30	 31	  0	
06-May-2013	sub2334	2334	  2	  0	 73	  3	  1	  6	  2	  6	  1	  1	  0	0.49637	  0	0.70000	  0	 16	 45	 46	  1	
06-May-2013	sub2334	2334	  2	  0	 74	  3	  1	  3	  4	  2	  1	  1	  1	0.56674	  1	0.70000	  0	 13	 32	 33	  0	
06-May-2013	sub2334	2334	  2	  0	 75	  3	  1	  3	  4	  2	  1	  1	  1	0.40870	  1	0.70000	  0	 13	 32	 33	  1	
06-May-2013	sub2334	2334	  2	  0	 76	  3	  2	  4	  6	  2	  0	  1	  1	0.55244	  0	0.70000	  0	 24	 84	 69	  0	
06-May-2013	sub2334	2334	  2	  0	 77	  3	  2	  1	  3	  1	  1	  1	  1	0.48497	  1	0.70000	  0	 21	 60	 61	  1	
06-May-2013	sub2334	2334	  2	  0	 78	  3	  2	  3	  4	  2	  1	  1	  1	0.59381	  1	0.70000	  0	 23	 62	 63	  0	
06-May-2013	sub2334	2334	  2	  0	 79	  3	  2	  6	  2	  6	  0	  1	  1	0.56484	  0	0.70000	  0	 26	 87	 68	  0	
06-May-2013	sub2334	2334	  2	  0	 80	  3	  2	  4	  6	  2	  1	  1	  0	0.52963	  0	0.70000	  0	 24	 82	 83	  0	
06-May-2013	sub2334	2334	  2	  0	 81	  3	  2	  1	  3	  1	  1	  1	  1	0.49676	  1	0.60000	  0	 21	 60	 61	  1	
06-May-2013	sub2334	2334	  2	  0	 82	  3	  2	  1	  3	  1	  1	  1	  1	0.52238	  1	0.60000	  0	 21	 60	 61	  0	
06-May-2013	sub2334	2334	  2	  0	 83	  3	  2	  2	  1	  2	  1	  2	  1	0.45444	  1	0.60000	  0	 22	 60	 61	  1	
06-May-2013	sub2334	2334	  2	  0	 84	  3	  2	  3	  4	  2	  1	  2	  0	0.67291	  0	0.60000	  1	 23	 82	 51	  0	
06-May-2013	sub2334	2334	  2	  0	 85	  3	  2	  4	  6	  2	  1	  1	  0	0.52091	  0	0.70000	  0	 24	 82	 83	  0	
06-May-2013	sub2334	2334	  2	  0	 86	  3	  2	  6	  2	  6	  1	  1	  0	0.61700	  0	0.70000	  0	 26	 85	 86	  0	
06-May-2013	sub2334	2334	  2	  0	 87	  3	  2	  5	  5	  2	  0	  2	  1	0.44137	  0	0.70000	  0	 25	 87	 68	  1	
06-May-2013	sub2334	2334	  2	  0	 88	  3	  2	  3	  4	  2	  1	  2	  0	0.56082	  0	0.70000	  0	 23	 82	 83	  0	
06-May-2013	sub2334	2334	  2	  0	 89	  3	  2	  3	  4	  2	  1	  1	  1	0.41399	  1	0.70000	  0	 23	 62	 63	  1	
06-May-2013	sub2334	2334	  2	  0	 90	  3	  2	  5	  5	  2	  0	  1	  0	0.64983	  1	0.70000	  0	 25	 67	 88	  0	
06-May-2013	sub2334	2334	  2	  0	 91	  3	  2	  2	  1	  2	  1	  2	  1	0.40614	  1	0.70000	  0	 22	 60	 61	  1	
06-May-2013	sub2334	2334	  2	  0	 92	  3	  2	  3	  4	  2	  0	  1	  0	0.58168	  1	0.70000	  0	 23	 64	 89	  0	
06-May-2013	sub2334	2334	  2	  0	 93	  3	  2	  5	  5	  2	  0	  2	  1	0.40707	  0	0.70000	  0	 25	 87	 68	  1	
06-May-2013	sub2334	2334	  2	  0	 94	  3	  2	  2	  1	  2	  1	  2	  1	0.45790	  1	0.70000	  0	 22	 60	 61	  1	
06-May-2013	sub2334	2334	  2	  0	 95	  3	  2	  3	  4	  2	  0	  2	  1	0.41822	  0	0.70000	  0	 23	 84	 69	  1	
06-May-2013	sub2334	2334	  2	  0	 96	  3	  2	  2	  1	  2	  1	  2	  1	0.42073	  1	0.70000	  0	 22	 60	 61	  1	
06-May-2013	sub2334	2334	  2	  0	 97	  3	  2	  6	  2	  6	  1	  2	  1	0.41540	  1	0.70000	  0	 26	 65	 66	  1	
06-May-2013	sub2334	2334	  2	  0	 98	  3	  2	  3	  4	  2	  1	  2	  0	0.46654	  0	0.70000	  0	 23	 82	 83	  1	
06-May-2013	sub2334	2334	  2	  0	 99	  3	  2	  3	  4	  2	  1	  1	  1	0.50122	  1	0.70000	  0	 23	 62	 63	  0	
06-May-2013	sub2334	2334	  2	  0	100	  3	  2	  4	  6	  2	  1	  2	  1	0.67632	  1	0.70000	  0	 24	 62	 63	  0	
06-May-2013	sub2334	2334	  2	  0	101	  3	  2	  1	  3	  1	  1	  1	  1	0.36275	  1	0.60000	  0	 21	 60	 61	  1	
06-May-2013	sub2334	2334	  2	  0	102	  3	  2	  3	  4	  2	  1	  2	  0	0.40693	  0	0.60000	  0	 23	 82	 83	  1	
06-May-2013	sub2334	2334	  2	  0	103	  3	  2	  5	  5	  2	  0	  1	  0	0.54135	  1	0.60000	  0	 25	 67	 88	  0	
06-May-2013	sub2334	2334	  2	  0	104	  3	  2	  2	  1	  2	  1	  2	  1	0.63026	  1	0.60000	  1	 22	 60	 51	  0	
06-May-2013	sub2334	2334	  2	  0	105	  3	  2	  4	  6	  2	  1	  1	  0	0.49501	  0	0.70000	  0	 24	 82	 83	  1	
06-May-2013	sub2334	2334	  2	  0	106	  3	  2	  4	  6	  2	  1	  2	  1	0.43955	  1	0.70000	  0	 24	 62	 63	  1	
06-May-2013	sub2334	2334	  2	  0	107	  3	  2	  5	  5	  2	  0	  2	  1	0.46829	  0	0.70000	  0	 25	 87	 68	  1	
06-May-2013	sub2334	2334	  2	  0	108	  3	  2	  1	  3	  1	  1	  1	  1	0.60785	  1	0.70000	  0	 21	 60	 61	  0	
06-May-2013	sub2334	2334	  2	  0	109	  3	  2	  1	  3	  1	  1	  2	  0	0.38959	  0	0.70000	  0	 21	 80	 81	  1	
06-May-2013	sub2334	2334	  2	  0	110	  3	  2	  3	  4	  2	  1	  2	  0	0.53570	  0	0.70000	  0	 23	 82	 83	  0	
06-May-2013	sub2334	2334	  2	  0	111	  3	  2	  4	  6	  2	  1	  2	  1	0.57641	  1	0.70000	  0	 24	 62	 63	  0	
06-May-2013	sub2334	2334	  2	  0	112	  3	  2	  2	  1	  2	  1	  1	  0	0.39468	  0	0.70000	  0	 22	 80	 81	  1	
06-May-2013	sub2334	2334	  2	  0	113	  3	  2	  6	  2	  6	  1	  1	  0	0.72392	  0	0.70000	  1	 26	 85	 51	  0	
06-May-2013	sub2334	2334	  2	  0	114	  3	  2	  6	  2	  6	  1	  2	  1	0.38271	  1	0.80000	  0	 26	 65	 66	  1	
06-May-2013	sub2334	2334	  2	  0	115	  3	  2	  4	  6	  2	  0	  1	  1	0.48999	  0	0.80000	  0	 24	 84	 69	  1	
06-May-2013	sub2334	2334	  2	  0	116	  3	  2	  3	  4	  2	  1	  2	  0	0.39162	  0	0.80000	  0	 23	 82	 83	  1	
06-May-2013	sub2334	2334	  2	  0	117	  3	  2	  2	  1	  2	  1	  1	  0	0.43043	  0	0.80000	  0	 22	 80	 81	  1	
06-May-2013	sub2334	2334	  2	  0	118	  3	  2	  5	  5	  2	  0	  2	  1	0.45804	  0	0.70000	  0	 25	 87	 68	  1	
06-May-2013	sub2334	2334	  2	  0	119	  3	  2	  2	  1	  2	  1	  2	  1	0.50110	  1	0.70000	  0	 22	 60	 61	  0	
06-May-2013	sub2334	2334	  2	  0	120	  3	  2	  2	  1	  2	  1	  2	  1	0.42310	  1	0.70000	  0	 22	 60	 61	  1	
06-May-2013	sub2334	2334	  2	  0	121	  3	  2	  4	  6	  2	  1	  1	  0	0.44818	  0	0.70000	  0	 24	 82	 83	  1	
06-May-2013	sub2334	2334	  2	  0	122	  3	  2	  2	  1	  2	  1	  2	  1	0.43041	  1	0.70000	  0	 22	 60	 61	  1	
06-May-2013	sub2334	2334	  2	  0	123	  3	  2	  1	  3	  1	  1	  1	  1	0.54405	  1	0.70000	  0	 21	 60	 61	  0	
06-May-2013	sub2334	2334	  2	  0	124	  3	  2	  5	  5	  2	  0	  1	  0	0.48836	  1	0.70000	  0	 25	 67	 88	  1	
06-May-2013	sub2334	2334	  2	  0	125	  3	  2	  4	  6	  2	  0	  1	  1	0.53157	  0	0.70000	  0	 24	 84	 69	  0	
06-May-2013	sub2334	2334	  2	  0	126	  3	  2	  5	  5	  2	  0	  2	  1	0.39775	  0	0.70000	  0	 25	 87	 68	  1	
06-May-2013	sub2334	2334	  2	  0	127	  3	  2	  1	  3	  1	  1	  2	  0	0.37159	  0	0.70000	  0	 21	 80	 81	  1	
06-May-2013	sub2334	2334	  2	  0	128	  3	  2	  6	  2	  6	  1	  2	  1	0.53925	  1	0.70000	  0	 26	 65	 66	  0	
06-May-2013	sub2334	2334	  2	  0	129	  3	  2	  4	  6	  2	  1	  1	  0	0.58381	  0	0.70000	  0	 24	 82	 83	  0	
06-May-2013	sub2334	2334	  2	  0	130	  3	  2	  2	  1	  2	  1	  2	  1	0.44650	  1	0.70000	  0	 22	 60	 61	  1	
06-May-2013	sub2334	2334	  2	  0	131	  3	  2	  6	  2	  6	  1	  2	  1	0.64868	  1	0.70000	  0	 26	 65	 66	  0	
06-May-2013	sub2334	2334	  2	  0	132	  3	  2	  6	  2	  6	  0	  2	  0	0.42347	  1	0.70000	  0	 26	 67	 88	  1	
06-May-2013	sub2334	2334	  2	  0	133	  3	  2	  1	  3	  1	  1	  1	  1	0.59869	  1	0.70000	  0	 21	 60	 61	  0	
06-May-2013	sub2334	2334	  2	  0	134	  3	  2	  5	  5	  2	  0	  2	  1	4.86589	  0	0.70000	  1	 25	 87	 51	  0	
06-May-2013	sub2334	2334	  2	  0	135	  3	  2	  6	  2	  6	  0	  1	  1	8.47507	  0	0.70000	  1	 26	 87	 51	  0	
06-May-2013	sub2334	2334	  2	  0	136	  3	  2	  5	  5	  2	  0	  1	  0	0.51064	  1	0.80000	  0	 25	 67	 88	  0	
06-May-2013	sub2334	2334	  2	  0	137	  3	  2	  6	  2	  6	  0	  2	  0	0.49482	  1	0.80000	  0	 26	 67	 88	  1	
06-May-2013	sub2334	2334	  2	  0	138	  3	  2	  4	  6	  2	  1	  1	  0	0.50848	  0	0.80000	  0	 24	 82	 83	  0	
06-May-2013	sub2334	2334	  2	  0	139	  3	  2	  5	  5	  2	  0	  2	  1	0.50977	  0	0.80000	  0	 25	 87	 68	  0	
06-May-2013	sub2334	2334	  2	  0	140	  3	  2	  1	  3	  1	  1	  1	  1	0.51850	  1	0.80000	  0	 21	 60	 61	  0	
06-May-2013	sub2334	2334	  2	  0	141	  3	  2	  1	  3	  1	  1	  1	  1	0.47261	  1	0.80000	  0	 21	 60	 61	  1	
06-May-2013	sub2334	2334	  2	  0	142	  3	  2	  1	  3	  1	  1	  1	  1	0.50610	  1	0.80000	  0	 21	 60	 61	  0	
06-May-2013	sub2334	2334	  2	  0	143	  3	  2	  6	  2	  6	  0	  2	  0	0.44755	  1	0.80000	  0	 26	 67	 88	  1	
06-May-2013	sub2334	2334	  2	  0	144	  3	  2	  4	  6	  2	  1	  1	  0	0.62545	  0	0.80000	  0	 24	 82	 83	  0	
06-May-2013	sub2334	2334	  2	  0	145	  3	  2	  2	  1	  2	  1	  2	  1	0.62795	  1	0.80000	  0	 22	 60	 61	  0	
06-May-2013	sub2334	2334	  2	  0	146	  3	  2	  3	  4	  2	  1	  1	  1	0.49205	  1	0.80000	  0	 23	 62	 63	  1	
06-May-2013	sub2334	2334	  2	  0	147	  3	  2	  1	  3	  1	  1	  2	  0	0.41309	  0	0.80000	  0	 21	 80	 81	  1	
06-May-2013	sub2334	2334	  2	  0	148	  3	  2	  6	  2	  6	  0	  1	  1	0.44796	  0	0.80000	  0	 26	 87	 68	  1	
06-May-2013	sub2334	2334	  2	  0	149	  3	  2	  5	  5	  2	  0	  1	  0	0.40507	  1	0.80000	  0	 25	 67	 88	  1	
06-May-2013	sub2334	2334	  2	  0	150	  3	  2	  5	  5	  2	  0	  2	  1	0.58431	  0	0.80000	  0	 25	 87	 68	  0	
06-May-2013	sub2334	2334	  2	  0	  1	  4	  1	  3	  2	  2	  0	  2	  1	0.63161	  0	0.60000	  1	 13	 44	 51	  0	
06-May-2013	sub2334	2334	  2	  0	  2	  4	  1	  4	  6	  4	  1	  1	  0	0.33861	  0	0.90000	  0	 14	 42	 43	  1	
06-May-2013	sub2334	2334	  2	  0	  3	  4	  1	  6	  5	  3	  0	  1	  1	0.49001	  0	0.90000	  0	 16	 47	 38	  1	
06-May-2013	sub2334	2334	  2	  0	  4	  4	  1	  5	  3	  5	  0	  2	  1	0.30374	  0	0.90000	  0	 15	 47	 38	  1	
06-May-2013	sub2334	2334	  2	  0	  5	  4	  1	  1	  1	  3	  1	  2	  0	0.51795	  0	0.90000	  0	 11	 40	 41	  0	
06-May-2013	sub2334	2334	  2	  0	  6	  4	  1	  4	  6	  4	  1	  2	  1	0.31689	  1	0.90000	  0	 14	 32	 33	  1	
06-May-2013	sub2334	2334	  2	  0	  7	  4	  1	  2	  4	  3	  1	  1	  0	0.36456	  0	0.90000	  0	 12	 40	 41	  1	
06-May-2013	sub2334	2334	  2	  0	  8	  4	  1	  4	  6	  4	  1	  1	  0	0.62069	  0	0.90000	  0	 14	 42	 43	  0	
06-May-2013	sub2334	2334	  2	  0	  9	  4	  1	  5	  3	  5	  1	  2	  0	0.56566	  0	0.90000	  0	 15	 45	 46	  0	
06-May-2013	sub2334	2334	  2	  0	 10	  4	  1	  6	  5	  3	  0	  1	  1	0.57009	  0	0.90000	  0	 16	 47	 38	  0	
06-May-2013	sub2334	2334	  2	  0	 11	  4	  1	  1	  1	  3	  1	  2	  0	0.45549	  0	0.90000	  0	 11	 40	 41	  1	
06-May-2013	sub2334	2334	  2	  0	 12	  4	  1	  1	  1	  3	  1	  1	  1	0.32957	  1	0.90000	  0	 11	 30	 31	  1	
06-May-2013	sub2334	2334	  2	  0	 13	  4	  1	  5	  3	  5	  1	  1	  1	0.45824	  1	0.90000	  0	 15	 35	 36	  1	
06-May-2013	sub2334	2334	  2	  0	 14	  4	  1	  6	  5	  3	  0	  2	  0	0.48946	  1	0.90000	  0	 16	 37	 48	  1	
06-May-2013	sub2334	2334	  2	  0	 15	  4	  1	  5	  3	  5	  0	  1	  0	0.42659	  1	0.90000	  0	 15	 37	 48	  1	
06-May-2013	sub2334	2334	  2	  0	 16	  4	  1	  2	  4	  3	  1	  1	  0	0.52538	  0	0.80000	  0	 12	 40	 41	  0	
06-May-2013	sub2334	2334	  2	  0	 17	  4	  1	  2	  4	  3	  1	  2	  1	0.30780	  1	0.80000	  0	 12	 30	 31	  1	
06-May-2013	sub2334	2334	  2	  0	 18	  4	  1	  6	  5	  3	  0	  1	  1	0.57732	  0	0.70000	  0	 16	 47	 38	  0	
06-May-2013	sub2334	2334	  2	  0	 19	  4	  1	  1	  1	  3	  1	  1	  1	0.68319	  1	0.70000	  0	 11	 30	 31	  0	
06-May-2013	sub2334	2334	  2	  0	 20	  4	  1	  3	  2	  2	  1	  1	  1	0.59709	  1	0.70000	  0	 13	 32	 33	  0	
06-May-2013	sub2334	2334	  2	  0	 21	  4	  1	  1	  1	  3	  1	  2	  0	0.46914	  0	0.60000	  0	 11	 40	 41	  1	
06-May-2013	sub2334	2334	  2	  0	 22	  4	  1	  2	  4	  3	  1	  1	  0	0.48184	  0	0.60000	  0	 12	 40	 41	  1	
06-May-2013	sub2334	2334	  2	  0	 23	  4	  1	  3	  2	  2	  0	  2	  1	0.42800	  0	0.60000	  0	 13	 44	 39	  1	
06-May-2013	sub2334	2334	  2	  0	 24	  4	  1	  3	  2	  2	  1	  2	  0	0.35273	  0	0.60000	  0	 13	 42	 43	  1	
06-May-2013	sub2334	2334	  2	  0	 25	  4	  1	  6	  5	  3	  0	  1	  1	0.50874	  0	0.60000	  0	 16	 47	 38	  0	
06-May-2013	sub2334	2334	  2	  0	 26	  4	  1	  2	  4	  3	  1	  2	  1	0.45540	  1	0.50000	  0	 12	 30	 31	  1	
06-May-2013	sub2334	2334	  2	  0	 27	  4	  1	  6	  5	  3	  0	  1	  1	0.41616	  0	0.50000	  0	 16	 47	 38	  1	
06-May-2013	sub2334	2334	  2	  0	 28	  4	  1	  3	  2	  2	  1	  2	  0	0.51009	  0	0.50000	  1	 13	 42	 51	  0	
06-May-2013	sub2334	2334	  2	  0	 29	  4	  1	  2	  4	  3	  1	  2	  1	0.58833	  1	0.90000	  0	 12	 30	 31	  0	
06-May-2013	sub2334	2334	  2	  0	 30	  4	  1	  1	  1	  3	  1	  2	  0	0.55505	  0	0.80000	  0	 11	 40	 41	  0	
06-May-2013	sub2334	2334	  2	  0	 31	  4	  1	  5	  3	  5	  1	  1	  1	0.43507	  1	0.80000	  0	 15	 35	 36	  1	
06-May-2013	sub2334	2334	  2	  0	 32	  4	  1	  2	  4	  3	  1	  2	  1	0.56396	  1	0.80000	  0	 12	 30	 31	  0	
06-May-2013	sub2334	2334	  2	  0	 33	  4	  1	  6	  5	  3	  1	  1	  0	0.54957	  0	0.80000	  0	 16	 45	 46	  0	
06-May-2013	sub2334	2334	  2	  0	 34	  4	  1	  1	  1	  3	  1	  2	  0	0.43990	  0	0.80000	  0	 11	 40	 41	  1	
06-May-2013	sub2334	2334	  2	  0	 35	  4	  1	  3	  2	  2	  1	  1	  1	0.69243	  1	0.70000	  0	 13	 32	 33	  0	
06-May-2013	sub2334	2334	  2	  0	 36	  4	  1	  2	  4	  3	  1	  1	  0	0.42811	  0	0.70000	  0	 12	 40	 41	  1	
06-May-2013	sub2334	2334	  2	  0	 37	  4	  1	  4	  6	  4	  1	  2	  1	0.53139	  1	0.70000	  0	 14	 32	 33	  0	
06-May-2013	sub2334	2334	  2	  0	 38	  4	  1	  5	  3	  5	  0	  2	  1	0.56686	  0	0.70000	  0	 15	 47	 38	  0	
06-May-2013	sub2334	2334	  2	  0	 39	  4	  1	  3	  2	  2	  0	  2	  1	0.35677	  0	0.70000	  0	 13	 44	 39	  1	
06-May-2013	sub2334	2334	  2	  0	 40	  4	  1	  4	  6	  4	  1	  2	  1	0.32005	  1	0.70000	  0	 14	 32	 33	  1	
06-May-2013	sub2334	2334	  2	  0	 41	  4	  1	  1	  1	  3	  1	  1	  1	0.36152	  1	0.60000	  0	 11	 30	 31	  1	
06-May-2013	sub2334	2334	  2	  0	 42	  4	  1	  1	  1	  3	  1	  1	  1	0.62986	  1	0.60000	  1	 11	 30	 51	  0	
06-May-2013	sub2334	2334	  2	  0	 43	  4	  1	  5	  3	  5	  1	  2	  0	0.62456	  0	0.90000	  0	 15	 45	 46	  0	
06-May-2013	sub2334	2334	  2	  0	 44	  4	  1	  6	  5	  3	  0	  1	  1	0.39301	  0	0.80000	  0	 16	 47	 38	  1	
06-May-2013	sub2334	2334	  2	  0	 45	  4	  1	  6	  5	  3	  0	  1	  1	0.39747	  0	0.80000	  0	 16	 47	 38	  1	
06-May-2013	sub2334	2334	  2	  0	 46	  4	  1	  5	  3	  5	  1	  1	  1	0.52254	  1	0.80000	  0	 15	 35	 36	  0	
06-May-2013	sub2334	2334	  2	  0	 47	  4	  1	  5	  3	  5	  0	  1	  0	0.42693	  1	0.80000	  0	 15	 37	 48	  1	
06-May-2013	sub2334	2334	  2	  0	 48	  4	  1	  5	  3	  5	  1	  2	  0	0.40371	  0	0.80000	  0	 15	 45	 46	  1	
06-May-2013	sub2334	2334	  2	  0	 49	  4	  1	  3	  2	  2	  1	  1	  1	0.38511	  1	0.80000	  0	 13	 32	 33	  1	
06-May-2013	sub2334	2334	  2	  0	 50	  4	  1	  4	  6	  4	  0	  2	  0	0.50592	  1	0.80000	  0	 14	 34	 49	  0	
06-May-2013	sub2334	2334	  2	  0	 51	  4	  1	  4	  6	  4	  1	  1	  0	0.34108	  0	0.70000	  0	 14	 42	 43	  1	
06-May-2013	sub2334	2334	  2	  0	 52	  4	  1	  4	  6	  4	  0	  2	  0	0.41030	  1	0.70000	  0	 14	 34	 49	  1	
06-May-2013	sub2334	2334	  2	  0	 53	  4	  1	  4	  6	  4	  1	  1	  0	0.42001	  0	0.70000	  0	 14	 42	 43	  1	
06-May-2013	sub2334	2334	  2	  0	 54	  4	  1	  5	  3	  5	  0	  2	  1	0.72342	  0	0.70000	  1	 15	 47	 51	  0	
06-May-2013	sub2334	2334	  2	  0	 55	  4	  1	  6	  5	  3	  1	  1	  0	0.29053	  0	0.90000	  0	 16	 45	 46	  1	
06-May-2013	sub2334	2334	  2	  0	 56	  4	  1	  2	  4	  3	  1	  2	  1	0.57354	  1	0.90000	  0	 12	 30	 31	  0	
06-May-2013	sub2334	2334	  2	  0	 57	  4	  1	  4	  6	  4	  1	  1	  0	0.67446	  0	0.90000	  0	 14	 42	 43	  0	
06-May-2013	sub2334	2334	  2	  0	 58	  4	  1	  3	  2	  2	  1	  2	  0	0.57069	  0	0.90000	  0	 13	 42	 43	  0	
06-May-2013	sub2334	2334	  2	  0	 59	  4	  1	  4	  6	  4	  1	  1	  0	0.37652	  0	0.80000	  0	 14	 42	 43	  1	
06-May-2013	sub2334	2334	  2	  0	 60	  4	  1	  1	  1	  3	  1	  1	  1	0.47980	  1	0.80000	  0	 11	 30	 31	  1	
06-May-2013	sub2334	2334	  2	  0	 61	  4	  1	  1	  1	  3	  1	  1	  1	0.40577	  1	0.80000	  0	 11	 30	 31	  1	
06-May-2013	sub2334	2334	  2	  0	 62	  4	  1	  4	  6	  4	  1	  2	  1	0.57765	  1	0.80000	  0	 14	 32	 33	  0	
06-May-2013	sub2334	2334	  2	  0	 63	  4	  1	  5	  3	  5	  1	  2	  0	0.62157	  0	0.80000	  0	 15	 45	 46	  0	
06-May-2013	sub2334	2334	  2	  0	 64	  4	  1	  6	  5	  3	  1	  1	  0	0.44104	  0	0.80000	  0	 16	 45	 46	  1	
06-May-2013	sub2334	2334	  2	  0	 65	  4	  1	  3	  2	  2	  1	  1	  1	0.51889	  1	0.80000	  0	 13	 32	 33	  0	
06-May-2013	sub2334	2334	  2	  0	 66	  4	  1	  3	  2	  2	  1	  1	  1	0.44979	  1	0.80000	  0	 13	 32	 33	  1	
06-May-2013	sub2334	2334	  2	  0	 67	  4	  1	  3	  2	  2	  1	  2	  0	0.65358	  0	0.80000	  0	 13	 42	 43	  0	
06-May-2013	sub2334	2334	  2	  0	 68	  4	  1	  2	  4	  3	  1	  1	  0	0.36804	  0	0.70000	  0	 12	 40	 41	  1	
06-May-2013	sub2334	2334	  2	  0	 69	  4	  1	  2	  4	  3	  1	  2	  1	0.37222	  1	0.70000	  0	 12	 30	 31	  1	
06-May-2013	sub2334	2334	  2	  0	 70	  4	  1	  1	  1	  3	  1	  1	  1	0.54041	  1	0.70000	  0	 11	 30	 31	  0	
06-May-2013	sub2334	2334	  2	  0	 71	  4	  1	  3	  2	  2	  1	  2	  0	0.40119	  0	0.70000	  0	 13	 42	 43	  1	
06-May-2013	sub2334	2334	  2	  0	 72	  4	  1	  6	  5	  3	  1	  1	  0	0.51729	  0	0.70000	  0	 16	 45	 46	  0	
06-May-2013	sub2334	2334	  2	  0	 73	  4	  1	  2	  4	  3	  1	  2	  1	0.62466	  1	0.70000	  0	 12	 30	 31	  0	
06-May-2013	sub2334	2334	  2	  0	 74	  4	  1	  2	  4	  3	  1	  2	  1	0.43244	  1	0.70000	  0	 12	 30	 31	  1	
06-May-2013	sub2334	2334	  2	  0	 75	  4	  1	  6	  5	  3	  1	  1	  0	0.58480	  0	0.70000	  0	 16	 45	 46	  0	
06-May-2013	sub2334	2334	  2	  0	 76	  4	  2	  1	  1	  3	  1	  2	  0	0.41203	  0	0.70000	  0	 21	 80	 81	  1	
06-May-2013	sub2334	2334	  2	  0	 77	  4	  2	  3	  2	  2	  0	  2	  1	0.51962	  0	0.70000	  0	 23	 84	 69	  0	
06-May-2013	sub2334	2334	  2	  0	 78	  4	  2	  4	  6	  4	  1	  1	  0	0.46863	  0	0.70000	  0	 24	 82	 83	  1	
06-May-2013	sub2334	2334	  2	  0	 79	  4	  2	  2	  4	  3	  1	  2	  1	0.60109	  1	0.70000	  0	 22	 60	 61	  0	
06-May-2013	sub2334	2334	  2	  0	 80	  4	  2	  3	  2	  2	  0	  2	  1	0.66809	  0	0.70000	  0	 23	 84	 69	  0	
06-May-2013	sub2334	2334	  2	  0	 81	  4	  2	  3	  2	  2	  1	  2	  0	0.39308	  0	0.60000	  0	 23	 82	 83	  1	
06-May-2013	sub2334	2334	  2	  0	 82	  4	  2	  3	  2	  2	  1	  1	  1	0.33372	  1	0.60000	  0	 23	 62	 63	  1	
06-May-2013	sub2334	2334	  2	  0	 83	  4	  2	  1	  1	  3	  1	  2	  0	0.59076	  0	0.60000	  0	 21	 80	 81	  0	
06-May-2013	sub2334	2334	  2	  0	 84	  4	  2	  3	  2	  2	  1	  1	  1	0.42388	  1	0.60000	  0	 23	 62	 63	  1	
06-May-2013	sub2334	2334	  2	  0	 85	  4	  2	  5	  3	  5	  0	  2	  1	0.57245	  0	0.60000	  0	 25	 87	 68	  0	
06-May-2013	sub2334	2334	  2	  0	 86	  4	  2	  4	  6	  4	  1	  1	  0	0.53148	  0	0.60000	  0	 24	 82	 83	  0	
06-May-2013	sub2334	2334	  2	  0	 87	  4	  2	  4	  6	  4	  1	  2	  1	0.41211	  1	0.60000	  0	 24	 62	 63	  1	
06-May-2013	sub2334	2334	  2	  0	 88	  4	  2	  6	  5	  3	  0	  2	  0	2.62287	  1	0.60000	  1	 26	 67	 51	  0	
06-May-2013	sub2334	2334	  2	  0	 89	  4	  2	  5	  3	  5	  0	  1	  0	0.54015	  1	0.70000	  0	 25	 67	 88	  0	
06-May-2013	sub2334	2334	  2	  0	 90	  4	  2	  3	  2	  2	  1	  1	  1	0.47141	  1	0.70000	  0	 23	 62	 63	  1	
06-May-2013	sub2334	2334	  2	  0	 91	  4	  2	  6	  5	  3	  0	  2	  0	0.41815	  1	0.70000	  0	 26	 67	 88	  1	
06-May-2013	sub2334	2334	  2	  0	 92	  4	  2	  2	  4	  3	  1	  1	  0	0.38654	  0	0.70000	  0	 22	 80	 81	  1	
06-May-2013	sub2334	2334	  2	  0	 93	  4	  2	  1	  1	  3	  1	  1	  1	1.17812	  1	0.70000	  1	 21	 60	 51	  0	
06-May-2013	sub2334	2334	  2	  0	 94	  4	  2	  6	  5	  3	  0	  1	  1	0.50276	  0	0.80000	  0	 26	 87	 68	  0	
06-May-2013	sub2334	2334	  2	  0	 95	  4	  2	  5	  3	  5	  0	  1	  0	0.49368	  1	0.80000	  0	 25	 67	 88	  1	
06-May-2013	sub2334	2334	  2	  0	 96	  4	  2	  4	  6	  4	  1	  2	  1	0.49128	  1	0.80000	  0	 24	 62	 63	  1	
06-May-2013	sub2334	2334	  2	  0	 97	  4	  2	  1	  1	  3	  1	  1	  1	0.40937	  1	0.80000	  0	 21	 60	 61	  1	
06-May-2013	sub2334	2334	  2	  0	 98	  4	  2	  5	  3	  5	  0	  1	  0	0.44152	  1	0.80000	  0	 25	 67	 88	  1	
06-May-2013	sub2334	2334	  2	  0	 99	  4	  2	  3	  2	  2	  1	  2	  0	0.40818	  0	0.80000	  0	 23	 82	 83	  1	
06-May-2013	sub2334	2334	  2	  0	100	  4	  2	  1	  1	  3	  1	  1	  1	0.63671	  1	0.80000	  0	 21	 60	 61	  0	
06-May-2013	sub2334	2334	  2	  0	101	  4	  2	  6	  5	  3	  1	  1	  0	0.42753	  0	0.70000	  0	 26	 85	 86	  1	
06-May-2013	sub2334	2334	  2	  0	102	  4	  2	  3	  2	  2	  1	  1	  1	0.48279	  1	0.70000	  0	 23	 62	 63	  1	
06-May-2013	sub2334	2334	  2	  0	103	  4	  2	  1	  1	  3	  1	  2	  0	0.40671	  0	0.70000	  0	 21	 80	 81	  1	
06-May-2013	sub2334	2334	  2	  0	104	  4	  2	  3	  2	  2	  1	  1	  1	0.46789	  1	0.70000	  0	 23	 62	 63	  1	
06-May-2013	sub2334	2334	  2	  0	105	  4	  2	  5	  3	  5	  0	  1	  0	0.45569	  1	0.70000	  0	 25	 67	 88	  1	
06-May-2013	sub2334	2334	  2	  0	106	  4	  2	  4	  6	  4	  1	  2	  1	0.53349	  1	0.70000	  0	 24	 62	 63	  0	
06-May-2013	sub2334	2334	  2	  0	107	  4	  2	  1	  1	  3	  1	  1	  1	0.43052	  1	0.70000	  0	 21	 60	 61	  1	
06-May-2013	sub2334	2334	  2	  0	108	  4	  2	  2	  4	  3	  1	  1	  0	0.52064	  0	0.70000	  0	 22	 80	 81	  0	
06-May-2013	sub2334	2334	  2	  0	109	  4	  2	  3	  2	  2	  1	  2	  0	0.43591	  0	0.70000	  0	 23	 82	 83	  1	
06-May-2013	sub2334	2334	  2	  0	110	  4	  2	  2	  4	  3	  1	  1	  0	0.45309	  0	0.70000	  0	 22	 80	 81	  1	
06-May-2013	sub2334	2334	  2	  0	111	  4	  2	  4	  6	  4	  0	  2	  0	0.69894	  1	0.70000	  0	 24	 64	 89	  0	
06-May-2013	sub2334	2334	  2	  0	112	  4	  2	  5	  3	  5	  0	  1	  0	0.36538	  1	0.70000	  0	 25	 67	 88	  1	
06-May-2013	sub2334	2334	  2	  0	113	  4	  2	  6	  5	  3	  1	  1	  0	0.84679	  0	0.70000	  1	 26	 85	 51	  0	
06-May-2013	sub2334	2334	  2	  0	114	  4	  2	  5	  3	  5	  0	  1	  0	0.46520	  1	0.80000	  0	 25	 67	 88	  1	
06-May-2013	sub2334	2334	  2	  0	115	  4	  2	  4	  6	  4	  1	  2	  1	0.44048	  1	0.80000	  0	 24	 62	 63	  1	
06-May-2013	sub2334	2334	  2	  0	116	  4	  2	  4	  6	  4	  0	  2	  0	0.42809	  1	0.80000	  0	 24	 64	 89	  1	
06-May-2013	sub2334	2334	  2	  0	117	  4	  2	  5	  3	  5	  0	  2	  1	0.61843	  0	0.80000	  0	 25	 87	 68	  0	
06-May-2013	sub2334	2334	  2	  0	118	  4	  2	  1	  1	  3	  1	  1	  1	0.53951	  1	0.70000	  0	 21	 60	 61	  0	
06-May-2013	sub2334	2334	  2	  0	119	  4	  2	  6	  5	  3	  0	  1	  1	0.49885	  0	0.70000	  0	 26	 87	 68	  1	
06-May-2013	sub2334	2334	  2	  0	120	  4	  2	  2	  4	  3	  1	  1	  0	0.37652	  0	0.70000	  0	 22	 80	 81	  1	
06-May-2013	sub2334	2334	  2	  0	121	  4	  2	  1	  1	  3	  1	  1	  1	0.45570	  1	0.70000	  0	 21	 60	 61	  1	
06-May-2013	sub2334	2334	  2	  0	122	  4	  2	  1	  1	  3	  1	  2	  0	0.38043	  0	0.70000	  0	 21	 80	 81	  1	
06-May-2013	sub2334	2334	  2	  0	123	  4	  2	  2	  4	  3	  1	  2	  1	0.48097	  1	0.70000	  0	 22	 60	 61	  1	
06-May-2013	sub2334	2334	  2	  0	124	  4	  2	  2	  4	  3	  1	  2	  1	0.57995	  1	0.70000	  0	 22	 60	 61	  0	
06-May-2013	sub2334	2334	  2	  0	125	  4	  2	  1	  1	  3	  1	  1	  1	0.42856	  1	0.70000	  0	 21	 60	 61	  1	
06-May-2013	sub2334	2334	  2	  0	126	  4	  2	  4	  6	  4	  1	  2	  1	0.59572	  1	0.70000	  0	 24	 62	 63	  0	
06-May-2013	sub2334	2334	  2	  0	127	  4	  2	  4	  6	  4	  0	  2	  0	0.35248	  1	0.70000	  0	 24	 64	 89	  1	
06-May-2013	sub2334	2334	  2	  0	128	  4	  2	  6	  5	  3	  0	  1	  1	0.51330	  0	0.70000	  0	 26	 87	 68	  0	
06-May-2013	sub2334	2334	  2	  0	129	  4	  2	  3	  2	  2	  1	  2	  0	0.48477	  0	0.70000	  0	 23	 82	 83	  1	
06-May-2013	sub2334	2334	  2	  0	130	  4	  2	  6	  5	  3	  1	  1	  0	0.53392	  0	0.70000	  0	 26	 85	 86	  0	
06-May-2013	sub2334	2334	  2	  0	131	  4	  2	  6	  5	  3	  1	  1	  0	0.39580	  0	0.70000	  0	 26	 85	 86	  1	
06-May-2013	sub2334	2334	  2	  0	132	  4	  2	  2	  4	  3	  1	  1	  0	0.50290	  0	0.70000	  0	 22	 80	 81	  0	
06-May-2013	sub2334	2334	  2	  0	133	  4	  2	  5	  3	  5	  0	  1	  0	0.64898	  1	0.70000	  0	 25	 67	 88	  0	
06-May-2013	sub2334	2334	  2	  0	134	  4	  2	  4	  6	  4	  1	  2	  1	0.51781	  1	0.70000	  0	 24	 62	 63	  0	
06-May-2013	sub2334	2334	  2	  0	135	  4	  2	  3	  2	  2	  1	  1	  1	0.44827	  1	0.70000	  0	 23	 62	 63	  1	
06-May-2013	sub2334	2334	  2	  0	136	  4	  2	  5	  3	  5	  0	  1	  0	0.50697	  1	0.70000	  0	 25	 67	 88	  0	
06-May-2013	sub2334	2334	  2	  0	137	  4	  2	  2	  4	  3	  1	  2	  1	0.43882	  1	0.70000	  0	 22	 60	 61	  1	
06-May-2013	sub2334	2334	  2	  0	138	  4	  2	  6	  5	  3	  1	  1	  0	0.47777	  0	0.70000	  0	 26	 85	 86	  1	
06-May-2013	sub2334	2334	  2	  0	139	  4	  2	  5	  3	  5	  0	  1	  0	0.40850	  1	0.70000	  0	 25	 67	 88	  1	
06-May-2013	sub2334	2334	  2	  0	140	  4	  2	  6	  5	  3	  1	  2	  1	0.45613	  1	0.70000	  0	 26	 65	 66	  1	
06-May-2013	sub2334	2334	  2	  0	141	  4	  2	  2	  4	  3	  1	  2	  1	0.54570	  1	0.60000	  0	 22	 60	 61	  0	
06-May-2013	sub2334	2334	  2	  0	142	  4	  2	  2	  4	  3	  1	  2	  1	0.53363	  1	0.60000	  0	 22	 60	 61	  0	
06-May-2013	sub2334	2334	  2	  0	143	  4	  2	  5	  3	  5	  0	  1	  0	0.50706	  1	0.60000	  0	 25	 67	 88	  0	
06-May-2013	sub2334	2334	  2	  0	144	  4	  2	  1	  1	  3	  1	  2	  0	0.45247	  0	0.60000	  0	 21	 80	 81	  1	
06-May-2013	sub2334	2334	  2	  0	145	  4	  2	  6	  5	  3	  0	  1	  1	0.50375	  0	0.60000	  0	 26	 87	 68	  0	
06-May-2013	sub2334	2334	  2	  0	146	  4	  2	  4	  6	  4	  1	  1	  0	0.53261	  0	0.60000	  0	 24	 82	 83	  0	
06-May-2013	sub2334	2334	  2	  0	147	  4	  2	  2	  4	  3	  1	  1	  0	0.50115	  0	0.60000	  0	 22	 80	 81	  0	
06-May-2013	sub2334	2334	  2	  0	148	  4	  2	  1	  1	  3	  1	  2	  0	0.49752	  0	0.60000	  0	 21	 80	 81	  1	
06-May-2013	sub2334	2334	  2	  0	149	  4	  2	  4	  6	  4	  1	  2	  1	0.58486	  1	0.60000	  0	 24	 62	 63	  0	
06-May-2013	sub2334	2334	  2	  0	150	  4	  2	  5	  3	  5	  0	  1	  0	0.44681	  1	0.60000	  0	 25	 67	 88	  1	
06-May-2013	sub2334	2334	  2	  0	  1	  5	  1	  4	  4	  5	  0	  1	  1	0.59828	  0	0.60000	  0	 14	 44	 39	  0	
06-May-2013	sub2334	2334	  2	  0	  2	  5	  1	  5	  2	  3	  1	  2	  0	0.24088	  0	0.30000	  0	 15	 45	 46	  1	
06-May-2013	sub2334	2334	  2	  0	  3	  5	  1	  3	  1	  6	  1	  1	  1	0.24803	  1	0.30000	  0	 13	 32	 33	  1	
06-May-2013	sub2334	2334	  2	  0	  4	  5	  1	  2	  6	  5	  1	  2	  1	0.13240	  1	0.30000	  0	 12	 30	 31	  1	
06-May-2013	sub2334	2334	  2	  0	  5	  5	  1	  4	  4	  5	  1	  1	  0	0.45498	  0	0.30000	  1	 14	 42	 51	  1	
06-May-2013	sub2334	2334	  2	  0	  6	  5	  1	  6	  3	  4	  0	  1	  1	0.45506	  0	0.90000	  0	 16	 47	 38	  1	
06-May-2013	sub2334	2334	  2	  0	  7	  5	  1	  2	  6	  5	  1	  1	  0	0.62325	  0	0.90000	  0	 12	 40	 41	  0	
06-May-2013	sub2334	2334	  2	  0	  8	  5	  1	  2	  6	  5	  1	  2	  1	0.42177	  1	0.90000	  0	 12	 30	 31	  1	
06-May-2013	sub2334	2334	  2	  0	  9	  5	  1	  2	  6	  5	  1	  2	  1	0.36693	  1	0.90000	  0	 12	 30	 31	  1	
06-May-2013	sub2334	2334	  2	  0	 10	  5	  1	  5	  2	  3	  1	  1	  1	0.50512	  1	0.90000	  0	 15	 35	 36	  0	
06-May-2013	sub2334	2334	  2	  0	 11	  5	  1	  1	  5	  5	  1	  1	  1	0.49740	  1	0.90000	  0	 11	 30	 31	  1	
06-May-2013	sub2334	2334	  2	  0	 12	  5	  1	  1	  5	  5	  1	  1	  1	0.40689	  1	0.90000	  0	 11	 30	 31	  1	
06-May-2013	sub2334	2334	  2	  0	 13	  5	  1	  5	  2	  3	  0	  1	  0	0.49023	  1	0.90000	  0	 15	 37	 48	  1	
06-May-2013	sub2334	2334	  2	  0	 14	  5	  1	  4	  4	  5	  1	  2	  1	0.46396	  1	0.90000	  0	 14	 32	 33	  1	
06-May-2013	sub2334	2334	  2	  0	 15	  5	  1	  1	  5	  5	  1	  2	  0	0.47184	  0	0.90000	  0	 11	 40	 41	  1	
06-May-2013	sub2334	2334	  2	  0	 16	  5	  1	  3	  1	  6	  1	  1	  1	0.57261	  1	0.80000	  0	 13	 32	 33	  0	
06-May-2013	sub2334	2334	  2	  0	 17	  5	  1	  2	  6	  5	  1	  2	  1	0.55183	  1	0.80000	  0	 12	 30	 31	  0	
06-May-2013	sub2334	2334	  2	  0	 18	  5	  1	  1	  5	  5	  1	  1	  1	0.41664	  1	0.70000	  0	 11	 30	 31	  1	
06-May-2013	sub2334	2334	  2	  0	 19	  5	  1	  6	  3	  4	  0	  1	  1	0.53415	  0	0.70000	  0	 16	 47	 38	  0	
06-May-2013	sub2334	2334	  2	  0	 20	  5	  1	  2	  6	  5	  1	  2	  1	0.55533	  1	0.70000	  0	 12	 30	 31	  0	
06-May-2013	sub2334	2334	  2	  0	 21	  5	  1	  3	  1	  6	  1	  1	  1	0.44624	  1	0.60000	  0	 13	 32	 33	  1	
06-May-2013	sub2334	2334	  2	  0	 22	  5	  1	  6	  3	  4	  1	  1	  0	0.48662	  0	0.60000	  0	 16	 45	 46	  1	
06-May-2013	sub2334	2334	  2	  0	 23	  5	  1	  5	  2	  3	  1	  2	  0	0.43167	  0	0.60000	  0	 15	 45	 46	  1	
06-May-2013	sub2334	2334	  2	  0	 24	  5	  1	  3	  1	  6	  1	  2	  0	0.43924	  0	0.60000	  0	 13	 42	 43	  1	
06-May-2013	sub2334	2334	  2	  0	 25	  5	  1	  6	  3	  4	  1	  1	  0	0.59816	  0	0.60000	  0	 16	 45	 46	  0	
06-May-2013	sub2334	2334	  2	  0	 26	  5	  1	  4	  4	  5	  1	  2	  1	0.55760	  1	0.50000	  1	 14	 32	 51	  0	
06-May-2013	sub2334	2334	  2	  0	 27	  5	  1	  1	  5	  5	  1	  1	  1	0.59077	  1	0.90000	  0	 11	 30	 31	  0	
06-May-2013	sub2334	2334	  2	  0	 28	  5	  1	  1	  5	  5	  1	  1	  1	0.71091	  1	0.90000	  0	 11	 30	 31	  0	
06-May-2013	sub2334	2334	  2	  0	 29	  5	  1	  4	  4	  5	  1	  1	  0	0.55379	  0	0.90000	  0	 14	 42	 43	  0	
06-May-2013	sub2334	2334	  2	  0	 30	  5	  1	  5	  2	  3	  0	  2	  1	0.56255	  0	0.80000	  0	 15	 47	 38	  0	
06-May-2013	sub2334	2334	  2	  0	 31	  5	  1	  5	  2	  3	  0	  2	  1	0.46698	  0	0.80000	  0	 15	 47	 38	  1	
06-May-2013	sub2334	2334	  2	  0	 32	  5	  1	  3	  1	  6	  1	  1	  1	0.44865	  1	0.80000	  0	 13	 32	 33	  1	
06-May-2013	sub2334	2334	  2	  0	 33	  5	  1	  4	  4	  5	  1	  2	  1	0.46075	  1	0.80000	  0	 14	 32	 33	  1	
06-May-2013	sub2334	2334	  2	  0	 34	  5	  1	  3	  1	  6	  0	  1	  0	0.49705	  1	0.80000	  0	 13	 34	 49	  1	
06-May-2013	sub2334	2334	  2	  0	 35	  5	  1	  4	  4	  5	  0	  2	  0	0.56525	  1	0.70000	  0	 14	 34	 49	  0	
06-May-2013	sub2334	2334	  2	  0	 36	  5	  1	  1	  5	  5	  1	  1	  1	0.47136	  1	0.70000	  0	 11	 30	 31	  1	
06-May-2013	sub2334	2334	  2	  0	 37	  5	  1	  6	  3	  4	  1	  1	  0	0.53344	  0	0.70000	  0	 16	 45	 46	  0	
06-May-2013	sub2334	2334	  2	  0	 38	  5	  1	  4	  4	  5	  1	  1	  0	0.50495	  0	0.70000	  0	 14	 42	 43	  0	
06-May-2013	sub2334	2334	  2	  0	 39	  5	  1	  1	  5	  5	  1	  2	  0	0.55779	  0	0.70000	  0	 11	 40	 41	  0	
06-May-2013	sub2334	2334	  2	  0	 40	  5	  1	  3	  1	  6	  1	  1	  1	0.59485	  1	0.70000	  0	 13	 32	 33	  0	
06-May-2013	sub2334	2334	  2	  0	 41	  5	  1	  2	  6	  5	  1	  2	  1	0.55861	  1	0.60000	  0	 12	 30	 31	  0	
06-May-2013	sub2334	2334	  2	  0	 42	  5	  1	  6	  3	  4	  0	  1	  1	0.43312	  0	0.60000	  0	 16	 47	 38	  1	
06-May-2013	sub2334	2334	  2	  0	 43	  5	  1	  5	  2	  3	  1	  2	  0	0.51337	  0	0.60000	  0	 15	 45	 46	  0	
06-May-2013	sub2334	2334	  2	  0	 44	  5	  1	  5	  2	  3	  0	  2	  1	0.46436	  0	0.60000	  0	 15	 47	 38	  1	
06-May-2013	sub2334	2334	  2	  0	 45	  5	  1	  4	  4	  5	  1	  1	  0	0.62313	  0	0.60000	  1	 14	 42	 51	  0	
06-May-2013	sub2334	2334	  2	  0	 46	  5	  1	  6	  3	  4	  0	  1	  1	0.44407	  0	0.80000	  0	 16	 47	 38	  1	
06-May-2013	sub2334	2334	  2	  0	 47	  5	  1	  4	  4	  5	  1	  2	  1	0.50148	  1	0.80000	  0	 14	 32	 33	  0	
06-May-2013	sub2334	2334	  2	  0	 48	  5	  1	  3	  1	  6	  0	  1	  0	0.46237	  1	0.80000	  0	 13	 34	 49	  1	
06-May-2013	sub2334	2334	  2	  0	 49	  5	  1	  3	  1	  6	  1	  1	  1	0.42555	  1	0.80000	  0	 13	 32	 33	  1	
06-May-2013	sub2334	2334	  2	  0	 50	  5	  1	  6	  3	  4	  0	  1	  1	0.43519	  0	0.80000	  0	 16	 47	 38	  1	
06-May-2013	sub2334	2334	  2	  0	 51	  5	  1	  1	  5	  5	  1	  1	  1	0.60233	  1	0.70000	  0	 11	 30	 31	  0	
06-May-2013	sub2334	2334	  2	  0	 52	  5	  1	  5	  2	  3	  0	  1	  0	0.53397	  1	0.70000	  0	 15	 37	 48	  0	
06-May-2013	sub2334	2334	  2	  0	 53	  5	  1	  2	  6	  5	  1	  2	  1	3.14450	  1	0.70000	  1	 12	 30	 51	  0	
06-May-2013	sub2334	2334	  2	  0	 54	  5	  1	  5	  2	  3	  1	  2	  0	0.64740	  0	0.90000	  0	 15	 45	 46	  0	
06-May-2013	sub2334	2334	  2	  0	 55	  5	  1	  5	  2	  3	  0	  1	  0	0.37940	  1	0.90000	  0	 15	 37	 48	  1	
06-May-2013	sub2334	2334	  2	  0	 56	  5	  1	  1	  5	  5	  1	  1	  1	0.42142	  1	0.90000	  0	 11	 30	 31	  1	
06-May-2013	sub2334	2334	  2	  0	 57	  5	  1	  6	  3	  4	  1	  1	  0	0.50838	  0	0.90000	  0	 16	 45	 46	  0	
06-May-2013	sub2334	2334	  2	  0	 58	  5	  1	  2	  6	  5	  1	  1	  0	0.65088	  0	0.90000	  0	 12	 40	 41	  0	
06-May-2013	sub2334	2334	  2	  0	 59	  5	  1	  2	  6	  5	  1	  2	  1	0.40472	  1	0.80000	  0	 12	 30	 31	  1	
06-May-2013	sub2334	2334	  2	  0	 60	  5	  1	  6	  3	  4	  1	  1	  0	0.62868	  0	0.80000	  0	 16	 45	 46	  0	
06-May-2013	sub2334	2334	  2	  0	 61	  5	  1	  3	  1	  6	  1	  1	  1	0.73653	  1	0.80000	  0	 13	 32	 33	  0	
06-May-2013	sub2334	2334	  2	  0	 62	  5	  1	  4	  4	  5	  1	  2	  1	0.44029	  1	0.80000	  0	 14	 32	 33	  1	
06-May-2013	sub2334	2334	  2	  0	 63	  5	  1	  2	  6	  5	  1	  1	  0	0.40183	  0	0.80000	  0	 12	 40	 41	  1	
06-May-2013	sub2334	2334	  2	  0	 64	  5	  1	  6	  3	  4	  1	  1	  0	0.49910	  0	0.80000	  0	 16	 45	 46	  1	
06-May-2013	sub2334	2334	  2	  0	 65	  5	  1	  4	  4	  5	  1	  2	  1	0.39858	  1	0.80000	  0	 14	 32	 33	  1	
06-May-2013	sub2334	2334	  2	  0	 66	  5	  1	  3	  1	  6	  1	  1	  1	0.57804	  1	0.80000	  0	 13	 32	 33	  0	
06-May-2013	sub2334	2334	  2	  0	 67	  5	  1	  2	  6	  5	  1	  2	  1	0.38685	  1	0.80000	  0	 12	 30	 31	  1	
06-May-2013	sub2334	2334	  2	  0	 68	  5	  1	  3	  1	  6	  1	  1	  1	0.42787	  1	0.70000	  0	 13	 32	 33	  1	
06-May-2013	sub2334	2334	  2	  0	 69	  5	  1	  6	  3	  4	  1	  2	  1	0.37544	  1	0.70000	  0	 16	 35	 36	  1	
06-May-2013	sub2334	2334	  2	  0	 70	  5	  1	  1	  5	  5	  1	  1	  1	0.52946	  1	0.70000	  0	 11	 30	 31	  0	
06-May-2013	sub2334	2334	  2	  0	 71	  5	  1	  5	  2	  3	  1	  2	  0	0.40398	  0	0.70000	  0	 15	 45	 46	  1	
06-May-2013	sub2334	2334	  2	  0	 72	  5	  1	  3	  1	  6	  0	  1	  0	0.42776	  1	0.70000	  0	 13	 34	 49	  1	
06-May-2013	sub2334	2334	  2	  0	 73	  5	  1	  6	  3	  4	  0	  1	  1	0.46070	  0	0.70000	  0	 16	 47	 38	  1	
06-May-2013	sub2334	2334	  2	  0	 74	  5	  1	  2	  6	  5	  1	  2	  1	0.42345	  1	0.70000	  0	 12	 30	 31	  1	
06-May-2013	sub2334	2334	  2	  0	 75	  5	  1	  1	  5	  5	  1	  1	  1	0.43356	  1	0.70000	  0	 11	 30	 31	  1	
06-May-2013	sub2334	2334	  2	  0	 76	  5	  2	  1	  5	  5	  1	  1	  1	0.59485	  1	0.70000	  0	 21	 60	 61	  0	
06-May-2013	sub2334	2334	  2	  0	 77	  5	  2	  6	  3	  4	  0	  1	  1	0.40384	  0	0.70000	  0	 26	 87	 68	  1	
06-May-2013	sub2334	2334	  2	  0	 78	  5	  2	  5	  2	  3	  0	  2	  1	0.44847	  0	0.70000	  0	 25	 87	 68	  1	
06-May-2013	sub2334	2334	  2	  0	 79	  5	  2	  1	  5	  5	  1	  1	  1	0.62917	  1	0.70000	  0	 21	 60	 61	  0	
06-May-2013	sub2334	2334	  2	  0	 80	  5	  2	  4	  4	  5	  1	  2	  1	0.36576	  1	0.70000	  0	 24	 62	 63	  1	
06-May-2013	sub2334	2334	  2	  0	 81	  5	  2	  5	  2	  3	  0	  1	  0	0.30251	  1	0.60000	  0	 25	 67	 88	  1	
06-May-2013	sub2334	2334	  2	  0	 82	  5	  2	  2	  6	  5	  1	  2	  1	0.26371	  1	0.60000	  0	 22	 60	 61	  1	
06-May-2013	sub2334	2334	  2	  0	 83	  5	  2	  6	  3	  4	  0	  1	  1	0.45538	  0	0.60000	  0	 26	 87	 68	  1	
06-May-2013	sub2334	2334	  2	  0	 84	  5	  2	  5	  2	  3	  0	  2	  1	0.44517	  0	0.60000	  0	 25	 87	 68	  1	
06-May-2013	sub2334	2334	  2	  0	 85	  5	  2	  6	  3	  4	  0	  1	  1	0.44827	  0	0.60000	  0	 26	 87	 68	  1	
06-May-2013	sub2334	2334	  2	  0	 86	  5	  2	  6	  3	  4	  1	  1	  0	0.59737	  0	0.60000	  0	 26	 85	 86	  0	
06-May-2013	sub2334	2334	  2	  0	 87	  5	  2	  2	  6	  5	  1	  2	  1	0.50708	  1	0.60000	  0	 22	 60	 61	  0	
06-May-2013	sub2334	2334	  2	  0	 88	  5	  2	  6	  3	  4	  1	  1	  0	0.55052	  0	0.60000	  0	 26	 85	 86	  0	
06-May-2013	sub2334	2334	  2	  0	 89	  5	  2	  1	  5	  5	  1	  1	  1	0.69348	  1	0.60000	  1	 21	 60	 51	  0	
06-May-2013	sub2334	2334	  2	  0	 90	  5	  2	  3	  1	  6	  1	  1	  1	0.50261	  1	0.70000	  0	 23	 62	 63	  0	
06-May-2013	sub2334	2334	  2	  0	 91	  5	  2	  5	  2	  3	  0	  1	  0	0.89139	  1	0.70000	  1	 25	 67	 51	  0	
06-May-2013	sub2334	2334	  2	  0	 92	  5	  2	  4	  4	  5	  1	  1	  0	0.45603	  0	0.80000	  0	 24	 82	 83	  1	
06-May-2013	sub2334	2334	  2	  0	 93	  5	  2	  2	  6	  5	  1	  2	  1	0.39569	  1	0.80000	  0	 22	 60	 61	  1	
06-May-2013	sub2334	2334	  2	  0	 94	  5	  2	  4	  4	  5	  1	  2	  1	0.42427	  1	0.80000	  0	 24	 62	 63	  1	
06-May-2013	sub2334	2334	  2	  0	 95	  5	  2	  6	  3	  4	  0	  1	  1	0.49794	  0	0.80000	  0	 26	 87	 68	  1	
06-May-2013	sub2334	2334	  2	  0	 96	  5	  2	  1	  5	  5	  1	  1	  1	0.57333	  1	0.80000	  0	 21	 60	 61	  0	
06-May-2013	sub2334	2334	  2	  0	 97	  5	  2	  3	  1	  6	  1	  1	  1	0.57384	  1	0.80000	  0	 23	 62	 63	  0	
06-May-2013	sub2334	2334	  2	  0	 98	  5	  2	  3	  1	  6	  0	  1	  0	0.61212	  1	0.80000	  0	 23	 64	 89	  0	
06-May-2013	sub2334	2334	  2	  0	 99	  5	  2	  2	  6	  5	  1	  2	  1	0.63152	  1	0.80000	  0	 22	 60	 61	  0	
06-May-2013	sub2334	2334	  2	  0	100	  5	  2	  2	  6	  5	  1	  2	  1	0.40069	  1	0.80000	  0	 22	 60	 61	  1	
06-May-2013	sub2334	2334	  2	  0	101	  5	  2	  4	  4	  5	  1	  1	  0	0.44667	  0	0.70000	  0	 24	 82	 83	  1	
06-May-2013	sub2334	2334	  2	  0	102	  5	  2	  1	  5	  5	  1	  1	  1	0.59088	  1	0.70000	  0	 21	 60	 61	  0	
06-May-2013	sub2334	2334	  2	  0	103	  5	  2	  5	  2	  3	  0	  2	  1	0.37335	  0	0.70000	  0	 25	 87	 68	  1	
06-May-2013	sub2334	2334	  2	  0	104	  5	  2	  2	  6	  5	  1	  2	  1	0.67530	  1	0.70000	  0	 22	 60	 61	  0	
06-May-2013	sub2334	2334	  2	  0	105	  5	  2	  4	  4	  5	  1	  2	  1	0.51460	  1	0.70000	  0	 24	 62	 63	  0	
06-May-2013	sub2334	2334	  2	  0	106	  5	  2	  1	  5	  5	  1	  1	  1	0.52772	  1	0.70000	  0	 21	 60	 61	  0	
06-May-2013	sub2334	2334	  2	  0	107	  5	  2	  2	  6	  5	  1	  1	  0	0.39474	  0	0.70000	  0	 22	 80	 81	  1	
06-May-2013	sub2334	2334	  2	  0	108	  5	  2	  1	  5	  5	  1	  2	  0	0.40557	  0	0.70000	  0	 21	 80	 81	  1	
06-May-2013	sub2334	2334	  2	  0	109	  5	  2	  3	  1	  6	  1	  1	  1	0.53720	  1	0.70000	  0	 23	 62	 63	  0	
06-May-2013	sub2334	2334	  2	  0	110	  5	  2	  1	  5	  5	  1	  2	  0	0.38847	  0	0.70000	  0	 21	 80	 81	  1	
06-May-2013	sub2334	2334	  2	  0	111	  5	  2	  3	  1	  6	  0	  2	  1	0.43499	  0	0.70000	  0	 23	 84	 69	  1	
06-May-2013	sub2334	2334	  2	  0	112	  5	  2	  6	  3	  4	  0	  1	  1	0.39497	  0	0.70000	  0	 26	 87	 68	  1	
06-May-2013	sub2334	2334	  2	  0	113	  5	  2	  3	  1	  6	  1	  1	  1	0.45330	  1	0.70000	  0	 23	 62	 63	  1	
06-May-2013	sub2334	2334	  2	  0	114	  5	  2	  3	  1	  6	  1	  1	  1	0.40394	  1	0.70000	  0	 23	 62	 63	  1	
06-May-2013	sub2334	2334	  2	  0	115	  5	  2	  2	  6	  5	  1	  2	  1	0.53734	  1	0.70000	  0	 22	 60	 61	  0	
06-May-2013	sub2334	2334	  2	  0	116	  5	  2	  4	  4	  5	  1	  1	  0	0.48773	  0	0.70000	  0	 24	 82	 83	  1	
06-May-2013	sub2334	2334	  2	  0	117	  5	  2	  1	  5	  5	  1	  1	  1	0.61551	  1	0.70000	  0	 21	 60	 61	  0	
06-May-2013	sub2334	2334	  2	  0	118	  5	  2	  5	  2	  3	  0	  2	  1	0.42422	  0	0.70000	  0	 25	 87	 68	  1	
06-May-2013	sub2334	2334	  2	  0	119	  5	  2	  4	  4	  5	  0	  2	  0	0.61799	  1	0.70000	  0	 24	 64	 89	  0	
06-May-2013	sub2334	2334	  2	  0	120	  5	  2	  3	  1	  6	  1	  1	  1	0.55039	  1	0.70000	  0	 23	 62	 63	  0	
06-May-2013	sub2334	2334	  2	  0	121	  5	  2	  4	  4	  5	  0	  2	  0	0.44966	  1	0.60000	  0	 24	 64	 89	  1	
06-May-2013	sub2334	2334	  2	  0	122	  5	  2	  5	  2	  3	  0	  2	  1	0.52912	  0	0.60000	  0	 25	 87	 68	  0	
06-May-2013	sub2334	2334	  2	  0	123	  5	  2	  6	  3	  4	  0	  1	  1	0.46258	  0	0.60000	  0	 26	 87	 68	  1	
06-May-2013	sub2334	2334	  2	  0	124	  5	  2	  1	  5	  5	  1	  1	  1	0.60117	  1	0.60000	  1	 21	 60	 51	  0	
06-May-2013	sub2334	2334	  2	  0	125	  5	  2	  5	  2	  3	  0	  1	  0	0.40408	  1	0.70000	  0	 25	 67	 88	  1	
06-May-2013	sub2334	2334	  2	  0	126	  5	  2	  3	  1	  6	  1	  2	  0	0.43848	  0	0.70000	  0	 23	 82	 83	  1	
06-May-2013	sub2334	2334	  2	  0	127	  5	  2	  3	  1	  6	  1	  1	  1	0.39859	  1	0.70000	  0	 23	 62	 63	  1	
06-May-2013	sub2334	2334	  2	  0	128	  5	  2	  1	  5	  5	  1	  1	  1	0.62352	  1	0.70000	  0	 21	 60	 61	  0	
06-May-2013	sub2334	2334	  2	  0	129	  5	  2	  4	  4	  5	  1	  2	  1	0.50909	  1	0.70000	  0	 24	 62	 63	  0	
06-May-2013	sub2334	2334	  2	  0	130	  5	  2	  1	  5	  5	  1	  1	  1	0.55351	  1	0.70000	  0	 21	 60	 61	  0	
06-May-2013	sub2334	2334	  2	  0	131	  5	  2	  4	  4	  5	  1	  2	  1	0.58603	  1	0.70000	  0	 24	 62	 63	  0	
06-May-2013	sub2334	2334	  2	  0	132	  5	  2	  4	  4	  5	  1	  2	  1	0.61841	  1	0.70000	  0	 24	 62	 63	  0	
06-May-2013	sub2334	2334	  2	  0	133	  5	  2	  5	  2	  3	  0	  1	  0	0.43085	  1	0.70000	  0	 25	 67	 88	  1	
06-May-2013	sub2334	2334	  2	  0	134	  5	  2	  3	  1	  6	  1	  1	  1	0.53365	  1	0.70000	  0	 23	 62	 63	  0	
06-May-2013	sub2334	2334	  2	  0	135	  5	  2	  4	  4	  5	  1	  2	  1	0.49866	  1	0.70000	  0	 24	 62	 63	  1	
06-May-2013	sub2334	2334	  2	  0	136	  5	  2	  5	  2	  3	  0	  2	  1	0.43284	  0	0.70000	  0	 25	 87	 68	  1	
06-May-2013	sub2334	2334	  2	  0	137	  5	  2	  5	  2	  3	  0	  2	  1	0.42483	  0	0.70000	  0	 25	 87	 68	  1	
06-May-2013	sub2334	2334	  2	  0	138	  5	  2	  5	  2	  3	  0	  2	  1	0.48972	  0	0.70000	  0	 25	 87	 68	  1	
06-May-2013	sub2334	2334	  2	  0	139	  5	  2	  6	  3	  4	  1	  1	  0	0.51829	  0	0.70000	  0	 26	 85	 86	  0	
06-May-2013	sub2334	2334	  2	  0	140	  5	  2	  6	  3	  4	  1	  1	  0	0.41131	  0	0.70000	  0	 26	 85	 86	  1	
06-May-2013	sub2334	2334	  2	  0	141	  5	  2	  2	  6	  5	  1	  2	  1	0.49097	  1	0.60000	  0	 22	 60	 61	  1	
06-May-2013	sub2334	2334	  2	  0	142	  5	  2	  6	  3	  4	  1	  2	  1	0.38027	  1	0.60000	  0	 26	 65	 66	  1	
06-May-2013	sub2334	2334	  2	  0	143	  5	  2	  6	  3	  4	  1	  2	  1	0.42438	  1	0.60000	  0	 26	 65	 66	  1	
06-May-2013	sub2334	2334	  2	  0	144	  5	  2	  5	  2	  3	  0	  1	  0	0.46468	  1	0.60000	  0	 25	 67	 88	  1	
06-May-2013	sub2334	2334	  2	  0	145	  5	  2	  1	  5	  5	  1	  1	  1	0.64231	  1	0.60000	  1	 21	 60	 51	  0	
06-May-2013	sub2334	2334	  2	  0	146	  5	  2	  4	  4	  5	  0	  2	  0	0.64879	  1	0.70000	  0	 24	 64	 89	  0	
06-May-2013	sub2334	2334	  2	  0	147	  5	  2	  2	  6	  5	  1	  2	  1	0.43673	  1	0.70000	  0	 22	 60	 61	  1	
06-May-2013	sub2334	2334	  2	  0	148	  5	  2	  3	  1	  6	  1	  1	  1	0.67535	  1	0.70000	  0	 23	 62	 63	  0	
06-May-2013	sub2334	2334	  2	  0	149	  5	  2	  2	  6	  5	  1	  2	  1	0.51214	  1	0.70000	  0	 22	 60	 61	  0	
06-May-2013	sub2334	2334	  2	  0	150	  5	  2	  2	  6	  5	  1	  1	  0	0.46162	  0	0.70000	  0	 22	 80	 81	  1	
06-May-2013	sub2334	2334	  2	  0	  1	  6	  1	  2	  6	  1	  1	  1	  0	0.40498	  0	0.60000	  0	 12	 40	 41	  1	
06-May-2013	sub2334	2334	  2	  0	  2	  6	  1	  6	  1	  5	  1	  2	  1	0.10029	  1	0.30000	  0	 16	 35	 36	  1	
06-May-2013	sub2334	2334	  2	  0	  3	  6	  1	  3	  2	  1	  1	  1	  1	0.34038	  1	0.30000	  1	 13	 32	 51	  1	
06-May-2013	sub2334	2334	  2	  0	  4	  6	  1	  4	  5	  6	  1	  2	  1	0.23433	  1	0.90000	  0	 14	 32	 33	  1	
06-May-2013	sub2334	2334	  2	  0	  5	  6	  1	  1	  4	  6	  1	  2	  0	0.39974	  0	0.90000	  0	 11	 40	 41	  1	
06-May-2013	sub2334	2334	  2	  0	  6	  6	  1	  4	  5	  6	  0	  2	  0	0.26897	  1	0.90000	  0	 14	 34	 49	  1	
06-May-2013	sub2334	2334	  2	  0	  7	  6	  1	  6	  1	  5	  1	  1	  0	0.44615	  0	0.90000	  0	 16	 45	 46	  1	
06-May-2013	sub2334	2334	  2	  0	  8	  6	  1	  1	  4	  6	  1	  2	  0	0.47276	  0	0.90000	  0	 11	 40	 41	  1	
06-May-2013	sub2334	2334	  2	  0	  9	  6	  1	  2	  6	  1	  1	  1	  0	0.38830	  0	0.90000	  0	 12	 40	 41	  1	
06-May-2013	sub2334	2334	  2	  0	 10	  6	  1	  1	  4	  6	  1	  2	  0	0.34710	  0	0.90000	  0	 11	 40	 41	  1	
06-May-2013	sub2334	2334	  2	  0	 11	  6	  1	  4	  5	  6	  1	  2	  1	0.62411	  1	0.90000	  0	 14	 32	 33	  0	
06-May-2013	sub2334	2334	  2	  0	 12	  6	  1	  2	  6	  1	  1	  2	  1	0.50928	  1	0.90000	  0	 12	 30	 31	  0	
06-May-2013	sub2334	2334	  2	  0	 13	  6	  1	  5	  3	  6	  1	  1	  1	0.60623	  1	0.90000	  0	 15	 35	 36	  0	
06-May-2013	sub2334	2334	  2	  0	 14	  6	  1	  6	  1	  5	  1	  2	  1	0.45628	  1	0.90000	  0	 16	 35	 36	  1	
06-May-2013	sub2334	2334	  2	  0	 15	  6	  1	  4	  5	  6	  1	  2	  1	0.49999	  1	0.90000	  0	 14	 32	 33	  1	
06-May-2013	sub2334	2334	  2	  0	 16	  6	  1	  4	  5	  6	  0	  2	  0	0.37901	  1	0.80000	  0	 14	 34	 49	  1	
06-May-2013	sub2334	2334	  2	  0	 17	  6	  1	  4	  5	  6	  1	  2	  1	0.34147	  1	0.80000	  0	 14	 32	 33	  1	
06-May-2013	sub2334	2334	  2	  0	 18	  6	  1	  2	  6	  1	  1	  1	  0	0.69331	  0	0.70000	  0	 12	 40	 41	  0	
06-May-2013	sub2334	2334	  2	  0	 19	  6	  1	  5	  3	  6	  1	  1	  1	0.70136	  1	0.70000	  1	 15	 35	 51	  0	
06-May-2013	sub2334	2334	  2	  0	 20	  6	  1	  2	  6	  1	  1	  1	  0	0.76413	  0	0.90000	  0	 12	 40	 41	  0	
06-May-2013	sub2334	2334	  2	  0	 21	  6	  1	  6	  1	  5	  0	  2	  0	0.43998	  1	0.90000	  0	 16	 37	 48	  1	
06-May-2013	sub2334	2334	  2	  0	 22	  6	  1	  1	  4	  6	  1	  2	  0	0.47028	  0	0.90000	  0	 11	 40	 41	  1	
06-May-2013	sub2334	2334	  2	  0	 23	  6	  1	  1	  4	  6	  1	  1	  1	0.63918	  1	0.90000	  0	 11	 30	 31	  0	
06-May-2013	sub2334	2334	  2	  0	 24	  6	  1	  1	  4	  6	  1	  1	  1	0.42912	  1	0.90000	  0	 11	 30	 31	  1	
06-May-2013	sub2334	2334	  2	  0	 25	  6	  1	  2	  6	  1	  1	  1	  0	0.54896	  0	0.90000	  0	 12	 40	 41	  0	
06-May-2013	sub2334	2334	  2	  0	 26	  6	  1	  6	  1	  5	  0	  2	  0	0.56476	  1	0.90000	  0	 16	 37	 48	  0	
06-May-2013	sub2334	2334	  2	  0	 27	  6	  1	  6	  1	  5	  0	  1	  1	0.43809	  0	0.90000	  0	 16	 47	 38	  1	
06-May-2013	sub2334	2334	  2	  0	 28	  6	  1	  1	  4	  6	  1	  1	  1	0.53854	  1	0.90000	  0	 11	 30	 31	  0	
06-May-2013	sub2334	2334	  2	  0	 29	  6	  1	  3	  2	  1	  1	  1	  1	0.63206	  1	0.90000	  0	 13	 32	 33	  0	
06-May-2013	sub2334	2334	  2	  0	 30	  6	  1	  5	  3	  6	  1	  1	  1	0.59113	  1	0.80000	  0	 15	 35	 36	  0	
06-May-2013	sub2334	2334	  2	  0	 31	  6	  1	  5	  3	  6	  1	  1	  1	0.44407	  1	0.80000	  0	 15	 35	 36	  1	
06-May-2013	sub2334	2334	  2	  0	 32	  6	  1	  4	  5	  6	  1	  2	  1	0.51345	  1	0.80000	  0	 14	 32	 33	  0	
06-May-2013	sub2334	2334	  2	  0	 33	  6	  1	  2	  6	  1	  1	  1	  0	0.47690	  0	0.80000	  0	 12	 40	 41	  1	
06-May-2013	sub2334	2334	  2	  0	 34	  6	  1	  3	  2	  1	  1	  1	  1	0.52135	  1	0.80000	  0	 13	 32	 33	  0	
06-May-2013	sub2334	2334	  2	  0	 35	  6	  1	  6	  1	  5	  0	  1	  1	0.60585	  0	0.70000	  0	 16	 47	 38	  0	
06-May-2013	sub2334	2334	  2	  0	 36	  6	  1	  5	  3	  6	  0	  1	  0	0.54512	  1	0.70000	  0	 15	 37	 48	  0	
06-May-2013	sub2334	2334	  2	  0	 37	  6	  1	  3	  2	  1	  1	  1	  1	0.64859	  1	0.70000	  0	 13	 32	 33	  0	
06-May-2013	sub2334	2334	  2	  0	 38	  6	  1	  2	  6	  1	  1	  1	  0	0.68988	  0	0.70000	  0	 12	 40	 41	  0	
06-May-2013	sub2334	2334	  2	  0	 39	  6	  1	  5	  3	  6	  1	  1	  1	0.62666	  1	0.70000	  0	 15	 35	 36	  0	
06-May-2013	sub2334	2334	  2	  0	 40	  6	  1	  3	  2	  1	  1	  1	  1	0.58383	  1	0.70000	  0	 13	 32	 33	  0	
06-May-2013	sub2334	2334	  2	  0	 41	  6	  1	  2	  6	  1	  1	  2	  1	0.69556	  1	0.60000	  1	 12	 30	 51	  0	
06-May-2013	sub2334	2334	  2	  0	 42	  6	  1	  6	  1	  5	  0	  2	  0	0.44657	  1	0.90000	  0	 16	 37	 48	  1	
06-May-2013	sub2334	2334	  2	  0	 43	  6	  1	  1	  4	  6	  1	  2	  0	0.48190	  0	0.90000	  0	 11	 40	 41	  1	
06-May-2013	sub2334	2334	  2	  0	 44	  6	  1	  2	  6	  1	  1	  2	  1	0.42568	  1	0.80000	  0	 12	 30	 31	  1	
06-May-2013	sub2334	2334	  2	  0	 45	  6	  1	  5	  3	  6	  1	  1	  1	0.62854	  1	0.80000	  0	 15	 35	 36	  0	
06-May-2013	sub2334	2334	  2	  0	 46	  6	  1	  2	  6	  1	  1	  2	  1	0.59974	  1	0.80000	  0	 12	 30	 31	  0	
06-May-2013	sub2334	2334	  2	  0	 47	  6	  1	  3	  2	  1	  1	  2	  0	0.45942	  0	0.80000	  0	 13	 42	 43	  1	
06-May-2013	sub2334	2334	  2	  0	 48	  6	  1	  3	  2	  1	  0	  1	  0	0.56063	  1	0.80000	  0	 13	 34	 49	  0	
06-May-2013	sub2334	2334	  2	  0	 49	  6	  1	  5	  3	  6	  0	  1	  0	0.50883	  1	0.80000	  0	 15	 37	 48	  0	
06-May-2013	sub2334	2334	  2	  0	 50	  6	  1	  3	  2	  1	  1	  1	  1	0.62051	  1	0.80000	  0	 13	 32	 33	  0	
06-May-2013	sub2334	2334	  2	  0	 51	  6	  1	  6	  1	  5	  1	  1	  0	0.71902	  0	0.70000	  1	 16	 45	 51	  0	
06-May-2013	sub2334	2334	  2	  0	 52	  6	  1	  5	  3	  6	  0	  1	  0	0.58117	  1	0.90000	  0	 15	 37	 48	  0	
06-May-2013	sub2334	2334	  2	  0	 53	  6	  1	  2	  6	  1	  1	  1	  0	0.47259	  0	0.90000	  0	 12	 40	 41	  1	
06-May-2013	sub2334	2334	  2	  0	 54	  6	  1	  4	  5	  6	  1	  2	  1	0.47962	  1	0.90000	  0	 14	 32	 33	  1	
06-May-2013	sub2334	2334	  2	  0	 55	  6	  1	  3	  2	  1	  1	  1	  1	0.57818	  1	0.90000	  0	 13	 32	 33	  0	
06-May-2013	sub2334	2334	  2	  0	 56	  6	  1	  4	  5	  6	  1	  2	  1	0.38529	  1	0.90000	  0	 14	 32	 33	  1	
06-May-2013	sub2334	2334	  2	  0	 57	  6	  1	  6	  1	  5	  0	  2	  0	0.60311	  1	0.90000	  0	 16	 37	 48	  0	
06-May-2013	sub2334	2334	  2	  0	 58	  6	  1	  2	  6	  1	  1	  1	  0	0.55019	  0	0.90000	  0	 12	 40	 41	  0	
06-May-2013	sub2334	2334	  2	  0	 59	  6	  1	  1	  4	  6	  1	  2	  0	0.61273	  0	0.80000	  0	 11	 40	 41	  0	
06-May-2013	sub2334	2334	  2	  0	 60	  6	  1	  6	  1	  5	  0	  1	  1	0.63594	  0	0.80000	  0	 16	 47	 38	  0	
06-May-2013	sub2334	2334	  2	  0	 61	  6	  1	  6	  1	  5	  1	  1	  0	0.71523	  0	0.80000	  0	 16	 45	 46	  0	
06-May-2013	sub2334	2334	  2	  0	 62	  6	  1	  5	  3	  6	  0	  1	  0	0.49958	  1	0.80000	  0	 15	 37	 48	  1	
06-May-2013	sub2334	2334	  2	  0	 63	  6	  1	  3	  2	  1	  0	  1	  0	0.56769	  1	0.80000	  0	 13	 34	 49	  0	
06-May-2013	sub2334	2334	  2	  0	 64	  6	  1	  5	  3	  6	  0	  1	  0	0.57530	  1	0.80000	  0	 15	 37	 48	  0	
06-May-2013	sub2334	2334	  2	  0	 65	  6	  1	  1	  4	  6	  1	  2	  0	0.52676	  0	0.80000	  0	 11	 40	 41	  0	
06-May-2013	sub2334	2334	  2	  0	 66	  6	  1	  3	  2	  1	  1	  1	  1	0.46579	  1	0.80000	  0	 13	 32	 33	  1	
06-May-2013	sub2334	2334	  2	  0	 67	  6	  1	  4	  5	  6	  1	  2	  1	0.53300	  1	0.80000	  0	 14	 32	 33	  0	
06-May-2013	sub2334	2334	  2	  0	 68	  6	  1	  6	  1	  5	  1	  2	  1	0.51054	  1	0.70000	  0	 16	 35	 36	  0	
06-May-2013	sub2334	2334	  2	  0	 69	  6	  1	  4	  5	  6	  1	  2	  1	0.52455	  1	0.70000	  0	 14	 32	 33	  0	
06-May-2013	sub2334	2334	  2	  0	 70	  6	  1	  4	  5	  6	  1	  2	  1	0.44641	  1	0.70000	  0	 14	 32	 33	  1	
06-May-2013	sub2334	2334	  2	  0	 71	  6	  1	  1	  4	  6	  1	  1	  1	0.44589	  1	0.70000	  0	 11	 30	 31	  1	
06-May-2013	sub2334	2334	  2	  0	 72	  6	  1	  5	  3	  6	  0	  1	  0	0.53882	  1	0.70000	  0	 15	 37	 48	  0	
06-May-2013	sub2334	2334	  2	  0	 73	  6	  1	  3	  2	  1	  1	  2	  0	0.52288	  0	0.70000	  0	 13	 42	 43	  0	
06-May-2013	sub2334	2334	  2	  0	 74	  6	  1	  1	  4	  6	  1	  2	  0	0.41587	  0	0.70000	  0	 11	 40	 41	  1	
06-May-2013	sub2334	2334	  2	  0	 75	  6	  1	  3	  2	  1	  0	  1	  0	0.62909	  1	0.70000	  0	 13	 34	 49	  0	
06-May-2013	sub2334	2334	  2	  0	 76	  6	  2	  4	  5	  6	  0	  1	  1	0.76008	  0	0.70000	  1	 24	 84	 51	  0	
06-May-2013	sub2334	2334	  2	  0	 77	  6	  2	  5	  3	  6	  0	  2	  1	0.61606	  0	0.80000	  0	 25	 87	 68	  0	
06-May-2013	sub2334	2334	  2	  0	 78	  6	  2	  6	  1	  5	  0	  2	  0	0.54273	  1	0.80000	  0	 26	 67	 88	  0	
06-May-2013	sub2334	2334	  2	  0	 79	  6	  2	  1	  4	  6	  1	  2	  0	0.42071	  0	0.80000	  0	 21	 80	 81	  1	
06-May-2013	sub2334	2334	  2	  0	 80	  6	  2	  6	  1	  5	  1	  1	  0	0.00009	  0	0.80000	  0	 26	 85	 86	  1	
06-May-2013	sub2334	2334	  2	  0	 81	  6	  2	  3	  2	  1	  1	  1	  1	0.43875	  1	0.80000	  0	 23	 62	 63	  1	
06-May-2013	sub2334	2334	  2	  0	 82	  6	  2	  1	  4	  6	  1	  2	  0	0.40791	  0	0.80000	  0	 21	 80	 81	  1	
06-May-2013	sub2334	2334	  2	  0	 83	  6	  2	  6	  1	  5	  1	  2	  1	0.38705	  1	0.80000	  0	 26	 65	 66	  1	
06-May-2013	sub2334	2334	  2	  0	 84	  6	  2	  5	  3	  6	  0	  2	  1	0.64557	  0	0.80000	  0	 25	 87	 68	  0	
06-May-2013	sub2334	2334	  2	  0	 85	  6	  2	  4	  5	  6	  1	  2	  1	0.48058	  1	0.70000	  0	 24	 62	 63	  1	
06-May-2013	sub2334	2334	  2	  0	 86	  6	  2	  2	  6	  1	  1	  2	  1	0.39713	  1	0.70000	  0	 22	 60	 61	  1	
06-May-2013	sub2334	2334	  2	  0	 87	  6	  2	  2	  6	  1	  1	  2	  1	0.39131	  1	0.70000	  0	 22	 60	 61	  1	
06-May-2013	sub2334	2334	  2	  0	 88	  6	  2	  2	  6	  1	  1	  2	  1	0.35871	  1	0.70000	  0	 22	 60	 61	  1	
06-May-2013	sub2334	2334	  2	  0	 89	  6	  2	  5	  3	  6	  0	  1	  0	0.43205	  1	0.70000	  0	 25	 67	 88	  1	
06-May-2013	sub2334	2334	  2	  0	 90	  6	  2	  3	  2	  1	  0	  2	  1	0.43474	  0	0.70000	  0	 23	 84	 69	  1	
06-May-2013	sub2334	2334	  2	  0	 91	  6	  2	  5	  3	  6	  0	  2	  1	0.44060	  0	0.70000	  0	 25	 87	 68	  1	
06-May-2013	sub2334	2334	  2	  0	 92	  6	  2	  2	  6	  1	  1	  2	  1	0.44106	  1	0.70000	  0	 22	 60	 61	  1	
06-May-2013	sub2334	2334	  2	  0	 93	  6	  2	  4	  5	  6	  1	  2	  1	2.59847	  1	0.70000	  1	 24	 62	 51	  0	
06-May-2013	sub2334	2334	  2	  0	 94	  6	  2	  2	  6	  1	  1	  2	  1	0.47507	  1	0.80000	  0	 22	 60	 61	  1	
06-May-2013	sub2334	2334	  2	  0	 95	  6	  2	  2	  6	  1	  1	  2	  1	0.38929	  1	0.80000	  0	 22	 60	 61	  1	
06-May-2013	sub2334	2334	  2	  0	 96	  6	  2	  4	  5	  6	  1	  2	  1	0.48183	  1	0.80000	  0	 24	 62	 63	  1	
06-May-2013	sub2334	2334	  2	  0	 97	  6	  2	  4	  5	  6	  1	  2	  1	0.49063	  1	0.80000	  0	 24	 62	 63	  1	
06-May-2013	sub2334	2334	  2	  0	 98	  6	  2	  3	  2	  1	  1	  2	  0	0.49349	  0	0.80000	  0	 23	 82	 83	  1	
06-May-2013	sub2334	2334	  2	  0	 99	  6	  2	  6	  1	  5	  0	  1	  1	0.49037	  0	0.80000	  0	 26	 87	 68	  1	
06-May-2013	sub2334	2334	  2	  0	100	  6	  2	  2	  6	  1	  1	  2	  1	0.46303	  1	0.80000	  0	 22	 60	 61	  1	
06-May-2013	sub2334	2334	  2	  0	101	  6	  2	  4	  5	  6	  1	  2	  1	0.48171	  1	0.70000	  0	 24	 62	 63	  1	
06-May-2013	sub2334	2334	  2	  0	102	  6	  2	  2	  6	  1	  1	  2	  1	0.37607	  1	0.70000	  0	 22	 60	 61	  1	
06-May-2013	sub2334	2334	  2	  0	103	  6	  2	  2	  6	  1	  1	  2	  1	0.42169	  1	0.70000	  0	 22	 60	 61	  1	
06-May-2013	sub2334	2334	  2	  0	104	  6	  2	  4	  5	  6	  1	  2	  1	0.36329	  1	0.70000	  0	 24	 62	 63	  1	
06-May-2013	sub2334	2334	  2	  0	105	  6	  2	  3	  2	  1	  1	  1	  1	0.65334	  1	0.70000	  0	 23	 62	 63	  0	
06-May-2013	sub2334	2334	  2	  0	106	  6	  2	  3	  2	  1	  0	  1	  0	0.42843	  1	0.70000	  0	 23	 64	 89	  1	
06-May-2013	sub2334	2334	  2	  0	107	  6	  2	  2	  6	  1	  1	  1	  0	0.51969	  0	0.70000	  0	 22	 80	 81	  0	
06-May-2013	sub2334	2334	  2	  0	108	  6	  2	  1	  4	  6	  1	  2	  0	0.41665	  0	0.70000	  0	 21	 80	 81	  1	
06-May-2013	sub2334	2334	  2	  0	109	  6	  2	  3	  2	  1	  1	  1	  1	0.40679	  1	0.70000	  0	 23	 62	 63	  1	
06-May-2013	sub2334	2334	  2	  0	110	  6	  2	  6	  1	  5	  1	  2	  1	0.53850	  1	0.70000	  0	 26	 65	 66	  0	
06-May-2013	sub2334	2334	  2	  0	111	  6	  2	  5	  3	  6	  0	  2	  1	0.60360	  0	0.70000	  0	 25	 87	 68	  0	
06-May-2013	sub2334	2334	  2	  0	112	  6	  2	  6	  1	  5	  0	  2	  0	0.41053	  1	0.70000	  0	 26	 67	 88	  1	
06-May-2013	sub2334	2334	  2	  0	113	  6	  2	  3	  2	  1	  1	  2	  0	0.46856	  0	0.70000	  0	 23	 82	 83	  1	
06-May-2013	sub2334	2334	  2	  0	114	  6	  2	  6	  1	  5	  1	  2	  1	0.56298	  1	0.70000	  0	 26	 65	 66	  0	
06-May-2013	sub2334	2334	  2	  0	115	  6	  2	  5	  3	  6	  0	  2	  1	0.46968	  0	0.70000	  0	 25	 87	 68	  1	
06-May-2013	sub2334	2334	  2	  0	116	  6	  2	  1	  4	  6	  1	  1	  1	0.42503	  1	0.70000	  0	 21	 60	 61	  1	
06-May-2013	sub2334	2334	  2	  0	117	  6	  2	  1	  4	  6	  1	  2	  0	0.31080	  0	0.70000	  0	 21	 80	 81	  1	
06-May-2013	sub2334	2334	  2	  0	118	  6	  2	  5	  3	  6	  0	  1	  0	0.42713	  1	0.70000	  0	 25	 67	 88	  1	
06-May-2013	sub2334	2334	  2	  0	119	  6	  2	  4	  5	  6	  1	  2	  1	0.48829	  1	0.70000	  0	 24	 62	 63	  1	
06-May-2013	sub2334	2334	  2	  0	120	  6	  2	  1	  4	  6	  1	  2	  0	0.46963	  0	0.70000	  0	 21	 80	 81	  1	
06-May-2013	sub2334	2334	  2	  0	121	  6	  2	  4	  5	  6	  1	  2	  1	0.53407	  1	0.60000	  0	 24	 62	 63	  0	
06-May-2013	sub2334	2334	  2	  0	122	  6	  2	  1	  4	  6	  1	  1	  1	0.44244	  1	0.60000	  0	 21	 60	 61	  1	
06-May-2013	sub2334	2334	  2	  0	123	  6	  2	  1	  4	  6	  1	  1	  1	0.71435	  1	0.60000	  1	 21	 60	 51	  0	
06-May-2013	sub2334	2334	  2	  0	124	  6	  2	  4	  5	  6	  1	  2	  1	0.47727	  1	0.70000	  0	 24	 62	 63	  1	
06-May-2013	sub2334	2334	  2	  0	125	  6	  2	  1	  4	  6	  1	  1	  1	0.53678	  1	0.70000	  0	 21	 60	 61	  0	
06-May-2013	sub2334	2334	  2	  0	126	  6	  2	  3	  2	  1	  1	  2	  0	0.47694	  0	0.70000	  0	 23	 82	 83	  1	
06-May-2013	sub2334	2334	  2	  0	127	  6	  2	  5	  3	  6	  0	  1	  0	0.65926	  1	0.70000	  0	 25	 67	 88	  0	
06-May-2013	sub2334	2334	  2	  0	128	  6	  2	  5	  3	  6	  0	  2	  1	0.42214	  0	0.70000	  0	 25	 87	 68	  1	
06-May-2013	sub2334	2334	  2	  0	129	  6	  2	  1	  4	  6	  1	  1	  1	0.63527	  1	0.70000	  0	 21	 60	 61	  0	
06-May-2013	sub2334	2334	  2	  0	130	  6	  2	  3	  2	  1	  1	  2	  0	0.40405	  0	0.70000	  0	 23	 82	 83	  1	
06-May-2013	sub2334	2334	  2	  0	131	  6	  2	  6	  1	  5	  1	  2	  1	0.52398	  1	0.70000	  0	 26	 65	 66	  0	
06-May-2013	sub2334	2334	  2	  0	132	  6	  2	  5	  3	  6	  0	  2	  1	0.46349	  0	0.70000	  0	 25	 87	 68	  1	
06-May-2013	sub2334	2334	  2	  0	133	  6	  2	  6	  1	  5	  0	  2	  0	0.62708	  1	0.70000	  0	 26	 67	 88	  0	
06-May-2013	sub2334	2334	  2	  0	134	  6	  2	  3	  2	  1	  1	  1	  1	0.57584	  1	0.70000	  0	 23	 62	 63	  0	
06-May-2013	sub2334	2334	  2	  0	135	  6	  2	  2	  6	  1	  1	  2	  1	0.53685	  1	0.70000	  0	 22	 60	 61	  0	
06-May-2013	sub2334	2334	  2	  0	136	  6	  2	  1	  4	  6	  1	  2	  0	0.43842	  0	0.70000	  0	 21	 80	 81	  1	
06-May-2013	sub2334	2334	  2	  0	137	  6	  2	  6	  1	  5	  1	  2	  1	0.44190	  1	0.70000	  0	 26	 65	 66	  1	
06-May-2013	sub2334	2334	  2	  0	138	  6	  2	  5	  3	  6	  0	  2	  1	0.40585	  0	0.70000	  0	 25	 87	 68	  1	
06-May-2013	sub2334	2334	  2	  0	139	  6	  2	  2	  6	  1	  1	  2	  1	0.50563	  1	0.70000	  0	 22	 60	 61	  0	
06-May-2013	sub2334	2334	  2	  0	140	  6	  2	  4	  5	  6	  1	  1	  0	0.49299	  0	0.70000	  0	 24	 82	 83	  1	
06-May-2013	sub2334	2334	  2	  0	141	  6	  2	  3	  2	  1	  1	  1	  1	0.68655	  1	0.60000	  1	 23	 62	 51	  0	
06-May-2013	sub2334	2334	  2	  0	142	  6	  2	  6	  1	  5	  0	  2	  0	0.49946	  1	0.70000	  0	 26	 67	 88	  1	
06-May-2013	sub2334	2334	  2	  0	143	  6	  2	  1	  4	  6	  1	  2	  0	0.50685	  0	0.70000	  0	 21	 80	 81	  0	
06-May-2013	sub2334	2334	  2	  0	144	  6	  2	  1	  4	  6	  1	  2	  0	0.40733	  0	0.70000	  0	 21	 80	 81	  1	
06-May-2013	sub2334	2334	  2	  0	145	  6	  2	  4	  5	  6	  0	  2	  0	0.49853	  1	0.70000	  0	 24	 64	 89	  1	
06-May-2013	sub2334	2334	  2	  0	146	  6	  2	  4	  5	  6	  0	  1	  1	1.96188	  0	0.70000	  1	 24	 84	 51	  0	
06-May-2013	sub2334	2334	  2	  0	147	  6	  2	  6	  1	  5	  0	  2	  0	0.48752	  1	0.80000	  0	 26	 67	 88	  1	
06-May-2013	sub2334	2334	  2	  0	148	  6	  2	  5	  3	  6	  0	  1	  0	0.53318	  1	0.80000	  0	 25	 67	 88	  0	
06-May-2013	sub2334	2334	  2	  0	149	  6	  2	  3	  2	  1	  1	  2	  0	0.68187	  0	0.80000	  0	 23	 82	 83	  0	
06-May-2013	sub2334	2334	  2	  0	150	  6	  2	  5	  3	  6	  0	  1	  0	0.47702	  1	0.80000	  0	 25	 67	 88	  1	
