Date 	 Name 	 ID 	 Gender 	 Appearance 	 Trial 	 Block 	 Bin 	 Condition 	 Category 	 Number 	 Valid 	 Keypress 	 Correct 	 RT 	 Realcorrect 	 Deadline 	 Timeout 	 Stimtrigger 	 Resptrigger 	 Fedtrigger 	 WithinTime 	 
06-May-2013	sub2335	2335	  1	  1	  1	  1	  1	  6	  3	  4	  0	  1	  1	1.85426	  0	0.60000	  1	 16	 47	 51	  0	
06-May-2013	sub2335	2335	  1	  1	  2	  1	  1	  2	  5	  5	  1	  1	  0	0.44429	  0	0.90000	  0	 12	 40	 41	  1	
06-May-2013	sub2335	2335	  1	  1	  3	  1	  1	  1	  2	  4	  1	  1	  1	0.68956	  1	0.90000	  0	 11	 30	 31	  0	
06-May-2013	sub2335	2335	  1	  1	  4	  1	  1	  2	  5	  5	  1	  2	  1	0.90193	  1	0.90000	  1	 12	 30	 51	  0	
06-May-2013	sub2335	2335	  1	  1	  5	  1	  1	  6	  3	  4	  1	  2	  1	0.82793	  1	0.90000	  0	 16	 35	 36	  0	
06-May-2013	sub2335	2335	  1	  1	  6	  1	  1	  4	  6	  5	  1	  2	  1	0.87500	  1	0.90000	  0	 14	 32	 33	  0	
06-May-2013	sub2335	2335	  1	  1	  7	  1	  1	  2	  5	  5	  1	  1	  0	0.70656	  0	0.90000	  0	 12	 40	 41	  0	
06-May-2013	sub2335	2335	  1	  1	  8	  1	  1	  1	  2	  4	  1	  2	  0	0.75714	  0	0.90000	  0	 11	 40	 41	  0	
06-May-2013	sub2335	2335	  1	  1	  9	  1	  1	  1	  2	  4	  1	  2	  0	0.67270	  0	0.90000	  0	 11	 40	 41	  0	
06-May-2013	sub2335	2335	  1	  1	 10	  1	  1	  6	  3	  4	  1	  2	  1	0.62148	  1	0.90000	  0	 16	 35	 36	  0	
06-May-2013	sub2335	2335	  1	  1	 11	  1	  1	  3	  1	  2	  1	  2	  0	0.74078	  0	0.90000	  0	 13	 42	 43	  0	
06-May-2013	sub2335	2335	  1	  1	 12	  1	  1	  2	  5	  5	  1	  1	  0	1.15860	  0	0.90000	  1	 12	 40	 51	  0	
06-May-2013	sub2335	2335	  1	  1	 13	  1	  1	  4	  6	  5	  1	  2	  1	0.87148	  1	0.90000	  0	 14	 32	 33	  0	
06-May-2013	sub2335	2335	  1	  1	 14	  1	  1	  5	  4	  2	  1	  1	  1	0.90747	  1	0.90000	  1	 15	 35	 51	  0	
06-May-2013	sub2335	2335	  1	  1	 15	  1	  1	  3	  1	  2	  1	  2	  0	0.88371	  0	0.90000	  0	 13	 42	 43	  0	
06-May-2013	sub2335	2335	  1	  1	 16	  1	  1	  1	  2	  4	  1	  1	  1	0.97036	  1	0.90000	  1	 11	 30	 51	  0	
06-May-2013	sub2335	2335	  1	  1	 17	  1	  1	  3	  1	  2	  1	  1	  1	0.43830	  1	0.90000	  0	 13	 32	 33	  1	
06-May-2013	sub2335	2335	  1	  1	 18	  1	  1	  1	  2	  4	  1	  2	  0	0.47289	  0	0.90000	  0	 11	 40	 41	  1	
06-May-2013	sub2335	2335	  1	  1	 19	  1	  1	  4	  6	  5	  1	  2	  1	0.51551	  1	0.90000	  0	 14	 32	 33	  0	
06-May-2013	sub2335	2335	  1	  1	 20	  1	  1	  3	  1	  2	  1	  1	  1	0.52841	  1	0.90000	  0	 13	 32	 33	  0	
06-May-2013	sub2335	2335	  1	  1	 21	  1	  1	  6	  3	  4	  0	  2	  0	0.40088	  1	0.90000	  0	 16	 37	 48	  1	
06-May-2013	sub2335	2335	  1	  1	 22	  1	  1	  5	  4	  2	  1	  2	  0	0.51853	  0	0.90000	  0	 15	 45	 46	  0	
06-May-2013	sub2335	2335	  1	  1	 23	  1	  1	  2	  5	  5	  1	  2	  1	0.55985	  1	0.90000	  0	 12	 30	 31	  0	
06-May-2013	sub2335	2335	  1	  1	 24	  1	  1	  6	  3	  4	  0	  2	  0	0.43457	  1	0.90000	  0	 16	 37	 48	  1	
06-May-2013	sub2335	2335	  1	  1	 25	  1	  1	  3	  1	  2	  1	  2	  0	0.51582	  0	0.90000	  0	 13	 42	 43	  0	
06-May-2013	sub2335	2335	  1	  1	 26	  1	  1	  2	  5	  5	  1	  2	  1	0.61728	  1	0.90000	  0	 12	 30	 31	  0	
06-May-2013	sub2335	2335	  1	  1	 27	  1	  1	  1	  2	  4	  1	  2	  0	0.69663	  0	0.90000	  0	 11	 40	 41	  0	
06-May-2013	sub2335	2335	  1	  1	 28	  1	  1	  3	  1	  2	  0	  2	  1	0.58976	  0	0.90000	  0	 13	 44	 39	  0	
06-May-2013	sub2335	2335	  1	  1	 29	  1	  1	  4	  6	  5	  1	  1	  0	0.49446	  0	0.90000	  0	 14	 42	 43	  1	
06-May-2013	sub2335	2335	  1	  1	 30	  1	  1	  1	  2	  4	  1	  2	  0	0.57607	  0	0.90000	  0	 11	 40	 41	  0	
06-May-2013	sub2335	2335	  1	  1	 31	  1	  1	  1	  2	  4	  1	  2	  0	0.57587	  0	0.90000	  0	 11	 40	 41	  0	
06-May-2013	sub2335	2335	  1	  1	 32	  1	  1	  5	  4	  2	  0	  2	  1	0.61559	  0	0.90000	  0	 15	 47	 38	  0	
06-May-2013	sub2335	2335	  1	  1	 33	  1	  1	  1	  2	  4	  1	  1	  1	0.67229	  1	0.90000	  0	 11	 30	 31	  0	
06-May-2013	sub2335	2335	  1	  1	 34	  1	  1	  4	  6	  5	  1	  2	  1	0.62415	  1	0.90000	  0	 14	 32	 33	  0	
06-May-2013	sub2335	2335	  1	  1	 35	  1	  1	  3	  1	  2	  0	  2	  1	0.66766	  0	0.90000	  0	 13	 44	 39	  0	
06-May-2013	sub2335	2335	  1	  1	 36	  1	  1	  6	  3	  4	  0	  2	  0	0.58290	  1	0.90000	  0	 16	 37	 48	  0	
06-May-2013	sub2335	2335	  1	  1	 37	  1	  1	  6	  3	  4	  0	  1	  1	0.62188	  0	0.90000	  0	 16	 47	 38	  0	
06-May-2013	sub2335	2335	  1	  1	 38	  1	  1	  4	  6	  5	  1	  2	  1	0.60525	  1	0.90000	  0	 14	 32	 33	  0	
06-May-2013	sub2335	2335	  1	  1	 39	  1	  1	  2	  5	  5	  1	  1	  0	0.57335	  0	0.90000	  0	 12	 40	 41	  0	
06-May-2013	sub2335	2335	  1	  1	 40	  1	  1	  5	  4	  2	  0	  2	  1	0.68265	  0	0.90000	  0	 15	 47	 38	  0	
06-May-2013	sub2335	2335	  1	  1	 41	  1	  1	  5	  4	  2	  1	  2	  0	0.47975	  0	0.90000	  0	 15	 45	 46	  1	
06-May-2013	sub2335	2335	  1	  1	 42	  1	  1	  5	  4	  2	  0	  2	  1	0.56220	  0	0.90000	  0	 15	 47	 38	  0	
06-May-2013	sub2335	2335	  1	  1	 43	  1	  1	  2	  5	  5	  1	  1	  0	0.63601	  0	0.90000	  0	 12	 40	 41	  0	
06-May-2013	sub2335	2335	  1	  1	 44	  1	  1	  6	  3	  4	  1	  2	  1	0.70840	  1	0.90000	  0	 16	 35	 36	  0	
06-May-2013	sub2335	2335	  1	  1	 45	  1	  1	  5	  4	  2	  1	  2	  0	0.56921	  0	0.90000	  0	 15	 45	 46	  0	
06-May-2013	sub2335	2335	  1	  1	 46	  1	  1	  5	  4	  2	  1	  2	  0	0.49086	  0	0.90000	  0	 15	 45	 46	  1	
06-May-2013	sub2335	2335	  1	  1	 47	  1	  1	  4	  6	  5	  1	  2	  1	0.62319	  1	0.90000	  0	 14	 32	 33	  0	
06-May-2013	sub2335	2335	  1	  1	 48	  1	  1	  5	  4	  2	  0	  1	  0	0.57051	  1	0.90000	  0	 15	 37	 48	  0	
06-May-2013	sub2335	2335	  1	  1	 49	  1	  1	  6	  3	  4	  1	  1	  0	0.68999	  0	0.90000	  0	 16	 45	 46	  0	
06-May-2013	sub2335	2335	  1	  1	 50	  1	  1	  2	  5	  5	  1	  2	  1	0.58112	  1	0.90000	  0	 12	 30	 31	  0	
06-May-2013	sub2335	2335	  1	  1	 51	  1	  1	  2	  5	  5	  1	  2	  1	0.59487	  1	0.90000	  0	 12	 30	 31	  0	
06-May-2013	sub2335	2335	  1	  1	 52	  1	  1	  4	  6	  5	  1	  2	  1	0.75908	  1	0.90000	  0	 14	 32	 33	  0	
06-May-2013	sub2335	2335	  1	  1	 53	  1	  1	  3	  1	  2	  1	  1	  1	0.72610	  1	0.90000	  0	 13	 32	 33	  0	
06-May-2013	sub2335	2335	  1	  1	 54	  1	  1	  1	  2	  4	  1	  1	  1	0.57940	  1	0.90000	  0	 11	 30	 31	  0	
06-May-2013	sub2335	2335	  1	  1	 55	  1	  1	  3	  1	  2	  1	  2	  0	0.45204	  0	0.90000	  0	 13	 42	 43	  1	
06-May-2013	sub2335	2335	  1	  1	 56	  1	  1	  2	  5	  5	  1	  1	  0	0.82471	  0	0.90000	  0	 12	 40	 41	  0	
06-May-2013	sub2335	2335	  1	  1	 57	  1	  1	  1	  2	  4	  1	  1	  1	0.74188	  1	0.90000	  0	 11	 30	 31	  0	
06-May-2013	sub2335	2335	  1	  1	 58	  1	  1	  4	  6	  5	  0	  2	  0	0.63719	  1	0.90000	  0	 14	 34	 49	  0	
06-May-2013	sub2335	2335	  1	  1	 59	  1	  1	  2	  5	  5	  1	  1	  0	0.60495	  0	0.90000	  0	 12	 40	 41	  0	
06-May-2013	sub2335	2335	  1	  1	 60	  1	  1	  4	  6	  5	  1	  2	  1	0.83448	  1	0.90000	  0	 14	 32	 33	  0	
06-May-2013	sub2335	2335	  1	  1	 61	  1	  1	  4	  6	  5	  0	  2	  0	0.53389	  1	0.90000	  0	 14	 34	 49	  0	
06-May-2013	sub2335	2335	  1	  1	 62	  1	  1	  6	  3	  4	  0	  2	  0	0.65925	  1	0.90000	  0	 16	 37	 48	  0	
06-May-2013	sub2335	2335	  1	  1	 63	  1	  1	  6	  3	  4	  1	  1	  0	0.47181	  0	0.90000	  0	 16	 45	 46	  1	
06-May-2013	sub2335	2335	  1	  1	 64	  1	  1	  5	  4	  2	  1	  2	  0	0.58546	  0	0.90000	  0	 15	 45	 46	  0	
06-May-2013	sub2335	2335	  1	  1	 65	  1	  1	  3	  1	  2	  1	  2	  0	0.56703	  0	0.90000	  0	 13	 42	 43	  0	
06-May-2013	sub2335	2335	  1	  1	 66	  1	  1	  6	  3	  4	  1	  2	  1	0.53697	  1	0.90000	  0	 16	 35	 36	  0	
06-May-2013	sub2335	2335	  1	  1	 67	  1	  1	  6	  3	  4	  0	  2	  0	0.56463	  1	0.90000	  0	 16	 37	 48	  0	
06-May-2013	sub2335	2335	  1	  1	 68	  1	  1	  2	  5	  5	  1	  1	  0	0.89169	  0	0.90000	  0	 12	 40	 41	  0	
06-May-2013	sub2335	2335	  1	  1	 69	  1	  1	  5	  4	  2	  1	  2	  0	0.50124	  0	0.90000	  0	 15	 45	 46	  0	
06-May-2013	sub2335	2335	  1	  1	 70	  1	  1	  3	  1	  2	  1	  2	  0	0.61026	  0	0.90000	  0	 13	 42	 43	  0	
06-May-2013	sub2335	2335	  1	  1	 71	  1	  1	  4	  6	  5	  1	  2	  1	0.54888	  1	0.90000	  0	 14	 32	 33	  0	
06-May-2013	sub2335	2335	  1	  1	 72	  1	  1	  5	  4	  2	  0	  2	  1	0.57511	  0	0.90000	  0	 15	 47	 38	  0	
06-May-2013	sub2335	2335	  1	  1	 73	  1	  1	  1	  2	  4	  1	  1	  1	0.54556	  1	0.80000	  0	 11	 30	 31	  0	
06-May-2013	sub2335	2335	  1	  1	 74	  1	  1	  3	  1	  2	  0	  2	  1	0.59036	  0	0.80000	  0	 13	 44	 39	  0	
06-May-2013	sub2335	2335	  1	  1	 75	  1	  1	  3	  1	  2	  1	  2	  0	0.46174	  0	0.80000	  0	 13	 42	 43	  1	
06-May-2013	sub2335	2335	  1	  1	  1	  2	  1	  5	  2	  6	  1	  2	  0	0.31153	  0	0.60000	  0	 15	 45	 46	  1	
06-May-2013	sub2335	2335	  1	  1	  2	  2	  1	  6	  1	  3	  1	  2	  1	0.44949	  1	0.30000	  1	 16	 35	 51	  1	
06-May-2013	sub2335	2335	  1	  1	  3	  2	  1	  5	  2	  6	  0	  2	  1	0.44930	  0	0.90000	  0	 15	 47	 38	  1	
06-May-2013	sub2335	2335	  1	  1	  4	  2	  1	  4	  6	  4	  1	  2	  1	0.70304	  1	0.90000	  0	 14	 32	 33	  0	
06-May-2013	sub2335	2335	  1	  1	  5	  2	  1	  4	  6	  4	  1	  1	  0	0.69432	  0	0.90000	  0	 14	 42	 43	  0	
06-May-2013	sub2335	2335	  1	  1	  6	  2	  1	  1	  3	  6	  1	  2	  0	0.60593	  0	0.90000	  0	 11	 40	 41	  0	
06-May-2013	sub2335	2335	  1	  1	  7	  2	  1	  6	  1	  3	  0	  2	  0	0.70974	  1	0.90000	  0	 16	 37	 48	  0	
06-May-2013	sub2335	2335	  1	  1	  8	  2	  1	  2	  5	  4	  1	  2	  1	0.55925	  1	0.90000	  0	 12	 30	 31	  0	
06-May-2013	sub2335	2335	  1	  1	  9	  2	  1	  4	  6	  4	  1	  1	  0	0.77455	  0	0.90000	  0	 14	 42	 43	  0	
06-May-2013	sub2335	2335	  1	  1	 10	  2	  1	  5	  2	  6	  1	  1	  1	0.85093	  1	0.90000	  0	 15	 35	 36	  0	
06-May-2013	sub2335	2335	  1	  1	 11	  2	  1	  6	  1	  3	  0	  2	  0	0.72115	  1	0.90000	  0	 16	 37	 48	  0	
06-May-2013	sub2335	2335	  1	  1	 12	  2	  1	  2	  5	  4	  1	  2	  1	0.89361	  1	0.90000	  0	 12	 30	 31	  0	
06-May-2013	sub2335	2335	  1	  1	 13	  2	  1	  6	  1	  3	  0	  1	  1	0.59668	  0	0.90000	  0	 16	 47	 38	  0	
06-May-2013	sub2335	2335	  1	  1	 14	  2	  1	  3	  4	  3	  1	  2	  0	0.65463	  0	0.90000	  0	 13	 42	 43	  0	
06-May-2013	sub2335	2335	  1	  1	 15	  2	  1	  5	  2	  6	  1	  1	  1	0.92664	  1	0.90000	  1	 15	 35	 51	  0	
06-May-2013	sub2335	2335	  1	  1	 16	  2	  1	  4	  6	  4	  1	  1	  0	0.64255	  0	0.90000	  0	 14	 42	 43	  0	
06-May-2013	sub2335	2335	  1	  1	 17	  2	  1	  2	  5	  4	  1	  2	  1	0.99240	  1	0.90000	  1	 12	 30	 51	  0	
06-May-2013	sub2335	2335	  1	  1	 18	  2	  1	  2	  5	  4	  1	  2	  1	0.46841	  1	0.90000	  0	 12	 30	 31	  1	
06-May-2013	sub2335	2335	  1	  1	 19	  2	  1	  3	  4	  3	  0	  2	  1	0.65116	  0	0.90000	  0	 13	 44	 39	  0	
06-May-2013	sub2335	2335	  1	  1	 20	  2	  1	  5	  2	  6	  1	  1	  1	0.48064	  1	0.90000	  0	 15	 35	 36	  1	
06-May-2013	sub2335	2335	  1	  1	 21	  2	  1	  4	  6	  4	  1	  2	  1	0.57417	  1	0.90000	  0	 14	 32	 33	  0	
06-May-2013	sub2335	2335	  1	  1	 22	  2	  1	  4	  6	  4	  1	  2	  1	0.47989	  1	0.90000	  0	 14	 32	 33	  1	
06-May-2013	sub2335	2335	  1	  1	 23	  2	  1	  4	  6	  4	  1	  2	  1	0.47769	  1	0.90000	  0	 14	 32	 33	  1	
06-May-2013	sub2335	2335	  1	  1	 24	  2	  1	  3	  4	  3	  1	  2	  0	0.54849	  0	0.90000	  0	 13	 42	 43	  0	
06-May-2013	sub2335	2335	  1	  1	 25	  2	  1	  3	  4	  3	  1	  2	  0	0.53104	  0	0.90000	  0	 13	 42	 43	  0	
06-May-2013	sub2335	2335	  1	  1	 26	  2	  1	  3	  4	  3	  1	  1	  1	0.65050	  1	0.90000	  0	 13	 32	 33	  0	
06-May-2013	sub2335	2335	  1	  1	 27	  2	  1	  3	  4	  3	  0	  1	  0	0.47502	  1	0.90000	  0	 13	 34	 49	  1	
06-May-2013	sub2335	2335	  1	  1	 28	  2	  1	  1	  3	  6	  1	  2	  0	0.85710	  0	0.90000	  0	 11	 40	 41	  0	
06-May-2013	sub2335	2335	  1	  1	 29	  2	  1	  5	  2	  6	  0	  2	  1	0.88717	  0	0.90000	  0	 15	 47	 38	  0	
06-May-2013	sub2335	2335	  1	  1	 30	  2	  1	  5	  2	  6	  0	  2	  1	0.83144	  0	0.90000	  0	 15	 47	 38	  0	
06-May-2013	sub2335	2335	  1	  1	 31	  2	  1	  5	  2	  6	  1	  2	  0	0.49596	  0	0.90000	  0	 15	 45	 46	  1	
06-May-2013	sub2335	2335	  1	  1	 32	  2	  1	  2	  5	  4	  1	  1	  0	0.78105	  0	0.90000	  0	 12	 40	 41	  0	
06-May-2013	sub2335	2335	  1	  1	 33	  2	  1	  3	  4	  3	  1	  2	  0	0.86190	  0	0.90000	  0	 13	 42	 43	  0	
06-May-2013	sub2335	2335	  1	  1	 34	  2	  1	  1	  3	  6	  1	  1	  1	0.59648	  1	0.90000	  0	 11	 30	 31	  0	
06-May-2013	sub2335	2335	  1	  1	 35	  2	  1	  1	  3	  6	  1	  1	  1	0.46341	  1	0.90000	  0	 11	 30	 31	  1	
06-May-2013	sub2335	2335	  1	  1	 36	  2	  1	  6	  1	  3	  1	  2	  1	0.76178	  1	0.90000	  0	 16	 35	 36	  0	
06-May-2013	sub2335	2335	  1	  1	 37	  2	  1	  6	  1	  3	  0	  2	  0	0.50917	  1	0.90000	  0	 16	 37	 48	  0	
06-May-2013	sub2335	2335	  1	  1	 38	  2	  1	  1	  3	  6	  1	  1	  1	0.72884	  1	0.90000	  0	 11	 30	 31	  0	
06-May-2013	sub2335	2335	  1	  1	 39	  2	  1	  5	  2	  6	  0	  2	  1	0.89300	  0	0.90000	  0	 15	 47	 38	  0	
06-May-2013	sub2335	2335	  1	  1	 40	  2	  1	  4	  6	  4	  1	  2	  1	0.66260	  1	0.90000	  0	 14	 32	 33	  0	
06-May-2013	sub2335	2335	  1	  1	 41	  2	  1	  4	  6	  4	  1	  2	  1	0.51987	  1	0.90000	  0	 14	 32	 33	  0	
06-May-2013	sub2335	2335	  1	  1	 42	  2	  1	  2	  5	  4	  1	  2	  1	0.83345	  1	0.90000	  0	 12	 30	 31	  0	
06-May-2013	sub2335	2335	  1	  1	 43	  2	  1	  5	  2	  6	  0	  2	  1	0.99367	  0	0.90000	  1	 15	 47	 51	  0	
06-May-2013	sub2335	2335	  1	  1	 44	  2	  1	  1	  3	  6	  1	  1	  1	0.60133	  1	0.90000	  0	 11	 30	 31	  0	
06-May-2013	sub2335	2335	  1	  1	 45	  2	  1	  2	  5	  4	  1	  2	  1	0.67670	  1	0.90000	  0	 12	 30	 31	  0	
06-May-2013	sub2335	2335	  1	  1	 46	  2	  1	  3	  4	  3	  1	  1	  1	0.59582	  1	0.90000	  0	 13	 32	 33	  0	
06-May-2013	sub2335	2335	  1	  1	 47	  2	  1	  3	  4	  3	  0	  1	  0	0.44333	  1	0.90000	  0	 13	 34	 49	  1	
06-May-2013	sub2335	2335	  1	  1	 48	  2	  1	  6	  1	  3	  0	  2	  0	0.58275	  1	0.90000	  0	 16	 37	 48	  0	
06-May-2013	sub2335	2335	  1	  1	 49	  2	  1	  5	  2	  6	  0	  2	  1	0.84919	  0	0.90000	  0	 15	 47	 38	  0	
06-May-2013	sub2335	2335	  1	  1	 50	  2	  1	  6	  1	  3	  1	  2	  1	0.64983	  1	0.90000	  0	 16	 35	 36	  0	
06-May-2013	sub2335	2335	  1	  1	 51	  2	  1	  2	  5	  4	  1	  2	  1	0.77544	  1	0.90000	  0	 12	 30	 31	  0	
06-May-2013	sub2335	2335	  1	  1	 52	  2	  1	  2	  5	  4	  1	  2	  1	0.55551	  1	0.90000	  0	 12	 30	 31	  0	
06-May-2013	sub2335	2335	  1	  1	 53	  2	  1	  3	  4	  3	  1	  1	  1	0.58474	  1	0.90000	  0	 13	 32	 33	  0	
06-May-2013	sub2335	2335	  1	  1	 54	  2	  1	  2	  5	  4	  1	  2	  1	0.64505	  1	0.90000	  0	 12	 30	 31	  0	
06-May-2013	sub2335	2335	  1	  1	 55	  2	  1	  1	  3	  6	  1	  1	  1	0.57501	  1	0.90000	  0	 11	 30	 31	  0	
06-May-2013	sub2335	2335	  1	  1	 56	  2	  1	  6	  1	  3	  1	  2	  1	0.61627	  1	0.90000	  0	 16	 35	 36	  0	
06-May-2013	sub2335	2335	  1	  1	 57	  2	  1	  4	  6	  4	  0	  2	  0	0.58694	  1	0.90000	  0	 14	 34	 49	  0	
06-May-2013	sub2335	2335	  1	  1	 58	  2	  1	  4	  6	  4	  1	  2	  1	0.60628	  1	0.90000	  0	 14	 32	 33	  0	
06-May-2013	sub2335	2335	  1	  1	 59	  2	  1	  4	  6	  4	  0	  2	  0	0.62532	  1	0.80000	  0	 14	 34	 49	  0	
06-May-2013	sub2335	2335	  1	  1	 60	  2	  1	  3	  4	  3	  1	  1	  1	0.82448	  1	0.80000	  1	 13	 32	 51	  0	
06-May-2013	sub2335	2335	  1	  1	 61	  2	  1	  2	  5	  4	  1	  2	  1	0.63311	  1	0.90000	  0	 12	 30	 31	  0	
06-May-2013	sub2335	2335	  1	  1	 62	  2	  1	  1	  3	  6	  1	  1	  1	0.55243	  1	0.90000	  0	 11	 30	 31	  0	
06-May-2013	sub2335	2335	  1	  1	 63	  2	  1	  5	  2	  6	  1	  2	  0	0.62133	  0	0.90000	  0	 15	 45	 46	  0	
06-May-2013	sub2335	2335	  1	  1	 64	  2	  1	  6	  1	  3	  0	  2	  0	0.68561	  1	0.90000	  0	 16	 37	 48	  0	
06-May-2013	sub2335	2335	  1	  1	 65	  2	  1	  3	  4	  3	  1	  1	  1	0.66334	  1	0.90000	  0	 13	 32	 33	  0	
06-May-2013	sub2335	2335	  1	  1	 66	  2	  1	  6	  1	  3	  1	  2	  1	0.56397	  1	0.90000	  0	 16	 35	 36	  0	
06-May-2013	sub2335	2335	  1	  1	 67	  2	  1	  1	  3	  6	  1	  1	  1	0.48484	  1	0.90000	  0	 11	 30	 31	  1	
06-May-2013	sub2335	2335	  1	  1	 68	  2	  1	  2	  5	  4	  1	  2	  1	0.75699	  1	0.90000	  0	 12	 30	 31	  0	
06-May-2013	sub2335	2335	  1	  1	 69	  2	  1	  1	  3	  6	  1	  1	  1	0.60016	  1	0.90000	  0	 11	 30	 31	  0	
06-May-2013	sub2335	2335	  1	  1	 70	  2	  1	  2	  5	  4	  1	  2	  1	0.56278	  1	0.90000	  0	 12	 30	 31	  0	
06-May-2013	sub2335	2335	  1	  1	 71	  2	  1	  6	  1	  3	  0	  2	  0	0.51913	  1	0.90000	  0	 16	 37	 48	  0	
06-May-2013	sub2335	2335	  1	  1	 72	  2	  1	  1	  3	  6	  1	  1	  1	0.59735	  1	0.90000	  0	 11	 30	 31	  0	
06-May-2013	sub2335	2335	  1	  1	 73	  2	  1	  6	  1	  3	  1	  2	  1	0.57491	  1	0.80000	  0	 16	 35	 36	  0	
06-May-2013	sub2335	2335	  1	  1	 74	  2	  1	  1	  3	  6	  1	  1	  1	0.55880	  1	0.80000	  0	 11	 30	 31	  0	
06-May-2013	sub2335	2335	  1	  1	 75	  2	  1	  3	  4	  3	  1	  1	  1	0.47885	  1	0.80000	  0	 13	 32	 33	  1	
06-May-2013	sub2335	2335	  1	  1	 76	  2	  2	  4	  6	  4	  1	  2	  1	0.57182	  1	0.80000	  0	 24	 62	 63	  0	
06-May-2013	sub2335	2335	  1	  1	 77	  2	  2	  4	  6	  4	  1	  2	  1	0.40491	  1	0.80000	  0	 24	 62	 63	  1	
06-May-2013	sub2335	2335	  1	  1	 78	  2	  2	  3	  4	  3	  0	  1	  0	0.57407	  1	0.80000	  0	 23	 64	 89	  0	
06-May-2013	sub2335	2335	  1	  1	 79	  2	  2	  4	  6	  4	  0	  2	  0	0.52404	  1	0.80000	  0	 24	 64	 89	  0	
06-May-2013	sub2335	2335	  1	  1	 80	  2	  2	  4	  6	  4	  1	  2	  1	0.51156	  1	0.80000	  0	 24	 62	 63	  0	
06-May-2013	sub2335	2335	  1	  1	 81	  2	  2	  1	  3	  6	  1	  1	  1	0.55808	  1	0.80000	  0	 21	 60	 61	  0	
06-May-2013	sub2335	2335	  1	  1	 82	  2	  2	  1	  3	  6	  1	  1	  1	0.55567	  1	0.80000	  0	 21	 60	 61	  0	
06-May-2013	sub2335	2335	  1	  1	 83	  2	  2	  4	  6	  4	  1	  2	  1	0.59735	  1	0.80000	  0	 24	 62	 63	  0	
06-May-2013	sub2335	2335	  1	  1	 84	  2	  2	  6	  1	  3	  0	  2	  0	0.60315	  1	0.80000	  0	 26	 67	 88	  0	
06-May-2013	sub2335	2335	  1	  1	 85	  2	  2	  6	  1	  3	  0	  1	  1	0.67867	  0	0.70000	  0	 26	 87	 68	  0	
06-May-2013	sub2335	2335	  1	  1	 86	  2	  2	  2	  5	  4	  1	  2	  1	0.75444	  1	0.70000	  1	 22	 60	 51	  0	
06-May-2013	sub2335	2335	  1	  1	 87	  2	  2	  2	  5	  4	  1	  2	  1	0.43280	  1	0.80000	  0	 22	 60	 61	  1	
06-May-2013	sub2335	2335	  1	  1	 88	  2	  2	  4	  6	  4	  1	  2	  1	0.53261	  1	0.80000	  0	 24	 62	 63	  0	
06-May-2013	sub2335	2335	  1	  1	 89	  2	  2	  5	  2	  6	  0	  2	  1	0.55753	  0	0.80000	  0	 25	 87	 68	  0	
06-May-2013	sub2335	2335	  1	  1	 90	  2	  2	  6	  1	  3	  1	  2	  1	0.48202	  1	0.80000	  0	 26	 65	 66	  1	
06-May-2013	sub2335	2335	  1	  1	 91	  2	  2	  5	  2	  6	  0	  2	  1	0.49657	  0	0.80000	  0	 25	 87	 68	  1	
06-May-2013	sub2335	2335	  1	  1	 92	  2	  2	  2	  5	  4	  1	  2	  1	0.58480	  1	0.80000	  0	 22	 60	 61	  0	
06-May-2013	sub2335	2335	  1	  1	 93	  2	  2	  4	  6	  4	  0	  2	  0	0.46639	  1	0.80000	  0	 24	 64	 89	  1	
06-May-2013	sub2335	2335	  1	  1	 94	  2	  2	  2	  5	  4	  1	  2	  1	0.55600	  1	0.80000	  0	 22	 60	 61	  0	
06-May-2013	sub2335	2335	  1	  1	 95	  2	  2	  3	  4	  3	  1	  1	  1	0.57532	  1	0.80000	  0	 23	 62	 63	  0	
06-May-2013	sub2335	2335	  1	  1	 96	  2	  2	  6	  1	  3	  0	  2	  0	0.48766	  1	0.80000	  0	 26	 67	 88	  1	
06-May-2013	sub2335	2335	  1	  1	 97	  2	  2	  4	  6	  4	  1	  2	  1	0.56260	  1	0.80000	  0	 24	 62	 63	  0	
06-May-2013	sub2335	2335	  1	  1	 98	  2	  2	  1	  3	  6	  1	  1	  1	0.58115	  1	0.80000	  0	 21	 60	 61	  0	
06-May-2013	sub2335	2335	  1	  1	 99	  2	  2	  2	  5	  4	  1	  2	  1	0.66728	  1	0.80000	  0	 22	 60	 61	  0	
06-May-2013	sub2335	2335	  1	  1	100	  2	  2	  6	  1	  3	  1	  1	  0	0.44899	  0	0.80000	  0	 26	 85	 86	  1	
06-May-2013	sub2335	2335	  1	  1	101	  2	  2	  4	  6	  4	  1	  2	  1	0.60401	  1	0.70000	  0	 24	 62	 63	  0	
06-May-2013	sub2335	2335	  1	  1	102	  2	  2	  6	  1	  3	  0	  1	  1	0.72013	  0	0.70000	  1	 26	 87	 51	  0	
06-May-2013	sub2335	2335	  1	  1	103	  2	  2	  1	  3	  6	  1	  1	  1	0.46117	  1	0.80000	  0	 21	 60	 61	  1	
06-May-2013	sub2335	2335	  1	  1	104	  2	  2	  1	  3	  6	  1	  1	  1	0.43850	  1	0.80000	  0	 21	 60	 61	  1	
06-May-2013	sub2335	2335	  1	  1	105	  2	  2	  6	  1	  3	  1	  1	  0	0.53423	  0	0.80000	  0	 26	 85	 86	  0	
06-May-2013	sub2335	2335	  1	  1	106	  2	  2	  2	  5	  4	  1	  2	  1	0.59597	  1	0.80000	  0	 22	 60	 61	  0	
06-May-2013	sub2335	2335	  1	  1	107	  2	  2	  6	  1	  3	  1	  2	  1	0.55351	  1	0.80000	  0	 26	 65	 66	  0	
06-May-2013	sub2335	2335	  1	  1	108	  2	  2	  1	  3	  6	  1	  1	  1	0.64047	  1	0.80000	  0	 21	 60	 61	  0	
06-May-2013	sub2335	2335	  1	  1	109	  2	  2	  3	  4	  3	  1	  1	  1	0.41905	  1	0.80000	  0	 23	 62	 63	  1	
06-May-2013	sub2335	2335	  1	  1	110	  2	  2	  1	  3	  6	  1	  1	  1	0.56760	  1	0.80000	  0	 21	 60	 61	  0	
06-May-2013	sub2335	2335	  1	  1	111	  2	  2	  5	  2	  6	  0	  2	  1	0.57897	  0	0.80000	  0	 25	 87	 68	  0	
06-May-2013	sub2335	2335	  1	  1	112	  2	  2	  3	  4	  3	  1	  1	  1	0.61622	  1	0.80000	  0	 23	 62	 63	  0	
06-May-2013	sub2335	2335	  1	  1	113	  2	  2	  5	  2	  6	  0	  2	  1	0.53318	  0	0.80000	  0	 25	 87	 68	  0	
06-May-2013	sub2335	2335	  1	  1	114	  2	  2	  3	  4	  3	  1	  1	  1	0.58605	  1	0.80000	  0	 23	 62	 63	  0	
06-May-2013	sub2335	2335	  1	  1	115	  2	  2	  1	  3	  6	  1	  1	  1	0.67136	  1	0.80000	  0	 21	 60	 61	  0	
06-May-2013	sub2335	2335	  1	  1	116	  2	  2	  3	  4	  3	  0	  1	  0	0.62029	  1	0.80000	  0	 23	 64	 89	  0	
06-May-2013	sub2335	2335	  1	  1	117	  2	  2	  2	  5	  4	  1	  2	  1	0.61980	  1	0.80000	  0	 22	 60	 61	  0	
06-May-2013	sub2335	2335	  1	  1	118	  2	  2	  6	  1	  3	  0	  2	  0	0.55890	  1	0.70000	  0	 26	 67	 88	  0	
06-May-2013	sub2335	2335	  1	  1	119	  2	  2	  2	  5	  4	  1	  2	  1	0.49395	  1	0.70000	  0	 22	 60	 61	  1	
06-May-2013	sub2335	2335	  1	  1	120	  2	  2	  4	  6	  4	  1	  2	  1	0.56623	  1	0.70000	  0	 24	 62	 63	  0	
06-May-2013	sub2335	2335	  1	  1	121	  2	  2	  1	  3	  6	  1	  1	  1	0.53799	  1	0.70000	  0	 21	 60	 61	  0	
06-May-2013	sub2335	2335	  1	  1	122	  2	  2	  2	  5	  4	  1	  2	  1	0.55301	  1	0.70000	  0	 22	 60	 61	  0	
06-May-2013	sub2335	2335	  1	  1	123	  2	  2	  3	  4	  3	  1	  1	  1	0.45018	  1	0.70000	  0	 23	 62	 63	  1	
06-May-2013	sub2335	2335	  1	  1	124	  2	  2	  5	  2	  6	  0	  2	  1	0.58372	  0	0.70000	  0	 25	 87	 68	  0	
06-May-2013	sub2335	2335	  1	  1	125	  2	  2	  6	  1	  3	  0	  2	  0	0.55602	  1	0.70000	  0	 26	 67	 88	  0	
06-May-2013	sub2335	2335	  1	  1	126	  2	  2	  5	  2	  6	  0	  2	  1	0.53860	  0	0.70000	  0	 25	 87	 68	  0	
06-May-2013	sub2335	2335	  1	  1	127	  2	  2	  1	  3	  6	  1	  1	  1	0.56543	  1	0.70000	  0	 21	 60	 61	  0	
06-May-2013	sub2335	2335	  1	  1	128	  2	  2	  4	  6	  4	  1	  2	  1	0.54263	  1	0.70000	  0	 24	 62	 63	  0	
06-May-2013	sub2335	2335	  1	  1	129	  2	  2	  2	  5	  4	  1	  2	  1	1.00516	  1	0.70000	  1	 22	 60	 51	  0	
06-May-2013	sub2335	2335	  1	  1	130	  2	  2	  6	  1	  3	  1	  2	  1	0.43102	  1	0.80000	  0	 26	 65	 66	  1	
06-May-2013	sub2335	2335	  1	  1	131	  2	  2	  5	  2	  6	  0	  2	  1	0.47021	  0	0.80000	  0	 25	 87	 68	  1	
06-May-2013	sub2335	2335	  1	  1	132	  2	  2	  3	  4	  3	  1	  1	  1	0.61182	  1	0.80000	  0	 23	 62	 63	  0	
06-May-2013	sub2335	2335	  1	  1	133	  2	  2	  5	  2	  6	  0	  2	  1	0.40831	  0	0.80000	  0	 25	 87	 68	  1	
06-May-2013	sub2335	2335	  1	  1	134	  2	  2	  5	  2	  6	  0	  2	  1	0.44521	  0	0.80000	  0	 25	 87	 68	  1	
06-May-2013	sub2335	2335	  1	  1	135	  2	  2	  3	  4	  3	  1	  1	  1	0.63526	  1	0.70000	  0	 23	 62	 63	  0	
06-May-2013	sub2335	2335	  1	  1	136	  2	  2	  5	  2	  6	  0	  2	  1	0.49417	  0	0.70000	  0	 25	 87	 68	  1	
06-May-2013	sub2335	2335	  1	  1	137	  2	  2	  5	  2	  6	  0	  2	  1	0.51852	  0	0.70000	  0	 25	 87	 68	  0	
06-May-2013	sub2335	2335	  1	  1	138	  2	  2	  1	  3	  6	  1	  1	  1	0.48731	  1	0.70000	  0	 21	 60	 61	  1	
06-May-2013	sub2335	2335	  1	  1	139	  2	  2	  4	  6	  4	  1	  2	  1	0.58567	  1	0.70000	  0	 24	 62	 63	  0	
06-May-2013	sub2335	2335	  1	  1	140	  2	  2	  2	  5	  4	  1	  2	  1	0.69988	  1	0.70000	  0	 22	 60	 61	  0	
06-May-2013	sub2335	2335	  1	  1	141	  2	  2	  6	  1	  3	  1	  2	  1	0.48269	  1	0.70000	  0	 26	 65	 66	  1	
06-May-2013	sub2335	2335	  1	  1	142	  2	  2	  3	  4	  3	  1	  1	  1	0.64669	  1	0.70000	  0	 23	 62	 63	  0	
06-May-2013	sub2335	2335	  1	  1	143	  2	  2	  1	  3	  6	  1	  1	  1	0.38738	  1	0.70000	  0	 21	 60	 61	  1	
06-May-2013	sub2335	2335	  1	  1	144	  2	  2	  5	  2	  6	  0	  2	  1	0.53850	  0	0.70000	  0	 25	 87	 68	  0	
06-May-2013	sub2335	2335	  1	  1	145	  2	  2	  3	  4	  3	  1	  1	  1	0.65868	  1	0.70000	  0	 23	 62	 63	  0	
06-May-2013	sub2335	2335	  1	  1	146	  2	  2	  3	  4	  3	  1	  1	  1	0.60996	  1	0.70000	  0	 23	 62	 63	  0	
06-May-2013	sub2335	2335	  1	  1	147	  2	  2	  4	  6	  4	  0	  2	  0	0.64374	  1	0.70000	  0	 24	 64	 89	  0	
06-May-2013	sub2335	2335	  1	  1	148	  2	  2	  5	  2	  6	  0	  2	  1	0.44144	  0	0.70000	  0	 25	 87	 68	  1	
06-May-2013	sub2335	2335	  1	  1	149	  2	  2	  2	  5	  4	  1	  2	  1	0.43803	  1	0.70000	  0	 22	 60	 61	  1	
06-May-2013	sub2335	2335	  1	  1	150	  2	  2	  1	  3	  6	  1	  1	  1	0.57195	  1	0.70000	  0	 21	 60	 61	  0	
06-May-2013	sub2335	2335	  1	  1	  1	  3	  1	  4	  6	  6	  1	  2	  1	0.46986	  1	0.60000	  0	 14	 32	 33	  1	
06-May-2013	sub2335	2335	  1	  1	  2	  3	  1	  6	  2	  3	  0	  2	  0	0.58210	  1	0.30000	  1	 16	 37	 51	  0	
06-May-2013	sub2335	2335	  1	  1	  3	  3	  1	  4	  6	  6	  1	  2	  1	0.48141	  1	0.90000	  0	 14	 32	 33	  1	
06-May-2013	sub2335	2335	  1	  1	  4	  3	  1	  3	  1	  1	  1	  2	  0	0.42878	  0	0.90000	  0	 13	 42	 43	  1	
06-May-2013	sub2335	2335	  1	  1	  5	  3	  1	  1	  3	  3	  1	  2	  0	0.59982	  0	0.90000	  0	 11	 40	 41	  0	
06-May-2013	sub2335	2335	  1	  1	  6	  3	  1	  6	  2	  3	  1	  2	  1	0.56939	  1	0.90000	  0	 16	 35	 36	  0	
06-May-2013	sub2335	2335	  1	  1	  7	  3	  1	  1	  3	  3	  1	  2	  0	0.75198	  0	0.90000	  0	 11	 40	 41	  0	
06-May-2013	sub2335	2335	  1	  1	  8	  3	  1	  1	  3	  3	  1	  1	  1	0.51259	  1	0.90000	  0	 11	 30	 31	  0	
06-May-2013	sub2335	2335	  1	  1	  9	  3	  1	  3	  1	  1	  0	  2	  1	0.61153	  0	0.90000	  0	 13	 44	 39	  0	
06-May-2013	sub2335	2335	  1	  1	 10	  3	  1	  5	  4	  5	  0	  2	  1	0.72464	  0	0.90000	  0	 15	 47	 38	  0	
06-May-2013	sub2335	2335	  1	  1	 11	  3	  1	  1	  3	  3	  1	  1	  1	0.57196	  1	0.90000	  0	 11	 30	 31	  0	
06-May-2013	sub2335	2335	  1	  1	 12	  3	  1	  4	  6	  6	  1	  2	  1	0.70352	  1	0.90000	  0	 14	 32	 33	  0	
06-May-2013	sub2335	2335	  1	  1	 13	  3	  1	  4	  6	  6	  1	  2	  1	0.72892	  1	0.90000	  0	 14	 32	 33	  0	
06-May-2013	sub2335	2335	  1	  1	 14	  3	  1	  1	  3	  3	  1	  1	  1	0.71895	  1	0.90000	  0	 11	 30	 31	  0	
06-May-2013	sub2335	2335	  1	  1	 15	  3	  1	  5	  4	  5	  0	  2	  1	0.63472	  0	0.90000	  0	 15	 47	 38	  0	
06-May-2013	sub2335	2335	  1	  1	 16	  3	  1	  5	  4	  5	  0	  2	  1	0.45901	  0	0.80000	  0	 15	 47	 38	  1	
06-May-2013	sub2335	2335	  1	  1	 17	  3	  1	  5	  4	  5	  0	  2	  1	0.48373	  0	0.80000	  0	 15	 47	 38	  1	
06-May-2013	sub2335	2335	  1	  1	 18	  3	  1	  5	  4	  5	  1	  2	  0	0.40156	  0	0.70000	  0	 15	 45	 46	  1	
06-May-2013	sub2335	2335	  1	  1	 19	  3	  1	  6	  2	  3	  0	  2	  0	0.58684	  1	0.70000	  0	 16	 37	 48	  0	
06-May-2013	sub2335	2335	  1	  1	 20	  3	  1	  5	  4	  5	  1	  2	  0	0.60968	  0	0.70000	  0	 15	 45	 46	  0	
06-May-2013	sub2335	2335	  1	  1	 21	  3	  1	  3	  1	  1	  1	  2	  0	0.73283	  0	0.60000	  1	 13	 42	 51	  0	
06-May-2013	sub2335	2335	  1	  1	 22	  3	  1	  3	  1	  1	  1	  2	  0	0.41150	  0	0.90000	  0	 13	 42	 43	  1	
06-May-2013	sub2335	2335	  1	  1	 23	  3	  1	  6	  2	  3	  1	  2	  1	0.63220	  1	0.90000	  0	 16	 35	 36	  0	
06-May-2013	sub2335	2335	  1	  1	 24	  3	  1	  2	  5	  6	  1	  2	  1	0.65173	  1	0.90000	  0	 12	 30	 31	  0	
06-May-2013	sub2335	2335	  1	  1	 25	  3	  1	  3	  1	  1	  1	  2	  0	0.55713	  0	0.90000	  0	 13	 42	 43	  0	
06-May-2013	sub2335	2335	  1	  1	 26	  3	  1	  4	  6	  6	  1	  2	  1	0.54214	  1	0.90000	  0	 14	 32	 33	  0	
06-May-2013	sub2335	2335	  1	  1	 27	  3	  1	  4	  6	  6	  1	  2	  1	0.54137	  1	0.90000	  0	 14	 32	 33	  0	
06-May-2013	sub2335	2335	  1	  1	 28	  3	  1	  1	  3	  3	  1	  1	  1	0.56431	  1	0.90000	  0	 11	 30	 31	  0	
06-May-2013	sub2335	2335	  1	  1	 29	  3	  1	  2	  5	  6	  1	  2	  1	0.65310	  1	0.90000	  0	 12	 30	 31	  0	
06-May-2013	sub2335	2335	  1	  1	 30	  3	  1	  1	  3	  3	  1	  1	  1	0.68463	  1	0.80000	  0	 11	 30	 31	  0	
06-May-2013	sub2335	2335	  1	  1	 31	  3	  1	  6	  2	  3	  0	  2	  0	0.69958	  1	0.80000	  0	 16	 37	 48	  0	
06-May-2013	sub2335	2335	  1	  1	 32	  3	  1	  2	  5	  6	  1	  2	  1	0.69325	  1	0.80000	  0	 12	 30	 31	  0	
06-May-2013	sub2335	2335	  1	  1	 33	  3	  1	  1	  3	  3	  1	  1	  1	0.53141	  1	0.80000	  0	 11	 30	 31	  0	
06-May-2013	sub2335	2335	  1	  1	 34	  3	  1	  5	  4	  5	  1	  2	  0	0.55936	  0	0.80000	  0	 15	 45	 46	  0	
06-May-2013	sub2335	2335	  1	  1	 35	  3	  1	  2	  5	  6	  1	  2	  1	0.57901	  1	0.70000	  0	 12	 30	 31	  0	
06-May-2013	sub2335	2335	  1	  1	 36	  3	  1	  4	  6	  6	  1	  2	  1	0.59895	  1	0.70000	  0	 14	 32	 33	  0	
06-May-2013	sub2335	2335	  1	  1	 37	  3	  1	  3	  1	  1	  1	  2	  0	0.58177	  0	0.70000	  0	 13	 42	 43	  0	
06-May-2013	sub2335	2335	  1	  1	 38	  3	  1	  6	  2	  3	  0	  2	  0	0.83045	  1	0.70000	  1	 16	 37	 51	  0	
06-May-2013	sub2335	2335	  1	  1	 39	  3	  1	  2	  5	  6	  1	  2	  1	0.57533	  1	0.90000	  0	 12	 30	 31	  0	
06-May-2013	sub2335	2335	  1	  1	 40	  3	  1	  6	  2	  3	  0	  2	  0	0.76213	  1	0.90000	  0	 16	 37	 48	  0	
06-May-2013	sub2335	2335	  1	  1	 41	  3	  1	  2	  5	  6	  1	  2	  1	0.53343	  1	0.90000	  0	 12	 30	 31	  0	
06-May-2013	sub2335	2335	  1	  1	 42	  3	  1	  3	  1	  1	  1	  1	  1	0.51921	  1	0.90000	  0	 13	 32	 33	  0	
06-May-2013	sub2335	2335	  1	  1	 43	  3	  1	  5	  4	  5	  1	  2	  0	0.51802	  0	0.90000	  0	 15	 45	 46	  0	
06-May-2013	sub2335	2335	  1	  1	 44	  3	  1	  1	  3	  3	  1	  1	  1	0.56658	  1	0.80000	  0	 11	 30	 31	  0	
06-May-2013	sub2335	2335	  1	  1	 45	  3	  1	  3	  1	  1	  1	  1	  1	0.39518	  1	0.80000	  0	 13	 32	 33	  1	
06-May-2013	sub2335	2335	  1	  1	 46	  3	  1	  6	  2	  3	  1	  2	  1	0.70948	  1	0.80000	  0	 16	 35	 36	  0	
06-May-2013	sub2335	2335	  1	  1	 47	  3	  1	  2	  5	  6	  1	  2	  1	0.48414	  1	0.80000	  0	 12	 30	 31	  1	
06-May-2013	sub2335	2335	  1	  1	 48	  3	  1	  3	  1	  1	  0	  2	  1	0.40475	  0	0.80000	  0	 13	 44	 39	  1	
06-May-2013	sub2335	2335	  1	  1	 49	  3	  1	  6	  2	  3	  1	  2	  1	0.57861	  1	0.80000	  0	 16	 35	 36	  0	
06-May-2013	sub2335	2335	  1	  1	 50	  3	  1	  4	  6	  6	  1	  2	  1	0.59903	  1	0.80000	  0	 14	 32	 33	  0	
06-May-2013	sub2335	2335	  1	  1	 51	  3	  1	  2	  5	  6	  1	  2	  1	0.50679	  1	0.70000	  0	 12	 30	 31	  0	
06-May-2013	sub2335	2335	  1	  1	 52	  3	  1	  4	  6	  6	  1	  2	  1	0.57698	  1	0.70000	  0	 14	 32	 33	  0	
06-May-2013	sub2335	2335	  1	  1	 53	  3	  1	  3	  1	  1	  1	  2	  0	0.58870	  0	0.70000	  0	 13	 42	 43	  0	
06-May-2013	sub2335	2335	  1	  1	 54	  3	  1	  4	  6	  6	  1	  2	  1	0.56334	  1	0.70000	  0	 14	 32	 33	  0	
06-May-2013	sub2335	2335	  1	  1	 55	  3	  1	  1	  3	  3	  1	  1	  1	0.50529	  1	0.70000	  0	 11	 30	 31	  0	
06-May-2013	sub2335	2335	  1	  1	 56	  3	  1	  3	  1	  1	  0	  1	  0	0.42064	  1	0.70000	  0	 13	 34	 49	  1	
06-May-2013	sub2335	2335	  1	  1	 57	  3	  1	  2	  5	  6	  1	  2	  1	0.58651	  1	0.70000	  0	 12	 30	 31	  0	
06-May-2013	sub2335	2335	  1	  1	 58	  3	  1	  5	  4	  5	  1	  2	  0	0.58173	  0	0.70000	  0	 15	 45	 46	  0	
06-May-2013	sub2335	2335	  1	  1	 59	  3	  1	  6	  2	  3	  0	  2	  0	0.70453	  1	0.70000	  1	 16	 37	 51	  0	
06-May-2013	sub2335	2335	  1	  1	 60	  3	  1	  2	  5	  6	  1	  2	  1	0.51848	  1	0.80000	  0	 12	 30	 31	  0	
06-May-2013	sub2335	2335	  1	  1	 61	  3	  1	  5	  4	  5	  1	  2	  0	0.50229	  0	0.80000	  0	 15	 45	 46	  0	
06-May-2013	sub2335	2335	  1	  1	 62	  3	  1	  3	  1	  1	  1	  1	  1	0.65991	  1	0.80000	  0	 13	 32	 33	  0	
06-May-2013	sub2335	2335	  1	  1	 63	  3	  1	  5	  4	  5	  0	  2	  1	0.51522	  0	0.80000	  0	 15	 47	 38	  0	
06-May-2013	sub2335	2335	  1	  1	 64	  3	  1	  1	  3	  3	  1	  1	  1	0.46979	  1	0.80000	  0	 11	 30	 31	  1	
06-May-2013	sub2335	2335	  1	  1	 65	  3	  1	  6	  2	  3	  0	  2	  0	0.68935	  1	0.80000	  0	 16	 37	 48	  0	
06-May-2013	sub2335	2335	  1	  1	 66	  3	  1	  6	  2	  3	  1	  1	  0	0.49402	  0	0.80000	  0	 16	 45	 46	  1	
06-May-2013	sub2335	2335	  1	  1	 67	  3	  1	  4	  6	  6	  0	  2	  0	0.59965	  1	0.80000	  0	 14	 34	 49	  0	
06-May-2013	sub2335	2335	  1	  1	 68	  3	  1	  2	  5	  6	  1	  2	  1	0.53483	  1	0.70000	  0	 12	 30	 31	  0	
06-May-2013	sub2335	2335	  1	  1	 69	  3	  1	  5	  4	  5	  1	  1	  1	0.45347	  1	0.70000	  0	 15	 35	 36	  1	
06-May-2013	sub2335	2335	  1	  1	 70	  3	  1	  6	  2	  3	  1	  2	  1	0.66200	  1	0.70000	  0	 16	 35	 36	  0	
06-May-2013	sub2335	2335	  1	  1	 71	  3	  1	  2	  5	  6	  1	  2	  1	0.54439	  1	0.70000	  0	 12	 30	 31	  0	
06-May-2013	sub2335	2335	  1	  1	 72	  3	  1	  4	  6	  6	  0	  2	  0	0.54593	  1	0.70000	  0	 14	 34	 49	  0	
06-May-2013	sub2335	2335	  1	  1	 73	  3	  1	  2	  5	  6	  1	  2	  1	0.54147	  1	0.70000	  0	 12	 30	 31	  0	
06-May-2013	sub2335	2335	  1	  1	 74	  3	  1	  1	  3	  3	  1	  1	  1	0.47534	  1	0.70000	  0	 11	 30	 31	  1	
06-May-2013	sub2335	2335	  1	  1	 75	  3	  1	  3	  1	  1	  1	  1	  1	0.43749	  1	0.70000	  0	 13	 32	 33	  1	
06-May-2013	sub2335	2335	  1	  1	 76	  3	  2	  4	  6	  6	  1	  2	  1	0.53250	  1	0.70000	  0	 24	 62	 63	  0	
06-May-2013	sub2335	2335	  1	  1	 77	  3	  2	  3	  1	  1	  1	  2	  0	0.50816	  0	0.70000	  0	 23	 82	 83	  0	
06-May-2013	sub2335	2335	  1	  1	 78	  3	  2	  1	  3	  3	  1	  1	  1	0.53295	  1	0.70000	  0	 21	 60	 61	  0	
06-May-2013	sub2335	2335	  1	  1	 79	  3	  2	  2	  5	  6	  1	  2	  1	0.53958	  1	0.70000	  0	 22	 60	 61	  0	
06-May-2013	sub2335	2335	  1	  1	 80	  3	  2	  2	  5	  6	  1	  2	  1	0.46832	  1	0.70000	  0	 22	 60	 61	  1	
06-May-2013	sub2335	2335	  1	  1	 81	  3	  2	  5	  4	  5	  0	  2	  1	0.51904	  0	0.60000	  0	 25	 87	 68	  0	
06-May-2013	sub2335	2335	  1	  1	 82	  3	  2	  2	  5	  6	  1	  2	  1	0.48560	  1	0.60000	  0	 22	 60	 61	  1	
06-May-2013	sub2335	2335	  1	  1	 83	  3	  2	  5	  4	  5	  0	  2	  1	0.53502	  0	0.60000	  0	 25	 87	 68	  0	
06-May-2013	sub2335	2335	  1	  1	 84	  3	  2	  3	  1	  1	  1	  1	  1	0.54567	  1	0.60000	  0	 23	 62	 63	  0	
06-May-2013	sub2335	2335	  1	  1	 85	  3	  2	  5	  4	  5	  0	  2	  1	0.55624	  0	0.60000	  0	 25	 87	 68	  0	
06-May-2013	sub2335	2335	  1	  1	 86	  3	  2	  4	  6	  6	  0	  2	  0	0.55092	  1	0.60000	  0	 24	 64	 89	  0	
06-May-2013	sub2335	2335	  1	  1	 87	  3	  2	  1	  3	  3	  1	  1	  1	0.57876	  1	0.60000	  0	 21	 60	 61	  0	
06-May-2013	sub2335	2335	  1	  1	 88	  3	  2	  3	  1	  1	  1	  1	  1	0.38278	  1	0.60000	  0	 23	 62	 63	  1	
06-May-2013	sub2335	2335	  1	  1	 89	  3	  2	  1	  3	  3	  1	  1	  1	0.60688	  1	0.60000	  1	 21	 60	 51	  0	
06-May-2013	sub2335	2335	  1	  1	 90	  3	  2	  5	  4	  5	  0	  2	  1	0.55053	  0	0.70000	  0	 25	 87	 68	  0	
06-May-2013	sub2335	2335	  1	  1	 91	  3	  2	  4	  6	  6	  1	  2	  1	0.50381	  1	0.70000	  0	 24	 62	 63	  0	
06-May-2013	sub2335	2335	  1	  1	 92	  3	  2	  5	  4	  5	  0	  2	  1	0.45588	  0	0.70000	  0	 25	 87	 68	  1	
06-May-2013	sub2335	2335	  1	  1	 93	  3	  2	  2	  5	  6	  1	  2	  1	0.53375	  1	0.70000	  0	 22	 60	 61	  0	
06-May-2013	sub2335	2335	  1	  1	 94	  3	  2	  4	  6	  6	  1	  2	  1	0.48472	  1	0.70000	  0	 24	 62	 63	  1	
06-May-2013	sub2335	2335	  1	  1	 95	  3	  2	  2	  5	  6	  1	  2	  1	0.42542	  1	0.70000	  0	 22	 60	 61	  1	
06-May-2013	sub2335	2335	  1	  1	 96	  3	  2	  6	  2	  3	  1	  1	  0	0.72640	  0	0.70000	  1	 26	 85	 51	  0	
06-May-2013	sub2335	2335	  1	  1	 97	  3	  2	  5	  4	  5	  0	  2	  1	0.57884	  0	0.80000	  0	 25	 87	 68	  0	
06-May-2013	sub2335	2335	  1	  1	 98	  3	  2	  3	  1	  1	  1	  1	  1	0.54181	  1	0.80000	  0	 23	 62	 63	  0	
06-May-2013	sub2335	2335	  1	  1	 99	  3	  2	  2	  5	  6	  1	  2	  1	0.59091	  1	0.80000	  0	 22	 60	 61	  0	
06-May-2013	sub2335	2335	  1	  1	100	  3	  2	  2	  5	  6	  1	  2	  1	0.39712	  1	0.80000	  0	 22	 60	 61	  1	
06-May-2013	sub2335	2335	  1	  1	101	  3	  2	  1	  3	  3	  1	  1	  1	0.42104	  1	0.70000	  0	 21	 60	 61	  1	
06-May-2013	sub2335	2335	  1	  1	102	  3	  2	  4	  6	  6	  1	  2	  1	0.51865	  1	0.70000	  0	 24	 62	 63	  0	
06-May-2013	sub2335	2335	  1	  1	103	  3	  2	  3	  1	  1	  0	  1	  0	0.60374	  1	0.70000	  0	 23	 64	 89	  0	
06-May-2013	sub2335	2335	  1	  1	104	  3	  2	  4	  6	  6	  0	  2	  0	0.59677	  1	0.70000	  0	 24	 64	 89	  0	
06-May-2013	sub2335	2335	  1	  1	105	  3	  2	  4	  6	  6	  1	  2	  1	0.50464	  1	0.70000	  0	 24	 62	 63	  0	
06-May-2013	sub2335	2335	  1	  1	106	  3	  2	  1	  3	  3	  1	  1	  1	0.57555	  1	0.70000	  0	 21	 60	 61	  0	
06-May-2013	sub2335	2335	  1	  1	107	  3	  2	  6	  2	  3	  1	  1	  0	0.56913	  0	0.70000	  0	 26	 85	 86	  0	
06-May-2013	sub2335	2335	  1	  1	108	  3	  2	  1	  3	  3	  1	  1	  1	0.53227	  1	0.70000	  0	 21	 60	 61	  0	
06-May-2013	sub2335	2335	  1	  1	109	  3	  2	  3	  1	  1	  1	  1	  1	0.52599	  1	0.70000	  0	 23	 62	 63	  0	
06-May-2013	sub2335	2335	  1	  1	110	  3	  2	  1	  3	  3	  1	  1	  1	0.48267	  1	0.70000	  0	 21	 60	 61	  1	
06-May-2013	sub2335	2335	  1	  1	111	  3	  2	  4	  6	  6	  1	  2	  1	0.53321	  1	0.70000	  0	 24	 62	 63	  0	
06-May-2013	sub2335	2335	  1	  1	112	  3	  2	  5	  4	  5	  0	  2	  1	0.47615	  0	0.70000	  0	 25	 87	 68	  1	
06-May-2013	sub2335	2335	  1	  1	113	  3	  2	  2	  5	  6	  1	  2	  1	0.53194	  1	0.70000	  0	 22	 60	 61	  0	
06-May-2013	sub2335	2335	  1	  1	114	  3	  2	  4	  6	  6	  1	  2	  1	0.54246	  1	0.70000	  0	 24	 62	 63	  0	
06-May-2013	sub2335	2335	  1	  1	115	  3	  2	  5	  4	  5	  0	  2	  1	0.42342	  0	0.70000	  0	 25	 87	 68	  1	
06-May-2013	sub2335	2335	  1	  1	116	  3	  2	  1	  3	  3	  1	  1	  1	0.40636	  1	0.70000	  0	 21	 60	 61	  1	
06-May-2013	sub2335	2335	  1	  1	117	  3	  2	  6	  2	  3	  1	  1	  0	0.63292	  0	0.70000	  0	 26	 85	 86	  0	
06-May-2013	sub2335	2335	  1	  1	118	  3	  2	  5	  4	  5	  0	  2	  1	0.58384	  0	0.70000	  0	 25	 87	 68	  0	
06-May-2013	sub2335	2335	  1	  1	119	  3	  2	  5	  4	  5	  0	  2	  1	0.56839	  0	0.70000	  0	 25	 87	 68	  0	
06-May-2013	sub2335	2335	  1	  1	120	  3	  2	  4	  6	  6	  1	  2	  1	0.50484	  1	0.70000	  0	 24	 62	 63	  0	
06-May-2013	sub2335	2335	  1	  1	121	  3	  2	  6	  2	  3	  0	  2	  0	0.44735	  1	0.60000	  0	 26	 67	 88	  1	
06-May-2013	sub2335	2335	  1	  1	122	  3	  2	  5	  4	  5	  0	  2	  1	0.54070	  0	0.60000	  0	 25	 87	 68	  0	
06-May-2013	sub2335	2335	  1	  1	123	  3	  2	  4	  6	  6	  0	  2	  0	0.56458	  1	0.60000	  0	 24	 64	 89	  0	
06-May-2013	sub2335	2335	  1	  1	124	  3	  2	  3	  1	  1	  1	  1	  1	0.63998	  1	0.60000	  1	 23	 62	 51	  0	
06-May-2013	sub2335	2335	  1	  1	125	  3	  2	  3	  1	  1	  1	  1	  1	0.47175	  1	0.70000	  0	 23	 62	 63	  1	
06-May-2013	sub2335	2335	  1	  1	126	  3	  2	  3	  1	  1	  0	  1	  0	0.38431	  1	0.70000	  0	 23	 64	 89	  1	
06-May-2013	sub2335	2335	  1	  1	127	  3	  2	  1	  3	  3	  1	  1	  1	0.44373	  1	0.70000	  0	 21	 60	 61	  1	
06-May-2013	sub2335	2335	  1	  1	128	  3	  2	  2	  5	  6	  1	  2	  1	0.54467	  1	0.70000	  0	 22	 60	 61	  0	
06-May-2013	sub2335	2335	  1	  1	129	  3	  2	  1	  3	  3	  1	  1	  1	0.37134	  1	0.70000	  0	 21	 60	 61	  1	
06-May-2013	sub2335	2335	  1	  1	130	  3	  2	  6	  2	  3	  1	  1	  0	0.48253	  0	0.70000	  0	 26	 85	 86	  1	
06-May-2013	sub2335	2335	  1	  1	131	  3	  2	  3	  1	  1	  1	  1	  1	0.43880	  1	0.70000	  0	 23	 62	 63	  1	
06-May-2013	sub2335	2335	  1	  1	132	  3	  2	  6	  2	  3	  0	  1	  1	0.53710	  0	0.70000	  0	 26	 87	 68	  0	
06-May-2013	sub2335	2335	  1	  1	133	  3	  2	  6	  2	  3	  1	  1	  0	0.38393	  0	0.70000	  0	 26	 85	 86	  1	
06-May-2013	sub2335	2335	  1	  1	134	  3	  2	  3	  1	  1	  1	  1	  1	0.49901	  1	0.70000	  0	 23	 62	 63	  1	
06-May-2013	sub2335	2335	  1	  1	135	  3	  2	  1	  3	  3	  1	  1	  1	0.42416	  1	0.70000	  0	 21	 60	 61	  1	
06-May-2013	sub2335	2335	  1	  1	136	  3	  2	  5	  4	  5	  0	  2	  1	0.53103	  0	0.70000	  0	 25	 87	 68	  0	
06-May-2013	sub2335	2335	  1	  1	137	  3	  2	  6	  2	  3	  0	  1	  1	0.50339	  0	0.70000	  0	 26	 87	 68	  0	
06-May-2013	sub2335	2335	  1	  1	138	  3	  2	  2	  5	  6	  1	  2	  1	0.48277	  1	0.70000	  0	 22	 60	 61	  1	
06-May-2013	sub2335	2335	  1	  1	139	  3	  2	  1	  3	  3	  1	  1	  1	0.53646	  1	0.70000	  0	 21	 60	 61	  0	
06-May-2013	sub2335	2335	  1	  1	140	  3	  2	  2	  5	  6	  1	  2	  1	0.49743	  1	0.70000	  0	 22	 60	 61	  1	
06-May-2013	sub2335	2335	  1	  1	141	  3	  2	  6	  2	  3	  0	  1	  1	0.46908	  0	0.60000	  0	 26	 87	 68	  1	
06-May-2013	sub2335	2335	  1	  1	142	  3	  2	  6	  2	  3	  0	  1	  1	0.57837	  0	0.60000	  0	 26	 87	 68	  0	
06-May-2013	sub2335	2335	  1	  1	143	  3	  2	  2	  5	  6	  1	  2	  1	0.47901	  1	0.60000	  0	 22	 60	 61	  1	
06-May-2013	sub2335	2335	  1	  1	144	  3	  2	  6	  2	  3	  0	  1	  1	0.62552	  0	0.60000	  1	 26	 87	 51	  0	
06-May-2013	sub2335	2335	  1	  1	145	  3	  2	  4	  6	  6	  1	  2	  1	0.58989	  1	0.70000	  0	 24	 62	 63	  0	
06-May-2013	sub2335	2335	  1	  1	146	  3	  2	  5	  4	  5	  0	  2	  1	0.61605	  0	0.70000	  0	 25	 87	 68	  0	
06-May-2013	sub2335	2335	  1	  1	147	  3	  2	  3	  1	  1	  1	  1	  1	0.58244	  1	0.70000	  0	 23	 62	 63	  0	
06-May-2013	sub2335	2335	  1	  1	148	  3	  2	  1	  3	  3	  1	  1	  1	0.39718	  1	0.70000	  0	 21	 60	 61	  1	
06-May-2013	sub2335	2335	  1	  1	149	  3	  2	  4	  6	  6	  1	  2	  1	0.51994	  1	0.70000	  0	 24	 62	 63	  0	
06-May-2013	sub2335	2335	  1	  1	150	  3	  2	  6	  2	  3	  1	  1	  0	0.55394	  0	0.70000	  0	 26	 85	 86	  0	
06-May-2013	sub2335	2335	  1	  1	  1	  4	  1	  3	  5	  2	  1	  2	  0	0.42026	  0	0.60000	  0	 13	 42	 43	  1	
06-May-2013	sub2335	2335	  1	  1	  2	  4	  1	  5	  6	  2	  1	  2	  0	0.53872	  0	0.30000	  1	 15	 45	 51	  0	
06-May-2013	sub2335	2335	  1	  1	  3	  4	  1	  3	  5	  2	  1	  2	  0	0.52201	  0	0.90000	  0	 13	 42	 43	  0	
06-May-2013	sub2335	2335	  1	  1	  4	  4	  1	  6	  1	  6	  0	  2	  0	0.56418	  1	0.90000	  0	 16	 37	 48	  0	
06-May-2013	sub2335	2335	  1	  1	  5	  4	  1	  4	  3	  2	  1	  2	  1	0.61908	  1	0.90000	  0	 14	 32	 33	  0	
06-May-2013	sub2335	2335	  1	  1	  6	  4	  1	  1	  4	  6	  1	  2	  0	0.48081	  0	0.90000	  0	 11	 40	 41	  1	
06-May-2013	sub2335	2335	  1	  1	  7	  4	  1	  1	  4	  6	  1	  1	  1	0.78979	  1	0.90000	  0	 11	 30	 31	  0	
06-May-2013	sub2335	2335	  1	  1	  8	  4	  1	  3	  5	  2	  1	  2	  0	0.71212	  0	0.90000	  0	 13	 42	 43	  0	
06-May-2013	sub2335	2335	  1	  1	  9	  4	  1	  2	  2	  2	  1	  2	  1	0.65815	  1	0.90000	  0	 12	 30	 31	  0	
06-May-2013	sub2335	2335	  1	  1	 10	  4	  1	  6	  1	  6	  1	  1	  0	0.96474	  0	0.90000	  1	 16	 45	 51	  0	
06-May-2013	sub2335	2335	  1	  1	 11	  4	  1	  1	  4	  6	  1	  1	  1	0.44100	  1	0.90000	  0	 11	 30	 31	  1	
06-May-2013	sub2335	2335	  1	  1	 12	  4	  1	  5	  6	  2	  0	  2	  1	0.52629	  0	0.90000	  0	 15	 47	 38	  0	
06-May-2013	sub2335	2335	  1	  1	 13	  4	  1	  6	  1	  6	  0	  1	  1	0.65775	  0	0.90000	  0	 16	 47	 38	  0	
06-May-2013	sub2335	2335	  1	  1	 14	  4	  1	  4	  3	  2	  1	  2	  1	0.52598	  1	0.90000	  0	 14	 32	 33	  0	
06-May-2013	sub2335	2335	  1	  1	 15	  4	  1	  4	  3	  2	  1	  2	  1	0.41230	  1	0.90000	  0	 14	 32	 33	  1	
06-May-2013	sub2335	2335	  1	  1	 16	  4	  1	  6	  1	  6	  1	  1	  0	0.52191	  0	0.90000	  0	 16	 45	 46	  0	
06-May-2013	sub2335	2335	  1	  1	 17	  4	  1	  3	  5	  2	  1	  1	  1	0.69462	  1	0.90000	  0	 13	 32	 33	  0	
06-May-2013	sub2335	2335	  1	  1	 18	  4	  1	  3	  5	  2	  1	  1	  1	0.39077	  1	0.90000	  0	 13	 32	 33	  1	
06-May-2013	sub2335	2335	  1	  1	 19	  4	  1	  3	  5	  2	  1	  1	  1	0.46961	  1	0.90000	  0	 13	 32	 33	  1	
06-May-2013	sub2335	2335	  1	  1	 20	  4	  1	  4	  3	  2	  1	  2	  1	0.40266	  1	0.90000	  0	 14	 32	 33	  1	
06-May-2013	sub2335	2335	  1	  1	 21	  4	  1	  2	  2	  2	  1	  2	  1	0.54747	  1	0.90000	  0	 12	 30	 31	  0	
06-May-2013	sub2335	2335	  1	  1	 22	  4	  1	  5	  6	  2	  1	  2	  0	0.58997	  0	0.90000	  0	 15	 45	 46	  0	
06-May-2013	sub2335	2335	  1	  1	 23	  4	  1	  4	  3	  2	  1	  2	  1	0.42252	  1	0.90000	  0	 14	 32	 33	  1	
06-May-2013	sub2335	2335	  1	  1	 24	  4	  1	  4	  3	  2	  1	  2	  1	0.39110	  1	0.90000	  0	 14	 32	 33	  1	
06-May-2013	sub2335	2335	  1	  1	 25	  4	  1	  2	  2	  2	  1	  2	  1	0.64528	  1	0.90000	  0	 12	 30	 31	  0	
06-May-2013	sub2335	2335	  1	  1	 26	  4	  1	  3	  5	  2	  1	  1	  1	0.62295	  1	0.90000	  0	 13	 32	 33	  0	
06-May-2013	sub2335	2335	  1	  1	 27	  4	  1	  1	  4	  6	  1	  1	  1	0.56957	  1	0.90000	  0	 11	 30	 31	  0	
06-May-2013	sub2335	2335	  1	  1	 28	  4	  1	  1	  4	  6	  1	  1	  1	0.53033	  1	0.90000	  0	 11	 30	 31	  0	
06-May-2013	sub2335	2335	  1	  1	 29	  4	  1	  6	  1	  6	  1	  2	  1	0.60405	  1	0.90000	  0	 16	 35	 36	  0	
06-May-2013	sub2335	2335	  1	  1	 30	  4	  1	  3	  5	  2	  0	  1	  0	0.52611	  1	0.80000	  0	 13	 34	 49	  0	
06-May-2013	sub2335	2335	  1	  1	 31	  4	  1	  2	  2	  2	  1	  2	  1	0.58376	  1	0.80000	  0	 12	 30	 31	  0	
06-May-2013	sub2335	2335	  1	  1	 32	  4	  1	  1	  4	  6	  1	  1	  1	0.56978	  1	0.80000	  0	 11	 30	 31	  0	
06-May-2013	sub2335	2335	  1	  1	 33	  4	  1	  1	  4	  6	  1	  1	  1	0.37266	  1	0.80000	  0	 11	 30	 31	  1	
06-May-2013	sub2335	2335	  1	  1	 34	  4	  1	  6	  1	  6	  1	  2	  1	0.59839	  1	0.80000	  0	 16	 35	 36	  0	
06-May-2013	sub2335	2335	  1	  1	 35	  4	  1	  4	  3	  2	  1	  2	  1	0.60423	  1	0.70000	  0	 14	 32	 33	  0	
06-May-2013	sub2335	2335	  1	  1	 36	  4	  1	  6	  1	  6	  0	  2	  0	0.46434	  1	0.70000	  0	 16	 37	 48	  1	
06-May-2013	sub2335	2335	  1	  1	 37	  4	  1	  2	  2	  2	  1	  2	  1	0.42370	  1	0.70000	  0	 12	 30	 31	  1	
06-May-2013	sub2335	2335	  1	  1	 38	  4	  1	  1	  4	  6	  1	  1	  1	0.62885	  1	0.70000	  0	 11	 30	 31	  0	
06-May-2013	sub2335	2335	  1	  1	 39	  4	  1	  5	  6	  2	  0	  1	  0	0.59850	  1	0.70000	  0	 15	 37	 48	  0	
06-May-2013	sub2335	2335	  1	  1	 40	  4	  1	  3	  5	  2	  0	  1	  0	0.48773	  1	0.70000	  0	 13	 34	 49	  1	
06-May-2013	sub2335	2335	  1	  1	 41	  4	  1	  1	  4	  6	  1	  1	  1	0.43887	  1	0.60000	  0	 11	 30	 31	  1	
06-May-2013	sub2335	2335	  1	  1	 42	  4	  1	  3	  5	  2	  1	  1	  1	0.42496	  1	0.60000	  0	 13	 32	 33	  1	
06-May-2013	sub2335	2335	  1	  1	 43	  4	  1	  5	  6	  2	  0	  1	  0	0.43412	  1	0.60000	  0	 15	 37	 48	  1	
06-May-2013	sub2335	2335	  1	  1	 44	  4	  1	  2	  2	  2	  1	  2	  1	0.58528	  1	0.60000	  0	 12	 30	 31	  0	
06-May-2013	sub2335	2335	  1	  1	 45	  4	  1	  1	  4	  6	  1	  1	  1	0.60554	  1	0.60000	  1	 11	 30	 51	  0	
06-May-2013	sub2335	2335	  1	  1	 46	  4	  1	  3	  5	  2	  1	  1	  1	0.61980	  1	0.80000	  0	 13	 32	 33	  0	
06-May-2013	sub2335	2335	  1	  1	 47	  4	  1	  3	  5	  2	  1	  1	  1	0.43310	  1	0.80000	  0	 13	 32	 33	  1	
06-May-2013	sub2335	2335	  1	  1	 48	  4	  1	  2	  2	  2	  1	  2	  1	0.57498	  1	0.80000	  0	 12	 30	 31	  0	
06-May-2013	sub2335	2335	  1	  1	 49	  4	  1	  2	  2	  2	  1	  2	  1	0.46005	  1	0.80000	  0	 12	 30	 31	  1	
06-May-2013	sub2335	2335	  1	  1	 50	  4	  1	  4	  3	  2	  1	  2	  1	0.42594	  1	0.80000	  0	 14	 32	 33	  1	
06-May-2013	sub2335	2335	  1	  1	 51	  4	  1	  6	  1	  6	  0	  2	  0	0.57544	  1	0.70000	  0	 16	 37	 48	  0	
06-May-2013	sub2335	2335	  1	  1	 52	  4	  1	  5	  6	  2	  0	  2	  1	0.62816	  0	0.70000	  0	 15	 47	 38	  0	
06-May-2013	sub2335	2335	  1	  1	 53	  4	  1	  5	  6	  2	  1	  2	  0	0.41625	  0	0.70000	  0	 15	 45	 46	  1	
06-May-2013	sub2335	2335	  1	  1	 54	  4	  1	  6	  1	  6	  1	  2	  1	0.45843	  1	0.70000	  0	 16	 35	 36	  1	
06-May-2013	sub2335	2335	  1	  1	 55	  4	  1	  4	  3	  2	  0	  2	  0	0.52609	  1	0.70000	  0	 14	 34	 49	  0	
06-May-2013	sub2335	2335	  1	  1	 56	  4	  1	  5	  6	  2	  0	  2	  1	0.62150	  0	0.70000	  0	 15	 47	 38	  0	
06-May-2013	sub2335	2335	  1	  1	 57	  4	  1	  3	  5	  2	  0	  1	  0	0.53956	  1	0.70000	  0	 13	 34	 49	  0	
06-May-2013	sub2335	2335	  1	  1	 58	  4	  1	  6	  1	  6	  0	  1	  1	0.44070	  0	0.70000	  0	 16	 47	 38	  1	
06-May-2013	sub2335	2335	  1	  1	 59	  4	  1	  2	  2	  2	  1	  2	  1	0.64310	  1	0.70000	  0	 12	 30	 31	  0	
06-May-2013	sub2335	2335	  1	  1	 60	  4	  1	  4	  3	  2	  1	  2	  1	0.47342	  1	0.70000	  0	 14	 32	 33	  1	
06-May-2013	sub2335	2335	  1	  1	 61	  4	  1	  1	  4	  6	  1	  2	  0	0.63327	  0	0.60000	  1	 11	 40	 51	  0	
06-May-2013	sub2335	2335	  1	  1	 62	  4	  1	  5	  6	  2	  1	  2	  0	0.65976	  0	0.80000	  0	 15	 45	 46	  0	
06-May-2013	sub2335	2335	  1	  1	 63	  4	  1	  5	  6	  2	  0	  1	  0	0.53595	  1	0.80000	  0	 15	 37	 48	  0	
06-May-2013	sub2335	2335	  1	  1	 64	  4	  1	  6	  1	  6	  0	  2	  0	0.85722	  1	0.80000	  1	 16	 37	 51	  0	
06-May-2013	sub2335	2335	  1	  1	 65	  4	  1	  4	  3	  2	  0	  2	  0	0.43485	  1	0.90000	  0	 14	 34	 49	  1	
06-May-2013	sub2335	2335	  1	  1	 66	  4	  1	  5	  6	  2	  1	  1	  1	0.67130	  1	0.90000	  0	 15	 35	 36	  0	
06-May-2013	sub2335	2335	  1	  1	 67	  4	  1	  6	  1	  6	  1	  2	  1	0.49375	  1	0.90000	  0	 16	 35	 36	  1	
06-May-2013	sub2335	2335	  1	  1	 68	  4	  1	  2	  2	  2	  1	  2	  1	0.55063	  1	0.90000	  0	 12	 30	 31	  0	
06-May-2013	sub2335	2335	  1	  1	 69	  4	  1	  6	  1	  6	  1	  2	  1	0.51669	  1	0.90000	  0	 16	 35	 36	  0	
06-May-2013	sub2335	2335	  1	  1	 70	  4	  1	  2	  2	  2	  1	  2	  1	0.48061	  1	0.90000	  0	 12	 30	 31	  1	
06-May-2013	sub2335	2335	  1	  1	 71	  4	  1	  4	  3	  2	  1	  2	  1	0.42867	  1	0.90000	  0	 14	 32	 33	  1	
06-May-2013	sub2335	2335	  1	  1	 72	  4	  1	  1	  4	  6	  1	  1	  1	0.54075	  1	0.90000	  0	 11	 30	 31	  0	
06-May-2013	sub2335	2335	  1	  1	 73	  4	  1	  5	  6	  2	  1	  1	  1	0.41925	  1	0.80000	  0	 15	 35	 36	  1	
06-May-2013	sub2335	2335	  1	  1	 74	  4	  1	  2	  2	  2	  1	  2	  1	0.52110	  1	0.80000	  0	 12	 30	 31	  0	
06-May-2013	sub2335	2335	  1	  1	 75	  4	  1	  2	  2	  2	  1	  2	  1	0.50995	  1	0.80000	  0	 12	 30	 31	  0	
06-May-2013	sub2335	2335	  1	  1	 76	  4	  2	  4	  3	  2	  1	  2	  1	0.54780	  1	0.80000	  0	 24	 62	 63	  0	
06-May-2013	sub2335	2335	  1	  1	 77	  4	  2	  1	  4	  6	  1	  1	  1	0.53708	  1	0.80000	  0	 21	 60	 61	  0	
06-May-2013	sub2335	2335	  1	  1	 78	  4	  2	  4	  3	  2	  1	  2	  1	0.50280	  1	0.80000	  0	 24	 62	 63	  0	
06-May-2013	sub2335	2335	  1	  1	 79	  4	  2	  2	  2	  2	  1	  2	  1	0.47416	  1	0.80000	  0	 22	 60	 61	  1	
06-May-2013	sub2335	2335	  1	  1	 80	  4	  2	  6	  1	  6	  1	  2	  1	0.57242	  1	0.80000	  0	 26	 65	 66	  0	
06-May-2013	sub2335	2335	  1	  1	 81	  4	  2	  3	  5	  2	  1	  1	  1	0.41925	  1	0.80000	  0	 23	 62	 63	  1	
06-May-2013	sub2335	2335	  1	  1	 82	  4	  2	  5	  6	  2	  0	  2	  1	0.45699	  0	0.80000	  0	 25	 87	 68	  1	
06-May-2013	sub2335	2335	  1	  1	 83	  4	  2	  4	  3	  2	  1	  2	  1	0.47306	  1	0.80000	  0	 24	 62	 63	  1	
06-May-2013	sub2335	2335	  1	  1	 84	  4	  2	  5	  6	  2	  0	  2	  1	0.71644	  0	0.80000	  0	 25	 87	 68	  0	
06-May-2013	sub2335	2335	  1	  1	 85	  4	  2	  6	  1	  6	  0	  2	  0	0.46228	  1	0.70000	  0	 26	 67	 88	  1	
06-May-2013	sub2335	2335	  1	  1	 86	  4	  2	  5	  6	  2	  0	  2	  1	0.46734	  0	0.70000	  0	 25	 87	 68	  1	
06-May-2013	sub2335	2335	  1	  1	 87	  4	  2	  6	  1	  6	  0	  2	  0	0.46399	  1	0.70000	  0	 26	 67	 88	  1	
06-May-2013	sub2335	2335	  1	  1	 88	  4	  2	  3	  5	  2	  1	  1	  1	0.66904	  1	0.70000	  0	 23	 62	 63	  0	
06-May-2013	sub2335	2335	  1	  1	 89	  4	  2	  6	  1	  6	  0	  1	  1	0.46552	  0	0.70000	  0	 26	 87	 68	  1	
06-May-2013	sub2335	2335	  1	  1	 90	  4	  2	  2	  2	  2	  1	  2	  1	0.57627	  1	0.70000	  0	 22	 60	 61	  0	
06-May-2013	sub2335	2335	  1	  1	 91	  4	  2	  6	  1	  6	  1	  2	  1	0.49106	  1	0.70000	  0	 26	 65	 66	  1	
06-May-2013	sub2335	2335	  1	  1	 92	  4	  2	  2	  2	  2	  1	  2	  1	0.52442	  1	0.70000	  0	 22	 60	 61	  0	
06-May-2013	sub2335	2335	  1	  1	 93	  4	  2	  3	  5	  2	  0	  1	  0	0.47945	  1	0.70000	  0	 23	 64	 89	  1	
06-May-2013	sub2335	2335	  1	  1	 94	  4	  2	  4	  3	  2	  0	  2	  0	0.57478	  1	0.70000	  0	 24	 64	 89	  0	
06-May-2013	sub2335	2335	  1	  1	 95	  4	  2	  6	  1	  6	  1	  2	  1	0.54619	  1	0.70000	  0	 26	 65	 66	  0	
06-May-2013	sub2335	2335	  1	  1	 96	  4	  2	  6	  1	  6	  0	  2	  0	0.44212	  1	0.70000	  0	 26	 67	 88	  1	
06-May-2013	sub2335	2335	  1	  1	 97	  4	  2	  4	  3	  2	  0	  2	  0	0.45899	  1	0.70000	  0	 24	 64	 89	  1	
06-May-2013	sub2335	2335	  1	  1	 98	  4	  2	  2	  2	  2	  1	  2	  1	0.52154	  1	0.70000	  0	 22	 60	 61	  0	
06-May-2013	sub2335	2335	  1	  1	 99	  4	  2	  4	  3	  2	  1	  2	  1	0.40396	  1	0.70000	  0	 24	 62	 63	  1	
06-May-2013	sub2335	2335	  1	  1	100	  4	  2	  2	  2	  2	  1	  2	  1	0.49904	  1	0.70000	  0	 22	 60	 61	  1	
06-May-2013	sub2335	2335	  1	  1	101	  4	  2	  1	  4	  6	  1	  1	  1	0.50560	  1	0.60000	  0	 21	 60	 61	  0	
06-May-2013	sub2335	2335	  1	  1	102	  4	  2	  1	  4	  6	  1	  1	  1	0.49649	  1	0.60000	  0	 21	 60	 61	  1	
06-May-2013	sub2335	2335	  1	  1	103	  4	  2	  2	  2	  2	  1	  2	  1	0.57571	  1	0.60000	  0	 22	 60	 61	  0	
06-May-2013	sub2335	2335	  1	  1	104	  4	  2	  2	  2	  2	  1	  2	  1	0.39234	  1	0.60000	  0	 22	 60	 61	  1	
06-May-2013	sub2335	2335	  1	  1	105	  4	  2	  1	  4	  6	  1	  1	  1	0.54286	  1	0.60000	  0	 21	 60	 61	  0	
06-May-2013	sub2335	2335	  1	  1	106	  4	  2	  3	  5	  2	  1	  1	  1	0.41397	  1	0.60000	  0	 23	 62	 63	  1	
06-May-2013	sub2335	2335	  1	  1	107	  4	  2	  4	  3	  2	  1	  2	  1	0.54318	  1	0.60000	  0	 24	 62	 63	  0	
06-May-2013	sub2335	2335	  1	  1	108	  4	  2	  3	  5	  2	  1	  1	  1	0.74409	  1	0.60000	  1	 23	 62	 51	  0	
06-May-2013	sub2335	2335	  1	  1	109	  4	  2	  1	  4	  6	  1	  1	  1	0.57577	  1	0.70000	  0	 21	 60	 61	  0	
06-May-2013	sub2335	2335	  1	  1	110	  4	  2	  6	  1	  6	  0	  2	  0	0.55802	  1	0.70000	  0	 26	 67	 88	  0	
06-May-2013	sub2335	2335	  1	  1	111	  4	  2	  3	  5	  2	  1	  2	  0	0.44473	  0	0.70000	  0	 23	 82	 83	  1	
06-May-2013	sub2335	2335	  1	  1	112	  4	  2	  2	  2	  2	  1	  2	  1	0.52383	  1	0.70000	  0	 22	 60	 61	  0	
06-May-2013	sub2335	2335	  1	  1	113	  4	  2	  1	  4	  6	  1	  1	  1	0.61198	  1	0.70000	  0	 21	 60	 61	  0	
06-May-2013	sub2335	2335	  1	  1	114	  4	  2	  5	  6	  2	  0	  2	  1	0.62290	  0	0.70000	  0	 25	 87	 68	  0	
06-May-2013	sub2335	2335	  1	  1	115	  4	  2	  4	  3	  2	  1	  2	  1	0.45464	  1	0.70000	  0	 24	 62	 63	  1	
06-May-2013	sub2335	2335	  1	  1	116	  4	  2	  1	  4	  6	  1	  2	  0	0.58051	  0	0.70000	  0	 21	 80	 81	  0	
06-May-2013	sub2335	2335	  1	  1	117	  4	  2	  5	  6	  2	  0	  2	  1	0.70484	  0	0.70000	  1	 25	 87	 51	  0	
06-May-2013	sub2335	2335	  1	  1	118	  4	  2	  1	  4	  6	  1	  1	  1	0.46569	  1	0.70000	  0	 21	 60	 61	  1	
06-May-2013	sub2335	2335	  1	  1	119	  4	  2	  5	  6	  2	  0	  2	  1	0.66462	  0	0.70000	  0	 25	 87	 68	  0	
06-May-2013	sub2335	2335	  1	  1	120	  4	  2	  5	  6	  2	  0	  2	  1	0.47587	  0	0.70000	  0	 25	 87	 68	  1	
06-May-2013	sub2335	2335	  1	  1	121	  4	  2	  3	  5	  2	  1	  1	  1	0.56603	  1	0.70000	  0	 23	 62	 63	  0	
06-May-2013	sub2335	2335	  1	  1	122	  4	  2	  1	  4	  6	  1	  1	  1	0.37066	  1	0.70000	  0	 21	 60	 61	  1	
06-May-2013	sub2335	2335	  1	  1	123	  4	  2	  3	  5	  2	  1	  1	  1	0.53501	  1	0.70000	  0	 23	 62	 63	  0	
06-May-2013	sub2335	2335	  1	  1	124	  4	  2	  4	  3	  2	  0	  2	  0	0.50170	  1	0.70000	  0	 24	 64	 89	  0	
06-May-2013	sub2335	2335	  1	  1	125	  4	  2	  2	  2	  2	  1	  2	  1	0.53853	  1	0.70000	  0	 22	 60	 61	  0	
06-May-2013	sub2335	2335	  1	  1	126	  4	  2	  4	  3	  2	  1	  2	  1	0.43795	  1	0.70000	  0	 24	 62	 63	  1	
06-May-2013	sub2335	2335	  1	  1	127	  4	  2	  5	  6	  2	  0	  2	  1	0.53988	  0	0.70000	  0	 25	 87	 68	  0	
06-May-2013	sub2335	2335	  1	  1	128	  4	  2	  1	  4	  6	  1	  1	  1	0.52526	  1	0.70000	  0	 21	 60	 61	  0	
06-May-2013	sub2335	2335	  1	  1	129	  4	  2	  6	  1	  6	  0	  2	  0	0.52635	  1	0.70000	  0	 26	 67	 88	  0	
06-May-2013	sub2335	2335	  1	  1	130	  4	  2	  5	  6	  2	  0	  1	  0	0.58836	  1	0.70000	  0	 25	 67	 88	  0	
06-May-2013	sub2335	2335	  1	  1	131	  4	  2	  4	  3	  2	  1	  2	  1	0.51837	  1	0.70000	  0	 24	 62	 63	  0	
06-May-2013	sub2335	2335	  1	  1	132	  4	  2	  5	  6	  2	  0	  2	  1	0.51159	  0	0.70000	  0	 25	 87	 68	  0	
06-May-2013	sub2335	2335	  1	  1	133	  4	  2	  5	  6	  2	  0	  2	  1	0.43253	  0	0.70000	  0	 25	 87	 68	  1	
06-May-2013	sub2335	2335	  1	  1	134	  4	  2	  5	  6	  2	  0	  2	  1	0.43335	  0	0.70000	  0	 25	 87	 68	  1	
06-May-2013	sub2335	2335	  1	  1	135	  4	  2	  1	  4	  6	  1	  1	  1	0.64036	  1	0.70000	  0	 21	 60	 61	  0	
06-May-2013	sub2335	2335	  1	  1	136	  4	  2	  6	  1	  6	  1	  2	  1	0.53505	  1	0.70000	  0	 26	 65	 66	  0	
06-May-2013	sub2335	2335	  1	  1	137	  4	  2	  5	  6	  2	  0	  2	  1	0.58511	  0	0.70000	  0	 25	 87	 68	  0	
06-May-2013	sub2335	2335	  1	  1	138	  4	  2	  4	  3	  2	  1	  2	  1	0.54245	  1	0.70000	  0	 24	 62	 63	  0	
06-May-2013	sub2335	2335	  1	  1	139	  4	  2	  4	  3	  2	  1	  2	  1	0.43906	  1	0.70000	  0	 24	 62	 63	  1	
06-May-2013	sub2335	2335	  1	  1	140	  4	  2	  3	  5	  2	  1	  1	  1	0.58593	  1	0.70000	  0	 23	 62	 63	  0	
06-May-2013	sub2335	2335	  1	  1	141	  4	  2	  1	  4	  6	  1	  1	  1	0.41373	  1	0.60000	  0	 21	 60	 61	  1	
06-May-2013	sub2335	2335	  1	  1	142	  4	  2	  3	  5	  2	  1	  1	  1	0.52020	  1	0.60000	  0	 23	 62	 63	  0	
06-May-2013	sub2335	2335	  1	  1	143	  4	  2	  2	  2	  2	  1	  2	  1	0.49799	  1	0.60000	  0	 22	 60	 61	  1	
06-May-2013	sub2335	2335	  1	  1	144	  4	  2	  6	  1	  6	  1	  2	  1	0.47046	  1	0.60000	  0	 26	 65	 66	  1	
06-May-2013	sub2335	2335	  1	  1	145	  4	  2	  2	  2	  2	  1	  2	  1	0.43720	  1	0.60000	  0	 22	 60	 61	  1	
06-May-2013	sub2335	2335	  1	  1	146	  4	  2	  2	  2	  2	  1	  2	  1	0.42159	  1	0.60000	  0	 22	 60	 61	  1	
06-May-2013	sub2335	2335	  1	  1	147	  4	  2	  6	  1	  6	  1	  2	  1	0.47876	  1	0.60000	  0	 26	 65	 66	  1	
06-May-2013	sub2335	2335	  1	  1	148	  4	  2	  1	  4	  6	  1	  1	  1	0.58673	  1	0.60000	  0	 21	 60	 61	  0	
06-May-2013	sub2335	2335	  1	  1	149	  4	  2	  3	  5	  2	  1	  1	  1	0.41905	  1	0.60000	  0	 23	 62	 63	  1	
06-May-2013	sub2335	2335	  1	  1	150	  4	  2	  3	  5	  2	  0	  1	  0	0.45624	  1	0.60000	  0	 23	 64	 89	  1	
06-May-2013	sub2335	2335	  1	  1	  1	  5	  1	  1	  3	  5	  1	  2	  0	0.41213	  0	0.60000	  0	 11	 40	 41	  1	
06-May-2013	sub2335	2335	  1	  1	  2	  5	  1	  3	  1	  4	  1	  2	  0	0.67369	  0	0.30000	  1	 13	 42	 51	  0	
06-May-2013	sub2335	2335	  1	  1	  3	  5	  1	  3	  1	  4	  1	  2	  0	0.37415	  0	0.90000	  0	 13	 42	 43	  1	
06-May-2013	sub2335	2335	  1	  1	  4	  5	  1	  2	  5	  1	  1	  2	  1	0.51088	  1	0.90000	  0	 12	 30	 31	  0	
06-May-2013	sub2335	2335	  1	  1	  5	  5	  1	  2	  5	  1	  1	  2	  1	0.41358	  1	0.90000	  0	 12	 30	 31	  1	
06-May-2013	sub2335	2335	  1	  1	  6	  5	  1	  1	  3	  5	  1	  1	  1	0.47311	  1	0.90000	  0	 11	 30	 31	  1	
06-May-2013	sub2335	2335	  1	  1	  7	  5	  1	  4	  6	  1	  1	  2	  1	0.57519	  1	0.90000	  0	 14	 32	 33	  0	
06-May-2013	sub2335	2335	  1	  1	  8	  5	  1	  1	  3	  5	  1	  1	  1	0.77902	  1	0.90000	  0	 11	 30	 31	  0	
06-May-2013	sub2335	2335	  1	  1	  9	  5	  1	  2	  5	  1	  1	  2	  1	0.57687	  1	0.90000	  0	 12	 30	 31	  0	
06-May-2013	sub2335	2335	  1	  1	 10	  5	  1	  6	  4	  4	  0	  2	  0	0.64749	  1	0.90000	  0	 16	 37	 48	  0	
06-May-2013	sub2335	2335	  1	  1	 11	  5	  1	  3	  1	  4	  1	  2	  0	0.56368	  0	0.90000	  0	 13	 42	 43	  0	
06-May-2013	sub2335	2335	  1	  1	 12	  5	  1	  3	  1	  4	  1	  1	  1	0.56068	  1	0.90000	  0	 13	 32	 33	  0	
06-May-2013	sub2335	2335	  1	  1	 13	  5	  1	  2	  5	  1	  1	  2	  1	0.59016	  1	0.90000	  0	 12	 30	 31	  0	
06-May-2013	sub2335	2335	  1	  1	 14	  5	  1	  3	  1	  4	  1	  2	  0	0.61394	  0	0.90000	  0	 13	 42	 43	  0	
06-May-2013	sub2335	2335	  1	  1	 15	  5	  1	  3	  1	  4	  1	  1	  1	0.64349	  1	0.90000	  0	 13	 32	 33	  0	
06-May-2013	sub2335	2335	  1	  1	 16	  5	  1	  6	  4	  4	  1	  2	  1	0.60259	  1	0.80000	  0	 16	 35	 36	  0	
06-May-2013	sub2335	2335	  1	  1	 17	  5	  1	  1	  3	  5	  1	  1	  1	0.57034	  1	0.80000	  0	 11	 30	 31	  0	
06-May-2013	sub2335	2335	  1	  1	 18	  5	  1	  6	  4	  4	  0	  2	  0	0.68614	  1	0.70000	  0	 16	 37	 48	  0	
06-May-2013	sub2335	2335	  1	  1	 19	  5	  1	  1	  3	  5	  1	  1	  1	0.57193	  1	0.70000	  0	 11	 30	 31	  0	
06-May-2013	sub2335	2335	  1	  1	 20	  5	  1	  6	  4	  4	  0	  2	  0	0.57997	  1	0.70000	  0	 16	 37	 48	  0	
06-May-2013	sub2335	2335	  1	  1	 21	  5	  1	  4	  6	  1	  1	  2	  1	0.62523	  1	0.60000	  1	 14	 32	 51	  0	
06-May-2013	sub2335	2335	  1	  1	 22	  5	  1	  4	  6	  1	  1	  2	  1	0.42510	  1	0.90000	  0	 14	 32	 33	  1	
06-May-2013	sub2335	2335	  1	  1	 23	  5	  1	  5	  2	  5	  1	  2	  0	0.55100	  0	0.90000	  0	 15	 45	 46	  0	
06-May-2013	sub2335	2335	  1	  1	 24	  5	  1	  2	  5	  1	  1	  2	  1	0.60276	  1	0.90000	  0	 12	 30	 31	  0	
06-May-2013	sub2335	2335	  1	  1	 25	  5	  1	  5	  2	  5	  1	  1	  1	0.47178	  1	0.90000	  0	 15	 35	 36	  1	
06-May-2013	sub2335	2335	  1	  1	 26	  5	  1	  5	  2	  5	  0	  1	  0	0.43028	  1	0.90000	  0	 15	 37	 48	  1	
06-May-2013	sub2335	2335	  1	  1	 27	  5	  1	  5	  2	  5	  0	  1	  0	0.47203	  1	0.90000	  0	 15	 37	 48	  1	
06-May-2013	sub2335	2335	  1	  1	 28	  5	  1	  6	  4	  4	  0	  2	  0	0.62191	  1	0.90000	  0	 16	 37	 48	  0	
06-May-2013	sub2335	2335	  1	  1	 29	  5	  1	  1	  3	  5	  1	  1	  1	0.60908	  1	0.90000	  0	 11	 30	 31	  0	
06-May-2013	sub2335	2335	  1	  1	 30	  5	  1	  6	  4	  4	  1	  1	  0	0.71816	  0	0.80000	  0	 16	 45	 46	  0	
06-May-2013	sub2335	2335	  1	  1	 31	  5	  1	  6	  4	  4	  0	  2	  0	0.52430	  1	0.80000	  0	 16	 37	 48	  0	
06-May-2013	sub2335	2335	  1	  1	 32	  5	  1	  5	  2	  5	  0	  1	  0	0.55905	  1	0.80000	  0	 15	 37	 48	  0	
06-May-2013	sub2335	2335	  1	  1	 33	  5	  1	  2	  5	  1	  1	  2	  1	0.60533	  1	0.80000	  0	 12	 30	 31	  0	
06-May-2013	sub2335	2335	  1	  1	 34	  5	  1	  2	  5	  1	  1	  2	  1	0.55935	  1	0.80000	  0	 12	 30	 31	  0	
06-May-2013	sub2335	2335	  1	  1	 35	  5	  1	  1	  3	  5	  1	  1	  1	0.62947	  1	0.70000	  0	 11	 30	 31	  0	
06-May-2013	sub2335	2335	  1	  1	 36	  5	  1	  5	  2	  5	  1	  2	  0	0.52787	  0	0.70000	  0	 15	 45	 46	  0	
06-May-2013	sub2335	2335	  1	  1	 37	  5	  1	  4	  6	  1	  1	  2	  1	0.55110	  1	0.70000	  0	 14	 32	 33	  0	
06-May-2013	sub2335	2335	  1	  1	 38	  5	  1	  2	  5	  1	  1	  2	  1	0.43972	  1	0.70000	  0	 12	 30	 31	  1	
06-May-2013	sub2335	2335	  1	  1	 39	  5	  1	  3	  1	  4	  1	  1	  1	0.92449	  1	0.70000	  1	 13	 32	 51	  0	
06-May-2013	sub2335	2335	  1	  1	 40	  5	  1	  2	  5	  1	  1	  2	  1	0.59751	  1	0.90000	  0	 12	 30	 31	  0	
06-May-2013	sub2335	2335	  1	  1	 41	  5	  1	  4	  6	  1	  1	  2	  1	0.55592	  1	0.90000	  0	 14	 32	 33	  0	
06-May-2013	sub2335	2335	  1	  1	 42	  5	  1	  4	  6	  1	  1	  2	  1	0.43233	  1	0.90000	  0	 14	 32	 33	  1	
06-May-2013	sub2335	2335	  1	  1	 43	  5	  1	  1	  3	  5	  1	  1	  1	0.54002	  1	0.90000	  0	 11	 30	 31	  0	
06-May-2013	sub2335	2335	  1	  1	 44	  5	  1	  1	  3	  5	  1	  1	  1	0.49227	  1	0.80000	  0	 11	 30	 31	  1	
06-May-2013	sub2335	2335	  1	  1	 45	  5	  1	  3	  1	  4	  0	  2	  1	0.43522	  0	0.80000	  0	 13	 44	 39	  1	
06-May-2013	sub2335	2335	  1	  1	 46	  5	  1	  6	  4	  4	  1	  2	  1	0.72264	  1	0.80000	  0	 16	 35	 36	  0	
06-May-2013	sub2335	2335	  1	  1	 47	  5	  1	  6	  4	  4	  0	  2	  0	0.48470	  1	0.80000	  0	 16	 37	 48	  1	
06-May-2013	sub2335	2335	  1	  1	 48	  5	  1	  4	  6	  1	  1	  2	  1	0.53131	  1	0.80000	  0	 14	 32	 33	  0	
06-May-2013	sub2335	2335	  1	  1	 49	  5	  1	  4	  6	  1	  1	  2	  1	0.57497	  1	0.80000	  0	 14	 32	 33	  0	
06-May-2013	sub2335	2335	  1	  1	 50	  5	  1	  5	  2	  5	  1	  2	  0	0.62643	  0	0.80000	  0	 15	 45	 46	  0	
06-May-2013	sub2335	2335	  1	  1	 51	  5	  1	  6	  4	  4	  0	  2	  0	0.49373	  1	0.70000	  0	 16	 37	 48	  1	
06-May-2013	sub2335	2335	  1	  1	 52	  5	  1	  3	  1	  4	  1	  2	  0	0.76956	  0	0.70000	  1	 13	 42	 51	  0	
06-May-2013	sub2335	2335	  1	  1	 53	  5	  1	  5	  2	  5	  1	  1	  1	0.73506	  1	0.90000	  0	 15	 35	 36	  0	
06-May-2013	sub2335	2335	  1	  1	 54	  5	  1	  3	  1	  4	  0	  1	  0	0.58113	  1	0.90000	  0	 13	 34	 49	  0	
06-May-2013	sub2335	2335	  1	  1	 55	  5	  1	  5	  2	  5	  0	  1	  0	0.63279	  1	0.90000	  0	 15	 37	 48	  0	
06-May-2013	sub2335	2335	  1	  1	 56	  5	  1	  6	  4	  4	  0	  1	  1	0.52400	  0	0.90000	  0	 16	 47	 38	  0	
06-May-2013	sub2335	2335	  1	  1	 57	  5	  1	  1	  3	  5	  1	  1	  1	0.63435	  1	0.90000	  0	 11	 30	 31	  0	
06-May-2013	sub2335	2335	  1	  1	 58	  5	  1	  4	  6	  1	  1	  2	  1	0.58850	  1	0.90000	  0	 14	 32	 33	  0	
06-May-2013	sub2335	2335	  1	  1	 59	  5	  1	  1	  3	  5	  1	  1	  1	0.56189	  1	0.80000	  0	 11	 30	 31	  0	
06-May-2013	sub2335	2335	  1	  1	 60	  5	  1	  5	  2	  5	  1	  1	  1	0.62122	  1	0.80000	  0	 15	 35	 36	  0	
06-May-2013	sub2335	2335	  1	  1	 61	  5	  1	  5	  2	  5	  0	  1	  0	0.50388	  1	0.80000	  0	 15	 37	 48	  0	
06-May-2013	sub2335	2335	  1	  1	 62	  5	  1	  1	  3	  5	  1	  2	  0	0.59146	  0	0.80000	  0	 11	 40	 41	  0	
06-May-2013	sub2335	2335	  1	  1	 63	  5	  1	  3	  1	  4	  0	  1	  0	0.58263	  1	0.80000	  0	 13	 34	 49	  0	
06-May-2013	sub2335	2335	  1	  1	 64	  5	  1	  2	  5	  1	  1	  2	  1	0.59309	  1	0.80000	  0	 12	 30	 31	  0	
06-May-2013	sub2335	2335	  1	  1	 65	  5	  1	  4	  6	  1	  1	  2	  1	0.51419	  1	0.80000	  0	 14	 32	 33	  0	
06-May-2013	sub2335	2335	  1	  1	 66	  5	  1	  2	  5	  1	  1	  2	  1	0.54645	  1	0.80000	  0	 12	 30	 31	  0	
06-May-2013	sub2335	2335	  1	  1	 67	  5	  1	  6	  4	  4	  1	  2	  1	0.49092	  1	0.80000	  0	 16	 35	 36	  1	
06-May-2013	sub2335	2335	  1	  1	 68	  5	  1	  5	  2	  5	  1	  1	  1	0.63326	  1	0.70000	  0	 15	 35	 36	  0	
06-May-2013	sub2335	2335	  1	  1	 69	  5	  1	  4	  6	  1	  0	  2	  0	0.57189	  1	0.70000	  0	 14	 34	 49	  0	
06-May-2013	sub2335	2335	  1	  1	 70	  5	  1	  2	  5	  1	  1	  2	  1	0.45515	  1	0.70000	  0	 12	 30	 31	  1	
06-May-2013	sub2335	2335	  1	  1	 71	  5	  1	  4	  6	  1	  0	  2	  0	0.48440	  1	0.70000	  0	 14	 34	 49	  1	
06-May-2013	sub2335	2335	  1	  1	 72	  5	  1	  2	  5	  1	  1	  2	  1	0.49190	  1	0.70000	  0	 12	 30	 31	  1	
06-May-2013	sub2335	2335	  1	  1	 73	  5	  1	  3	  1	  4	  1	  2	  0	0.84254	  0	0.70000	  1	 13	 42	 51	  0	
06-May-2013	sub2335	2335	  1	  1	 74	  5	  1	  6	  4	  4	  1	  1	  0	0.52982	  0	0.80000	  0	 16	 45	 46	  0	
06-May-2013	sub2335	2335	  1	  1	 75	  5	  1	  3	  1	  4	  1	  1	  1	0.85509	  1	0.80000	  1	 13	 32	 51	  0	
06-May-2013	sub2335	2335	  1	  1	 76	  5	  2	  1	  3	  5	  1	  1	  1	0.53598	  1	0.90000	  0	 21	 60	 61	  0	
06-May-2013	sub2335	2335	  1	  1	 77	  5	  2	  6	  4	  4	  1	  2	  1	0.52285	  1	0.90000	  0	 26	 65	 66	  0	
06-May-2013	sub2335	2335	  1	  1	 78	  5	  2	  2	  5	  1	  1	  2	  1	0.45561	  1	0.90000	  0	 22	 60	 61	  1	
06-May-2013	sub2335	2335	  1	  1	 79	  5	  2	  6	  4	  4	  1	  2	  1	0.58233	  1	0.90000	  0	 26	 65	 66	  0	
06-May-2013	sub2335	2335	  1	  1	 80	  5	  2	  4	  6	  1	  1	  2	  1	0.47171	  1	0.90000	  0	 24	 62	 63	  1	
06-May-2013	sub2335	2335	  1	  1	 81	  5	  2	  6	  4	  4	  0	  2	  0	0.48782	  1	0.90000	  0	 26	 67	 88	  1	
06-May-2013	sub2335	2335	  1	  1	 82	  5	  2	  3	  1	  4	  1	  1	  1	0.62672	  1	0.90000	  0	 23	 62	 63	  0	
06-May-2013	sub2335	2335	  1	  1	 83	  5	  2	  2	  5	  1	  1	  2	  1	0.62479	  1	0.90000	  0	 22	 60	 61	  0	
06-May-2013	sub2335	2335	  1	  1	 84	  5	  2	  5	  2	  5	  0	  2	  1	0.53339	  0	0.90000	  0	 25	 87	 68	  0	
06-May-2013	sub2335	2335	  1	  1	 85	  5	  2	  5	  2	  5	  0	  2	  1	0.52207	  0	0.90000	  0	 25	 87	 68	  0	
06-May-2013	sub2335	2335	  1	  1	 86	  5	  2	  4	  6	  1	  1	  2	  1	0.45686	  1	0.90000	  0	 24	 62	 63	  1	
06-May-2013	sub2335	2335	  1	  1	 87	  5	  2	  1	  3	  5	  1	  1	  1	0.53883	  1	0.80000	  0	 21	 60	 61	  0	
06-May-2013	sub2335	2335	  1	  1	 88	  5	  2	  6	  4	  4	  1	  2	  1	0.71322	  1	0.80000	  0	 26	 65	 66	  0	
06-May-2013	sub2335	2335	  1	  1	 89	  5	  2	  4	  6	  1	  0	  2	  0	0.49376	  1	0.80000	  0	 24	 64	 89	  1	
06-May-2013	sub2335	2335	  1	  1	 90	  5	  2	  6	  4	  4	  1	  2	  1	0.49568	  1	0.80000	  0	 26	 65	 66	  1	
06-May-2013	sub2335	2335	  1	  1	 91	  5	  2	  3	  1	  4	  1	  1	  1	0.54282	  1	0.80000	  0	 23	 62	 63	  0	
06-May-2013	sub2335	2335	  1	  1	 92	  5	  2	  5	  2	  5	  0	  2	  1	0.65347	  0	0.80000	  0	 25	 87	 68	  0	
06-May-2013	sub2335	2335	  1	  1	 93	  5	  2	  2	  5	  1	  1	  2	  1	0.51507	  1	0.80000	  0	 22	 60	 61	  0	
06-May-2013	sub2335	2335	  1	  1	 94	  5	  2	  5	  2	  5	  0	  2	  1	0.49378	  0	0.80000	  0	 25	 87	 68	  1	
06-May-2013	sub2335	2335	  1	  1	 95	  5	  2	  4	  6	  1	  1	  2	  1	0.51626	  1	0.80000	  0	 24	 62	 63	  0	
06-May-2013	sub2335	2335	  1	  1	 96	  5	  2	  4	  6	  1	  1	  2	  1	0.49174	  1	0.80000	  0	 24	 62	 63	  1	
06-May-2013	sub2335	2335	  1	  1	 97	  5	  2	  5	  2	  5	  0	  2	  1	0.50217	  0	0.80000	  0	 25	 87	 68	  0	
06-May-2013	sub2335	2335	  1	  1	 98	  5	  2	  6	  4	  4	  0	  2	  0	0.45806	  1	0.80000	  0	 26	 67	 88	  1	
06-May-2013	sub2335	2335	  1	  1	 99	  5	  2	  5	  2	  5	  0	  2	  1	0.46398	  0	0.80000	  0	 25	 87	 68	  1	
06-May-2013	sub2335	2335	  1	  1	100	  5	  2	  1	  3	  5	  1	  1	  1	0.39956	  1	0.80000	  0	 21	 60	 61	  1	
06-May-2013	sub2335	2335	  1	  1	101	  5	  2	  3	  1	  4	  1	  1	  1	0.38676	  1	0.70000	  0	 23	 62	 63	  1	
06-May-2013	sub2335	2335	  1	  1	102	  5	  2	  4	  6	  1	  1	  2	  1	0.45063	  1	0.70000	  0	 24	 62	 63	  1	
06-May-2013	sub2335	2335	  1	  1	103	  5	  2	  1	  3	  5	  1	  2	  0	0.41953	  0	0.70000	  0	 21	 80	 81	  1	
06-May-2013	sub2335	2335	  1	  1	104	  5	  2	  6	  4	  4	  1	  2	  1	0.48692	  1	0.70000	  0	 26	 65	 66	  1	
06-May-2013	sub2335	2335	  1	  1	105	  5	  2	  4	  6	  1	  0	  2	  0	0.49440	  1	0.70000	  0	 24	 64	 89	  1	
06-May-2013	sub2335	2335	  1	  1	106	  5	  2	  4	  6	  1	  1	  2	  1	0.46441	  1	0.70000	  0	 24	 62	 63	  1	
06-May-2013	sub2335	2335	  1	  1	107	  5	  2	  2	  5	  1	  1	  2	  1	0.47843	  1	0.70000	  0	 22	 60	 61	  1	
06-May-2013	sub2335	2335	  1	  1	108	  5	  2	  4	  6	  1	  1	  2	  1	0.51142	  1	0.70000	  0	 24	 62	 63	  0	
06-May-2013	sub2335	2335	  1	  1	109	  5	  2	  1	  3	  5	  1	  1	  1	0.44497	  1	0.70000	  0	 21	 60	 61	  1	
06-May-2013	sub2335	2335	  1	  1	110	  5	  2	  1	  3	  5	  1	  1	  1	0.63415	  1	0.70000	  0	 21	 60	 61	  0	
06-May-2013	sub2335	2335	  1	  1	111	  5	  2	  1	  3	  5	  1	  1	  1	0.41941	  1	0.70000	  0	 21	 60	 61	  1	
06-May-2013	sub2335	2335	  1	  1	112	  5	  2	  3	  1	  4	  1	  1	  1	0.46889	  1	0.70000	  0	 23	 62	 63	  1	
06-May-2013	sub2335	2335	  1	  1	113	  5	  2	  2	  5	  1	  1	  2	  1	0.59300	  1	0.70000	  0	 22	 60	 61	  0	
06-May-2013	sub2335	2335	  1	  1	114	  5	  2	  2	  5	  1	  1	  2	  1	0.45827	  1	0.70000	  0	 22	 60	 61	  1	
06-May-2013	sub2335	2335	  1	  1	115	  5	  2	  1	  3	  5	  1	  1	  1	0.41942	  1	0.70000	  0	 21	 60	 61	  1	
06-May-2013	sub2335	2335	  1	  1	116	  5	  2	  3	  1	  4	  0	  1	  0	0.40418	  1	0.70000	  0	 23	 64	 89	  1	
06-May-2013	sub2335	2335	  1	  1	117	  5	  2	  6	  4	  4	  0	  2	  0	0.54412	  1	0.70000	  0	 26	 67	 88	  0	
06-May-2013	sub2335	2335	  1	  1	118	  5	  2	  4	  6	  1	  1	  2	  1	0.40567	  1	0.70000	  0	 24	 62	 63	  1	
06-May-2013	sub2335	2335	  1	  1	119	  5	  2	  2	  5	  1	  1	  2	  1	0.48465	  1	0.70000	  0	 22	 60	 61	  1	
06-May-2013	sub2335	2335	  1	  1	120	  5	  2	  1	  3	  5	  1	  1	  1	0.45868	  1	0.70000	  0	 21	 60	 61	  1	
06-May-2013	sub2335	2335	  1	  1	121	  5	  2	  5	  2	  5	  0	  2	  1	0.51056	  0	0.60000	  0	 25	 87	 68	  0	
06-May-2013	sub2335	2335	  1	  1	122	  5	  2	  2	  5	  1	  1	  2	  1	0.45453	  1	0.60000	  0	 22	 60	 61	  1	
06-May-2013	sub2335	2335	  1	  1	123	  5	  2	  2	  5	  1	  1	  2	  1	0.45660	  1	0.60000	  0	 22	 60	 61	  1	
06-May-2013	sub2335	2335	  1	  1	124	  5	  2	  5	  2	  5	  0	  2	  1	0.42602	  0	0.60000	  0	 25	 87	 68	  1	
06-May-2013	sub2335	2335	  1	  1	125	  5	  2	  4	  6	  1	  0	  2	  0	0.42886	  1	0.60000	  0	 24	 64	 89	  1	
06-May-2013	sub2335	2335	  1	  1	126	  5	  2	  3	  1	  4	  1	  1	  1	0.66427	  1	0.60000	  1	 23	 62	 51	  0	
06-May-2013	sub2335	2335	  1	  1	127	  5	  2	  2	  5	  1	  1	  2	  1	0.62475	  1	0.70000	  0	 22	 60	 61	  0	
06-May-2013	sub2335	2335	  1	  1	128	  5	  2	  1	  3	  5	  1	  1	  1	0.47449	  1	0.70000	  0	 21	 60	 61	  1	
06-May-2013	sub2335	2335	  1	  1	129	  5	  2	  6	  4	  4	  0	  2	  0	0.57944	  1	0.70000	  0	 26	 67	 88	  0	
06-May-2013	sub2335	2335	  1	  1	130	  5	  2	  3	  1	  4	  1	  2	  0	0.47201	  0	0.70000	  0	 23	 82	 83	  1	
06-May-2013	sub2335	2335	  1	  1	131	  5	  2	  1	  3	  5	  1	  1	  1	0.43073	  1	0.70000	  0	 21	 60	 61	  1	
06-May-2013	sub2335	2335	  1	  1	132	  5	  2	  2	  5	  1	  1	  2	  1	0.68057	  1	0.70000	  0	 22	 60	 61	  0	
06-May-2013	sub2335	2335	  1	  1	133	  5	  2	  3	  1	  4	  1	  1	  1	0.70534	  1	0.70000	  1	 23	 62	 51	  0	
06-May-2013	sub2335	2335	  1	  1	134	  5	  2	  3	  1	  4	  0	  1	  0	0.53982	  1	0.80000	  0	 23	 64	 89	  0	
06-May-2013	sub2335	2335	  1	  1	135	  5	  2	  5	  2	  5	  0	  2	  1	0.55101	  0	0.70000	  0	 25	 87	 68	  0	
06-May-2013	sub2335	2335	  1	  1	136	  5	  2	  3	  1	  4	  1	  1	  1	0.42444	  1	0.70000	  0	 23	 62	 63	  1	
06-May-2013	sub2335	2335	  1	  1	137	  5	  2	  2	  5	  1	  1	  2	  1	0.56485	  1	0.70000	  0	 22	 60	 61	  0	
06-May-2013	sub2335	2335	  1	  1	138	  5	  2	  1	  3	  5	  1	  1	  1	0.49292	  1	0.70000	  0	 21	 60	 61	  1	
06-May-2013	sub2335	2335	  1	  1	139	  5	  2	  3	  1	  4	  1	  1	  1	0.58547	  1	0.70000	  0	 23	 62	 63	  0	
06-May-2013	sub2335	2335	  1	  1	140	  5	  2	  4	  6	  1	  1	  2	  1	0.49932	  1	0.70000	  0	 24	 62	 63	  1	
06-May-2013	sub2335	2335	  1	  1	141	  5	  2	  3	  1	  4	  1	  2	  0	0.45496	  0	0.70000	  0	 23	 82	 83	  1	
06-May-2013	sub2335	2335	  1	  1	142	  5	  2	  5	  2	  5	  0	  2	  1	0.64879	  0	0.70000	  0	 25	 87	 68	  0	
06-May-2013	sub2335	2335	  1	  1	143	  5	  2	  1	  3	  5	  1	  1	  1	0.47358	  1	0.70000	  0	 21	 60	 61	  1	
06-May-2013	sub2335	2335	  1	  1	144	  5	  2	  6	  4	  4	  0	  2	  0	0.52957	  1	0.70000	  0	 26	 67	 88	  0	
06-May-2013	sub2335	2335	  1	  1	145	  5	  2	  6	  4	  4	  0	  2	  0	0.72875	  1	0.70000	  1	 26	 67	 51	  0	
06-May-2013	sub2335	2335	  1	  1	146	  5	  2	  5	  2	  5	  0	  2	  1	0.45926	  0	0.80000	  0	 25	 87	 68	  1	
06-May-2013	sub2335	2335	  1	  1	147	  5	  2	  4	  6	  1	  1	  2	  1	0.48305	  1	0.80000	  0	 24	 62	 63	  1	
06-May-2013	sub2335	2335	  1	  1	148	  5	  2	  5	  2	  5	  0	  2	  1	0.58201	  0	0.80000	  0	 25	 87	 68	  0	
06-May-2013	sub2335	2335	  1	  1	149	  5	  2	  5	  2	  5	  0	  2	  1	0.50602	  0	0.80000	  0	 25	 87	 68	  0	
06-May-2013	sub2335	2335	  1	  1	150	  5	  2	  6	  4	  4	  1	  2	  1	0.52005	  1	0.80000	  0	 26	 65	 66	  0	
06-May-2013	sub2335	2335	  1	  1	  1	  6	  1	  2	  5	  3	  1	  2	  1	0.46421	  1	0.60000	  0	 12	 30	 31	  1	
06-May-2013	sub2335	2335	  1	  1	  2	  6	  1	  1	  3	  1	  1	  2	  0	0.52207	  0	0.30000	  1	 11	 40	 51	  0	
06-May-2013	sub2335	2335	  1	  1	  3	  6	  1	  2	  5	  3	  1	  2	  1	0.34152	  1	0.90000	  0	 12	 30	 31	  1	
06-May-2013	sub2335	2335	  1	  1	  4	  6	  1	  4	  1	  5	  1	  2	  1	0.41158	  1	0.90000	  0	 14	 32	 33	  1	
06-May-2013	sub2335	2335	  1	  1	  5	  6	  1	  5	  2	  1	  0	  2	  1	0.45496	  0	0.90000	  0	 15	 47	 38	  1	
06-May-2013	sub2335	2335	  1	  1	  6	  6	  1	  2	  5	  3	  1	  2	  1	0.47103	  1	0.90000	  0	 12	 30	 31	  1	
06-May-2013	sub2335	2335	  1	  1	  7	  6	  1	  4	  1	  5	  1	  2	  1	0.46017	  1	0.90000	  0	 14	 32	 33	  1	
06-May-2013	sub2335	2335	  1	  1	  8	  6	  1	  3	  4	  1	  1	  2	  0	0.64337	  0	0.90000	  0	 13	 42	 43	  0	
06-May-2013	sub2335	2335	  1	  1	  9	  6	  1	  3	  4	  1	  0	  1	  0	0.47656	  1	0.90000	  0	 13	 34	 49	  1	
06-May-2013	sub2335	2335	  1	  1	 10	  6	  1	  3	  4	  1	  1	  1	  1	0.51900	  1	0.90000	  0	 13	 32	 33	  0	
06-May-2013	sub2335	2335	  1	  1	 11	  6	  1	  1	  3	  1	  1	  2	  0	0.48985	  0	0.90000	  0	 11	 40	 41	  1	
06-May-2013	sub2335	2335	  1	  1	 12	  6	  1	  1	  3	  1	  1	  1	  1	0.46017	  1	0.90000	  0	 11	 30	 31	  1	
06-May-2013	sub2335	2335	  1	  1	 13	  6	  1	  3	  4	  1	  1	  2	  0	0.52786	  0	0.90000	  0	 13	 42	 43	  0	
06-May-2013	sub2335	2335	  1	  1	 14	  6	  1	  2	  5	  3	  1	  2	  1	0.69359	  1	0.90000	  0	 12	 30	 31	  0	
06-May-2013	sub2335	2335	  1	  1	 15	  6	  1	  1	  3	  1	  1	  2	  0	0.40709	  0	0.90000	  0	 11	 40	 41	  1	
06-May-2013	sub2335	2335	  1	  1	 16	  6	  1	  4	  1	  5	  1	  2	  1	0.56969	  1	0.80000	  0	 14	 32	 33	  0	
06-May-2013	sub2335	2335	  1	  1	 17	  6	  1	  5	  2	  1	  1	  2	  0	0.51445	  0	0.80000	  0	 15	 45	 46	  0	
06-May-2013	sub2335	2335	  1	  1	 18	  6	  1	  4	  1	  5	  1	  2	  1	0.63130	  1	0.70000	  0	 14	 32	 33	  0	
06-May-2013	sub2335	2335	  1	  1	 19	  6	  1	  3	  4	  1	  1	  1	  1	0.53695	  1	0.70000	  0	 13	 32	 33	  0	
06-May-2013	sub2335	2335	  1	  1	 20	  6	  1	  4	  1	  5	  1	  2	  1	0.61410	  1	0.70000	  0	 14	 32	 33	  0	
06-May-2013	sub2335	2335	  1	  1	 21	  6	  1	  6	  6	  3	  1	  2	  1	0.55522	  1	0.60000	  0	 16	 35	 36	  0	
06-May-2013	sub2335	2335	  1	  1	 22	  6	  1	  4	  1	  5	  1	  2	  1	0.44461	  1	0.60000	  0	 14	 32	 33	  1	
06-May-2013	sub2335	2335	  1	  1	 23	  6	  1	  4	  1	  5	  1	  2	  1	0.41732	  1	0.60000	  0	 14	 32	 33	  1	
06-May-2013	sub2335	2335	  1	  1	 24	  6	  1	  2	  5	  3	  1	  2	  1	0.56114	  1	0.60000	  0	 12	 30	 31	  0	
06-May-2013	sub2335	2335	  1	  1	 25	  6	  1	  5	  2	  1	  0	  1	  0	0.50372	  1	0.60000	  0	 15	 37	 48	  0	
06-May-2013	sub2335	2335	  1	  1	 26	  6	  1	  6	  6	  3	  0	  2	  0	0.73256	  1	0.50000	  1	 16	 37	 51	  0	
06-May-2013	sub2335	2335	  1	  1	 27	  6	  1	  6	  6	  3	  0	  2	  0	0.45247	  1	0.90000	  0	 16	 37	 48	  1	
06-May-2013	sub2335	2335	  1	  1	 28	  6	  1	  1	  3	  1	  1	  1	  1	0.57519	  1	0.90000	  0	 11	 30	 31	  0	
06-May-2013	sub2335	2335	  1	  1	 29	  6	  1	  6	  6	  3	  0	  1	  1	0.42980	  0	0.90000	  0	 16	 47	 38	  1	
06-May-2013	sub2335	2335	  1	  1	 30	  6	  1	  1	  3	  1	  1	  1	  1	0.40405	  1	0.80000	  0	 11	 30	 31	  1	
06-May-2013	sub2335	2335	  1	  1	 31	  6	  1	  1	  3	  1	  1	  1	  1	0.45397	  1	0.80000	  0	 11	 30	 31	  1	
06-May-2013	sub2335	2335	  1	  1	 32	  6	  1	  1	  3	  1	  1	  1	  1	0.41818	  1	0.80000	  0	 11	 30	 31	  1	
06-May-2013	sub2335	2335	  1	  1	 33	  6	  1	  6	  6	  3	  0	  1	  1	0.54812	  0	0.80000	  0	 16	 47	 38	  0	
06-May-2013	sub2335	2335	  1	  1	 34	  6	  1	  6	  6	  3	  0	  1	  1	0.44436	  0	0.80000	  0	 16	 47	 38	  1	
06-May-2013	sub2335	2335	  1	  1	 35	  6	  1	  4	  1	  5	  0	  2	  0	0.60197	  1	0.70000	  0	 14	 34	 49	  0	
06-May-2013	sub2335	2335	  1	  1	 36	  6	  1	  6	  6	  3	  0	  1	  1	0.64089	  0	0.70000	  0	 16	 47	 38	  0	
06-May-2013	sub2335	2335	  1	  1	 37	  6	  1	  2	  5	  3	  1	  2	  1	0.49042	  1	0.70000	  0	 12	 30	 31	  1	
06-May-2013	sub2335	2335	  1	  1	 38	  6	  1	  5	  2	  1	  1	  2	  0	0.57242	  0	0.70000	  0	 15	 45	 46	  0	
06-May-2013	sub2335	2335	  1	  1	 39	  6	  1	  3	  4	  1	  1	  1	  1	0.56011	  1	0.70000	  0	 13	 32	 33	  0	
06-May-2013	sub2335	2335	  1	  1	 40	  6	  1	  4	  1	  5	  0	  2	  0	0.62808	  1	0.70000	  0	 14	 34	 49	  0	
06-May-2013	sub2335	2335	  1	  1	 41	  6	  1	  1	  3	  1	  1	  2	  0	0.44136	  0	0.60000	  0	 11	 40	 41	  1	
06-May-2013	sub2335	2335	  1	  1	 42	  6	  1	  3	  4	  1	  1	  1	  1	0.57119	  1	0.60000	  0	 13	 32	 33	  0	
06-May-2013	sub2335	2335	  1	  1	 43	  6	  1	  5	  2	  1	  1	  1	  1	0.57661	  1	0.60000	  0	 15	 35	 36	  0	
06-May-2013	sub2335	2335	  1	  1	 44	  6	  1	  2	  5	  3	  1	  2	  1	0.54089	  1	0.60000	  0	 12	 30	 31	  0	
06-May-2013	sub2335	2335	  1	  1	 45	  6	  1	  6	  6	  3	  1	  1	  0	0.56056	  0	0.60000	  0	 16	 45	 46	  0	
06-May-2013	sub2335	2335	  1	  1	 46	  6	  1	  4	  1	  5	  1	  2	  1	0.53941	  1	0.60000	  0	 14	 32	 33	  0	
06-May-2013	sub2335	2335	  1	  1	 47	  6	  1	  1	  3	  1	  1	  1	  1	0.55093	  1	0.60000	  0	 11	 30	 31	  0	
06-May-2013	sub2335	2335	  1	  1	 48	  6	  1	  5	  2	  1	  0	  2	  1	0.57149	  0	0.60000	  0	 15	 47	 38	  0	
06-May-2013	sub2335	2335	  1	  1	 49	  6	  1	  2	  5	  3	  1	  2	  1	0.59786	  1	0.60000	  0	 12	 30	 31	  0	
06-May-2013	sub2335	2335	  1	  1	 50	  6	  1	  1	  3	  1	  1	  1	  1	0.71501	  1	0.60000	  1	 11	 30	 51	  0	
06-May-2013	sub2335	2335	  1	  1	 51	  6	  1	  3	  4	  1	  1	  1	  1	0.52081	  1	0.70000	  0	 13	 32	 33	  0	
06-May-2013	sub2335	2335	  1	  1	 52	  6	  1	  6	  6	  3	  1	  1	  0	0.58250	  0	0.70000	  0	 16	 45	 46	  0	
06-May-2013	sub2335	2335	  1	  1	 53	  6	  1	  5	  2	  1	  0	  1	  0	0.63726	  1	0.70000	  0	 15	 37	 48	  0	
06-May-2013	sub2335	2335	  1	  1	 54	  6	  1	  5	  2	  1	  1	  2	  0	0.53188	  0	0.70000	  0	 15	 45	 46	  0	
06-May-2013	sub2335	2335	  1	  1	 55	  6	  1	  2	  5	  3	  1	  2	  1	0.59805	  1	0.70000	  0	 12	 30	 31	  0	
06-May-2013	sub2335	2335	  1	  1	 56	  6	  1	  1	  3	  1	  1	  2	  0	0.45013	  0	0.70000	  0	 11	 40	 41	  1	
06-May-2013	sub2335	2335	  1	  1	 57	  6	  1	  4	  1	  5	  1	  1	  0	0.71537	  0	0.70000	  1	 14	 42	 51	  0	
06-May-2013	sub2335	2335	  1	  1	 58	  6	  1	  3	  4	  1	  0	  1	  0	0.64688	  1	0.90000	  0	 13	 34	 49	  0	
06-May-2013	sub2335	2335	  1	  1	 59	  6	  1	  2	  5	  3	  1	  2	  1	0.52914	  1	0.80000	  0	 12	 30	 31	  0	
06-May-2013	sub2335	2335	  1	  1	 60	  6	  1	  6	  6	  3	  0	  1	  1	0.60722	  0	0.80000	  0	 16	 47	 38	  0	
06-May-2013	sub2335	2335	  1	  1	 61	  6	  1	  5	  2	  1	  1	  2	  0	0.76662	  0	0.80000	  0	 15	 45	 46	  0	
06-May-2013	sub2335	2335	  1	  1	 62	  6	  1	  6	  6	  3	  1	  1	  0	0.60205	  0	0.80000	  0	 16	 45	 46	  0	
06-May-2013	sub2335	2335	  1	  1	 63	  6	  1	  6	  6	  3	  0	  1	  1	0.41471	  0	0.80000	  0	 16	 47	 38	  1	
06-May-2013	sub2335	2335	  1	  1	 64	  6	  1	  2	  5	  3	  1	  2	  1	0.61881	  1	0.80000	  0	 12	 30	 31	  0	
06-May-2013	sub2335	2335	  1	  1	 65	  6	  1	  3	  4	  1	  1	  1	  1	0.62457	  1	0.80000	  0	 13	 32	 33	  0	
06-May-2013	sub2335	2335	  1	  1	 66	  6	  1	  5	  2	  1	  0	  1	  0	0.67771	  1	0.80000	  0	 15	 37	 48	  0	
06-May-2013	sub2335	2335	  1	  1	 67	  6	  1	  4	  1	  5	  1	  2	  1	0.65193	  1	0.80000	  0	 14	 32	 33	  0	
06-May-2013	sub2335	2335	  1	  1	 68	  6	  1	  2	  5	  3	  1	  2	  1	0.56189	  1	0.70000	  0	 12	 30	 31	  0	
06-May-2013	sub2335	2335	  1	  1	 69	  6	  1	  3	  4	  1	  1	  1	  1	0.52129	  1	0.70000	  0	 13	 32	 33	  0	
06-May-2013	sub2335	2335	  1	  1	 70	  6	  1	  2	  5	  3	  1	  2	  1	0.57809	  1	0.70000	  0	 12	 30	 31	  0	
06-May-2013	sub2335	2335	  1	  1	 71	  6	  1	  6	  6	  3	  1	  1	  0	0.49583	  0	0.70000	  0	 16	 45	 46	  1	
06-May-2013	sub2335	2335	  1	  1	 72	  6	  1	  5	  2	  1	  1	  2	  0	0.52651	  0	0.70000	  0	 15	 45	 46	  0	
06-May-2013	sub2335	2335	  1	  1	 73	  6	  1	  5	  2	  1	  1	  2	  0	0.48257	  0	0.70000	  0	 15	 45	 46	  1	
06-May-2013	sub2335	2335	  1	  1	 74	  6	  1	  3	  4	  1	  1	  1	  1	0.71225	  1	0.70000	  1	 13	 32	 51	  0	
06-May-2013	sub2335	2335	  1	  1	 75	  6	  1	  3	  4	  1	  0	  1	  0	0.41678	  1	0.80000	  0	 13	 34	 49	  1	
06-May-2013	sub2335	2335	  1	  1	 76	  6	  2	  1	  3	  1	  1	  1	  1	0.54062	  1	0.80000	  0	 21	 60	 61	  0	
06-May-2013	sub2335	2335	  1	  1	 77	  6	  2	  1	  3	  1	  1	  1	  1	0.42880	  1	0.80000	  0	 21	 60	 61	  1	
06-May-2013	sub2335	2335	  1	  1	 78	  6	  2	  6	  6	  3	  1	  1	  0	0.47184	  0	0.80000	  0	 26	 85	 86	  1	
06-May-2013	sub2335	2335	  1	  1	 79	  6	  2	  4	  1	  5	  1	  2	  1	0.59292	  1	0.80000	  0	 24	 62	 63	  0	
06-May-2013	sub2335	2335	  1	  1	 80	  6	  2	  3	  4	  1	  1	  1	  1	0.56215	  1	0.80000	  0	 23	 62	 63	  0	
06-May-2013	sub2335	2335	  1	  1	 81	  6	  2	  4	  1	  5	  0	  2	  0	0.54797	  1	0.80000	  0	 24	 64	 89	  0	
06-May-2013	sub2335	2335	  1	  1	 82	  6	  2	  3	  4	  1	  1	  1	  1	0.66462	  1	0.80000	  0	 23	 62	 63	  0	
06-May-2013	sub2335	2335	  1	  1	 83	  6	  2	  1	  3	  1	  1	  1	  1	0.59617	  1	0.80000	  0	 21	 60	 61	  0	
06-May-2013	sub2335	2335	  1	  1	 84	  6	  2	  6	  6	  3	  1	  1	  0	0.48905	  0	0.80000	  0	 26	 85	 86	  1	
06-May-2013	sub2335	2335	  1	  1	 85	  6	  2	  4	  1	  5	  0	  2	  0	0.58891	  1	0.70000	  0	 24	 64	 89	  0	
06-May-2013	sub2335	2335	  1	  1	 86	  6	  2	  4	  1	  5	  1	  2	  1	0.42229	  1	0.70000	  0	 24	 62	 63	  1	
06-May-2013	sub2335	2335	  1	  1	 87	  6	  2	  2	  5	  3	  1	  2	  1	0.52421	  1	0.70000	  0	 22	 60	 61	  0	
06-May-2013	sub2335	2335	  1	  1	 88	  6	  2	  5	  2	  1	  0	  1	  0	0.54836	  1	0.70000	  0	 25	 67	 88	  0	
06-May-2013	sub2335	2335	  1	  1	 89	  6	  2	  5	  2	  1	  0	  2	  1	0.47246	  0	0.70000	  0	 25	 87	 68	  1	
06-May-2013	sub2335	2335	  1	  1	 90	  6	  2	  5	  2	  1	  0	  2	  1	0.42091	  0	0.70000	  0	 25	 87	 68	  1	
06-May-2013	sub2335	2335	  1	  1	 91	  6	  2	  1	  3	  1	  1	  1	  1	0.55890	  1	0.70000	  0	 21	 60	 61	  0	
06-May-2013	sub2335	2335	  1	  1	 92	  6	  2	  5	  2	  1	  0	  2	  1	0.43034	  0	0.70000	  0	 25	 87	 68	  1	
06-May-2013	sub2335	2335	  1	  1	 93	  6	  2	  2	  5	  3	  1	  2	  1	0.48693	  1	0.70000	  0	 22	 60	 61	  1	
06-May-2013	sub2335	2335	  1	  1	 94	  6	  2	  5	  2	  1	  0	  2	  1	0.54441	  0	0.70000	  0	 25	 87	 68	  0	
06-May-2013	sub2335	2335	  1	  1	 95	  6	  2	  3	  4	  1	  1	  1	  1	0.54868	  1	0.70000	  0	 23	 62	 63	  0	
06-May-2013	sub2335	2335	  1	  1	 96	  6	  2	  5	  2	  1	  0	  2	  1	0.61949	  0	0.70000	  0	 25	 87	 68	  0	
06-May-2013	sub2335	2335	  1	  1	 97	  6	  2	  2	  5	  3	  1	  2	  1	0.49315	  1	0.70000	  0	 22	 60	 61	  1	
06-May-2013	sub2335	2335	  1	  1	 98	  6	  2	  4	  1	  5	  0	  2	  0	0.47872	  1	0.70000	  0	 24	 64	 89	  1	
06-May-2013	sub2335	2335	  1	  1	 99	  6	  2	  6	  6	  3	  1	  1	  0	0.64065	  0	0.70000	  0	 26	 85	 86	  0	
06-May-2013	sub2335	2335	  1	  1	100	  6	  2	  4	  1	  5	  1	  2	  1	0.58518	  1	0.70000	  0	 24	 62	 63	  0	
06-May-2013	sub2335	2335	  1	  1	101	  6	  2	  2	  5	  3	  1	  2	  1	0.58422	  1	0.60000	  0	 22	 60	 61	  0	
06-May-2013	sub2335	2335	  1	  1	102	  6	  2	  1	  3	  1	  1	  1	  1	0.62325	  1	0.60000	  1	 21	 60	 51	  0	
06-May-2013	sub2335	2335	  1	  1	103	  6	  2	  3	  4	  1	  1	  1	  1	0.54574	  1	0.70000	  0	 23	 62	 63	  0	
06-May-2013	sub2335	2335	  1	  1	104	  6	  2	  1	  3	  1	  1	  1	  1	0.37800	  1	0.70000	  0	 21	 60	 61	  1	
06-May-2013	sub2335	2335	  1	  1	105	  6	  2	  6	  6	  3	  0	  1	  1	0.50438	  0	0.70000	  0	 26	 87	 68	  0	
06-May-2013	sub2335	2335	  1	  1	106	  6	  2	  6	  6	  3	  1	  1	  0	0.45015	  0	0.70000	  0	 26	 85	 86	  1	
06-May-2013	sub2335	2335	  1	  1	107	  6	  2	  5	  2	  1	  0	  2	  1	0.54522	  0	0.70000	  0	 25	 87	 68	  0	
06-May-2013	sub2335	2335	  1	  1	108	  6	  2	  2	  5	  3	  1	  2	  1	0.51609	  1	0.70000	  0	 22	 60	 61	  0	
06-May-2013	sub2335	2335	  1	  1	109	  6	  2	  4	  1	  5	  1	  2	  1	0.49693	  1	0.70000	  0	 24	 62	 63	  1	
06-May-2013	sub2335	2335	  1	  1	110	  6	  2	  5	  2	  1	  0	  2	  1	0.55695	  0	0.70000	  0	 25	 87	 68	  0	
06-May-2013	sub2335	2335	  1	  1	111	  6	  2	  4	  1	  5	  1	  2	  1	0.45156	  1	0.70000	  0	 24	 62	 63	  1	
06-May-2013	sub2335	2335	  1	  1	112	  6	  2	  4	  1	  5	  1	  2	  1	0.45725	  1	0.70000	  0	 24	 62	 63	  1	
06-May-2013	sub2335	2335	  1	  1	113	  6	  2	  3	  4	  1	  0	  1	  0	0.55575	  1	0.70000	  0	 23	 64	 89	  0	
06-May-2013	sub2335	2335	  1	  1	114	  6	  2	  6	  6	  3	  0	  1	  1	0.49328	  0	0.70000	  0	 26	 87	 68	  1	
06-May-2013	sub2335	2335	  1	  1	115	  6	  2	  3	  4	  1	  1	  1	  1	0.56287	  1	0.70000	  0	 23	 62	 63	  0	
06-May-2013	sub2335	2335	  1	  1	116	  6	  2	  5	  2	  1	  0	  2	  1	0.61843	  0	0.70000	  0	 25	 87	 68	  0	
06-May-2013	sub2335	2335	  1	  1	117	  6	  2	  6	  6	  3	  0	  1	  1	0.67506	  0	0.70000	  0	 26	 87	 68	  0	
06-May-2013	sub2335	2335	  1	  1	118	  6	  2	  6	  6	  3	  1	  1	  0	0.44342	  0	0.70000	  0	 26	 85	 86	  1	
06-May-2013	sub2335	2335	  1	  1	119	  6	  2	  3	  4	  1	  1	  1	  1	0.53655	  1	0.70000	  0	 23	 62	 63	  0	
06-May-2013	sub2335	2335	  1	  1	120	  6	  2	  5	  2	  1	  0	  2	  1	0.67029	  0	0.70000	  0	 25	 87	 68	  0	
06-May-2013	sub2335	2335	  1	  1	121	  6	  2	  2	  5	  3	  1	  2	  1	0.51371	  1	0.60000	  0	 22	 60	 61	  0	
06-May-2013	sub2335	2335	  1	  1	122	  6	  2	  1	  3	  1	  1	  2	  0	0.43333	  0	0.60000	  0	 21	 80	 81	  1	
06-May-2013	sub2335	2335	  1	  1	123	  6	  2	  1	  3	  1	  1	  1	  1	0.44013	  1	0.60000	  0	 21	 60	 61	  1	
06-May-2013	sub2335	2335	  1	  1	124	  6	  2	  1	  3	  1	  1	  1	  1	0.42785	  1	0.60000	  0	 21	 60	 61	  1	
06-May-2013	sub2335	2335	  1	  1	125	  6	  2	  4	  1	  5	  1	  2	  1	0.56110	  1	0.60000	  0	 24	 62	 63	  0	
06-May-2013	sub2335	2335	  1	  1	126	  6	  2	  2	  5	  3	  1	  2	  1	0.53141	  1	0.60000	  0	 22	 60	 61	  0	
06-May-2013	sub2335	2335	  1	  1	127	  6	  2	  3	  4	  1	  1	  1	  1	0.57609	  1	0.60000	  0	 23	 62	 63	  0	
06-May-2013	sub2335	2335	  1	  1	128	  6	  2	  5	  2	  1	  0	  2	  1	0.62346	  0	0.60000	  1	 25	 87	 51	  0	
06-May-2013	sub2335	2335	  1	  1	129	  6	  2	  3	  4	  1	  0	  1	  0	0.64869	  1	0.70000	  0	 23	 64	 89	  0	
06-May-2013	sub2335	2335	  1	  1	130	  6	  2	  1	  3	  1	  1	  1	  1	0.55518	  1	0.70000	  0	 21	 60	 61	  0	
06-May-2013	sub2335	2335	  1	  1	131	  6	  2	  3	  4	  1	  1	  1	  1	0.53877	  1	0.70000	  0	 23	 62	 63	  0	
06-May-2013	sub2335	2335	  1	  1	132	  6	  2	  6	  6	  3	  1	  1	  0	0.51239	  0	0.70000	  0	 26	 85	 86	  0	
06-May-2013	sub2335	2335	  1	  1	133	  6	  2	  6	  6	  3	  0	  1	  1	0.46447	  0	0.70000	  0	 26	 87	 68	  1	
06-May-2013	sub2335	2335	  1	  1	134	  6	  2	  1	  3	  1	  1	  1	  1	0.54190	  1	0.70000	  0	 21	 60	 61	  0	
06-May-2013	sub2335	2335	  1	  1	135	  6	  2	  2	  5	  3	  1	  2	  1	0.49571	  1	0.70000	  0	 22	 60	 61	  1	
06-May-2013	sub2335	2335	  1	  1	136	  6	  2	  3	  4	  1	  1	  1	  1	0.60464	  1	0.70000	  0	 23	 62	 63	  0	
06-May-2013	sub2335	2335	  1	  1	137	  6	  2	  2	  5	  3	  1	  2	  1	0.53685	  1	0.70000	  0	 22	 60	 61	  0	
06-May-2013	sub2335	2335	  1	  1	138	  6	  2	  5	  2	  1	  0	  2	  1	0.61911	  0	0.70000	  0	 25	 87	 68	  0	
06-May-2013	sub2335	2335	  1	  1	139	  6	  2	  3	  4	  1	  1	  1	  1	0.55709	  1	0.70000	  0	 23	 62	 63	  0	
06-May-2013	sub2335	2335	  1	  1	140	  6	  2	  4	  1	  5	  1	  2	  1	0.59212	  1	0.70000	  0	 24	 62	 63	  0	
06-May-2013	sub2335	2335	  1	  1	141	  6	  2	  2	  5	  3	  1	  2	  1	0.50910	  1	0.60000	  0	 22	 60	 61	  0	
06-May-2013	sub2335	2335	  1	  1	142	  6	  2	  1	  3	  1	  1	  1	  1	0.62217	  1	0.60000	  1	 21	 60	 51	  0	
06-May-2013	sub2335	2335	  1	  1	143	  6	  2	  4	  1	  5	  1	  2	  1	0.60682	  1	0.70000	  0	 24	 62	 63	  0	
06-May-2013	sub2335	2335	  1	  1	144	  6	  2	  2	  5	  3	  1	  2	  1	0.42630	  1	0.70000	  0	 22	 60	 61	  1	
06-May-2013	sub2335	2335	  1	  1	145	  6	  2	  6	  6	  3	  0	  1	  1	0.55526	  0	0.70000	  0	 26	 87	 68	  0	
06-May-2013	sub2335	2335	  1	  1	146	  6	  2	  6	  6	  3	  0	  1	  1	0.46206	  0	0.70000	  0	 26	 87	 68	  1	
06-May-2013	sub2335	2335	  1	  1	147	  6	  2	  1	  3	  1	  1	  1	  1	0.47871	  1	0.70000	  0	 21	 60	 61	  1	
06-May-2013	sub2335	2335	  1	  1	148	  6	  2	  5	  2	  1	  0	  1	  0	0.46985	  1	0.70000	  0	 25	 67	 88	  1	
06-May-2013	sub2335	2335	  1	  1	149	  6	  2	  2	  5	  3	  1	  2	  1	0.52323	  1	0.70000	  0	 22	 60	 61	  0	
06-May-2013	sub2335	2335	  1	  1	150	  6	  2	  4	  1	  5	  1	  2	  1	0.51267	  1	0.70000	  0	 24	 62	 63	  0	
