Date 	 Name 	 ID 	 Gender 	 Appearance 	 Trial 	 Block 	 Bin 	 Condition 	 Category 	 Number 	 Valid 	 Keypress 	 Correct 	 RT 	 Realcorrect 	 Deadline 	 Timeout 	 Stimtrigger 	 Resptrigger 	 Fedtrigger 	 WithinTime 	 
07-May-2013	sub2336	2336	  1	  0	  1	  1	  1	  6	  4	  6	  1	  1	  0	0.87066	  0	0.60000	  1	 16	 45	 51	  0	
07-May-2013	sub2336	2336	  1	  0	  2	  1	  1	  2	  1	  5	  1	  1	  0	0.49236	  0	0.90000	  0	 12	 40	 41	  1	
07-May-2013	sub2336	2336	  1	  0	  3	  1	  1	  1	  6	  3	  1	  2	  0	0.79946	  0	0.90000	  0	 11	 40	 41	  0	
07-May-2013	sub2336	2336	  1	  0	  4	  1	  1	  4	  3	  5	  1	  1	  0	0.71085	  0	0.90000	  0	 14	 42	 43	  0	
07-May-2013	sub2336	2336	  1	  0	  5	  1	  1	  2	  1	  5	  1	  1	  0	0.62092	  0	0.90000	  0	 12	 40	 41	  0	
07-May-2013	sub2336	2336	  1	  0	  6	  1	  1	  3	  2	  5	  1	  2	  0	0.85387	  0	0.90000	  0	 13	 42	 43	  0	
07-May-2013	sub2336	2336	  1	  0	  7	  1	  1	  6	  4	  6	  1	  2	  1	0.98921	  1	0.90000	  1	 16	 35	 51	  0	
07-May-2013	sub2336	2336	  1	  0	  8	  1	  1	  1	  6	  3	  1	  1	  1	0.95906	  1	0.90000	  1	 11	 30	 51	  0	
07-May-2013	sub2336	2336	  1	  0	  9	  1	  1	  2	  1	  5	  1	  2	  1	0.78433	  1	0.90000	  0	 12	 30	 31	  0	
07-May-2013	sub2336	2336	  1	  0	 10	  1	  1	  1	  6	  3	  1	  2	  0	0.80334	  0	0.90000	  0	 11	 40	 41	  0	
07-May-2013	sub2336	2336	  1	  0	 11	  1	  1	  3	  2	  5	  1	  2	  0	0.90732	  0	0.90000	  1	 13	 42	 51	  0	
07-May-2013	sub2336	2336	  1	  0	 12	  1	  1	  4	  3	  5	  1	  2	  1	0.69520	  1	0.90000	  0	 14	 32	 33	  0	
07-May-2013	sub2336	2336	  1	  0	 13	  1	  1	  1	  6	  3	  1	  2	  0	0.83210	  0	0.90000	  0	 11	 40	 41	  0	
07-May-2013	sub2336	2336	  1	  0	 14	  1	  1	  6	  4	  6	  0	  2	  0	0.81967	  1	0.90000	  0	 16	 37	 48	  0	
07-May-2013	sub2336	2336	  1	  0	 15	  1	  1	  1	  6	  3	  1	  2	  0	0.83076	  0	0.90000	  0	 11	 40	 41	  0	
07-May-2013	sub2336	2336	  1	  0	 16	  1	  1	  5	  5	  3	  1	  2	  0	0.77769	  0	0.90000	  0	 15	 45	 46	  0	
07-May-2013	sub2336	2336	  1	  0	 17	  1	  1	  5	  5	  3	  0	  1	  0	0.47945	  1	0.90000	  0	 15	 37	 48	  1	
07-May-2013	sub2336	2336	  1	  0	 18	  1	  1	  5	  5	  3	  1	  1	  1	0.57137	  1	0.90000	  0	 15	 35	 36	  0	
07-May-2013	sub2336	2336	  1	  0	 19	  1	  1	  2	  1	  5	  1	  1	  0	0.72916	  0	0.90000	  0	 12	 40	 41	  0	
07-May-2013	sub2336	2336	  1	  0	 20	  1	  1	  4	  3	  5	  1	  2	  1	0.71256	  1	0.90000	  0	 14	 32	 33	  0	
07-May-2013	sub2336	2336	  1	  0	 21	  1	  1	  5	  5	  3	  1	  1	  1	0.85479	  1	0.90000	  0	 15	 35	 36	  0	
07-May-2013	sub2336	2336	  1	  0	 22	  1	  1	  3	  2	  5	  1	  1	  1	0.83149	  1	0.90000	  0	 13	 32	 33	  0	
07-May-2013	sub2336	2336	  1	  0	 23	  1	  1	  6	  4	  6	  1	  1	  0	0.47492	  0	0.90000	  0	 16	 45	 46	  1	
07-May-2013	sub2336	2336	  1	  0	 24	  1	  1	  5	  5	  3	  0	  1	  0	0.67030	  1	0.90000	  0	 15	 37	 48	  0	
07-May-2013	sub2336	2336	  1	  0	 25	  1	  1	  3	  2	  5	  0	  1	  0	0.78649	  1	0.90000	  0	 13	 34	 49	  0	
07-May-2013	sub2336	2336	  1	  0	 26	  1	  1	  3	  2	  5	  1	  2	  0	0.46915	  0	0.90000	  0	 13	 42	 43	  1	
07-May-2013	sub2336	2336	  1	  0	 27	  1	  1	  1	  6	  3	  1	  1	  1	0.87758	  1	0.90000	  0	 11	 30	 31	  0	
07-May-2013	sub2336	2336	  1	  0	 28	  1	  1	  2	  1	  5	  1	  2	  1	0.70099	  1	0.90000	  0	 12	 30	 31	  0	
07-May-2013	sub2336	2336	  1	  0	 29	  1	  1	  6	  4	  6	  0	  1	  1	0.68092	  0	0.90000	  0	 16	 47	 38	  0	
07-May-2013	sub2336	2336	  1	  0	 30	  1	  1	  4	  3	  5	  1	  1	  0	0.83571	  0	0.90000	  0	 14	 42	 43	  0	
07-May-2013	sub2336	2336	  1	  0	 31	  1	  1	  6	  4	  6	  1	  1	  0	0.64707	  0	0.90000	  0	 16	 45	 46	  0	
07-May-2013	sub2336	2336	  1	  0	 32	  1	  1	  5	  5	  3	  1	  1	  1	0.77066	  1	0.90000	  0	 15	 35	 36	  0	
07-May-2013	sub2336	2336	  1	  0	 33	  1	  1	  3	  2	  5	  0	  1	  0	0.95853	  1	0.90000	  1	 13	 34	 51	  0	
07-May-2013	sub2336	2336	  1	  0	 34	  1	  1	  6	  4	  6	  0	  1	  1	0.62937	  0	0.90000	  0	 16	 47	 38	  0	
07-May-2013	sub2336	2336	  1	  0	 35	  1	  1	  4	  3	  5	  1	  1	  0	0.85244	  0	0.90000	  0	 14	 42	 43	  0	
07-May-2013	sub2336	2336	  1	  0	 36	  1	  1	  1	  6	  3	  1	  1	  1	1.15760	  1	0.90000	  1	 11	 30	 51	  0	
07-May-2013	sub2336	2336	  1	  0	 37	  1	  1	  3	  2	  5	  1	  2	  0	0.78865	  0	0.90000	  0	 13	 42	 43	  0	
07-May-2013	sub2336	2336	  1	  0	 38	  1	  1	  2	  1	  5	  1	  2	  1	0.80033	  1	0.90000	  0	 12	 30	 31	  0	
07-May-2013	sub2336	2336	  1	  0	 39	  1	  1	  5	  5	  3	  0	  1	  0	0.88137	  1	0.90000	  0	 15	 37	 48	  0	
07-May-2013	sub2336	2336	  1	  0	 40	  1	  1	  4	  3	  5	  1	  1	  0	0.96835	  0	0.90000	  1	 14	 42	 51	  0	
07-May-2013	sub2336	2336	  1	  0	 41	  1	  1	  4	  3	  5	  1	  1	  0	0.59714	  0	0.90000	  0	 14	 42	 43	  0	
07-May-2013	sub2336	2336	  1	  0	 42	  1	  1	  1	  6	  3	  1	  1	  1	1.11269	  1	0.90000	  1	 11	 30	 51	  0	
07-May-2013	sub2336	2336	  1	  0	 43	  1	  1	  6	  4	  6	  1	  1	  0	0.56493	  0	0.90000	  0	 16	 45	 46	  0	
07-May-2013	sub2336	2336	  1	  0	 44	  1	  1	  1	  6	  3	  1	  2	  0	1.13438	  0	0.90000	  1	 11	 40	 51	  0	
07-May-2013	sub2336	2336	  1	  0	 45	  1	  1	  1	  6	  3	  1	  2	  0	0.54929	  0	0.90000	  0	 11	 40	 41	  0	
07-May-2013	sub2336	2336	  1	  0	 46	  1	  1	  6	  4	  6	  1	  1	  0	0.51514	  0	0.90000	  0	 16	 45	 46	  0	
07-May-2013	sub2336	2336	  1	  0	 47	  1	  1	  2	  1	  5	  1	  1	  0	1.11751	  0	0.90000	  1	 12	 40	 51	  0	
07-May-2013	sub2336	2336	  1	  0	 48	  1	  1	  3	  2	  5	  1	  2	  0	0.89261	  0	0.90000	  0	 13	 42	 43	  0	
07-May-2013	sub2336	2336	  1	  0	 49	  1	  1	  4	  3	  5	  1	  1	  0	0.77380	  0	0.90000	  0	 14	 42	 43	  0	
07-May-2013	sub2336	2336	  1	  0	 50	  1	  1	  6	  4	  6	  0	  1	  1	0.57721	  0	0.90000	  0	 16	 47	 38	  0	
07-May-2013	sub2336	2336	  1	  0	 51	  1	  1	  5	  5	  3	  1	  2	  0	0.75974	  0	0.90000	  0	 15	 45	 46	  0	
07-May-2013	sub2336	2336	  1	  0	 52	  1	  1	  2	  1	  5	  1	  2	  1	0.64092	  1	0.90000	  0	 12	 30	 31	  0	
07-May-2013	sub2336	2336	  1	  0	 53	  1	  1	  3	  2	  5	  1	  2	  0	0.62457	  0	0.90000	  0	 13	 42	 43	  0	
07-May-2013	sub2336	2336	  1	  0	 54	  1	  1	  4	  3	  5	  1	  1	  0	0.78597	  0	0.90000	  0	 14	 42	 43	  0	
07-May-2013	sub2336	2336	  1	  0	 55	  1	  1	  2	  1	  5	  1	  2	  1	0.88922	  1	0.90000	  0	 12	 30	 31	  0	
07-May-2013	sub2336	2336	  1	  0	 56	  1	  1	  4	  3	  5	  1	  2	  1	0.43101	  1	0.90000	  0	 14	 32	 33	  1	
07-May-2013	sub2336	2336	  1	  0	 57	  1	  1	  6	  4	  6	  0	  1	  1	0.52290	  0	0.90000	  0	 16	 47	 38	  0	
07-May-2013	sub2336	2336	  1	  0	 58	  1	  1	  5	  5	  3	  1	  2	  0	0.65594	  0	0.90000	  0	 15	 45	 46	  0	
07-May-2013	sub2336	2336	  1	  0	 59	  1	  1	  5	  5	  3	  1	  1	  1	0.42905	  1	0.90000	  0	 15	 35	 36	  1	
07-May-2013	sub2336	2336	  1	  0	 60	  1	  1	  5	  5	  3	  0	  1	  0	0.62105	  1	0.90000	  0	 15	 37	 48	  0	
07-May-2013	sub2336	2336	  1	  0	 61	  1	  1	  4	  3	  5	  0	  2	  0	0.69399	  1	0.90000	  0	 14	 34	 49	  0	
07-May-2013	sub2336	2336	  1	  0	 62	  1	  1	  2	  1	  5	  1	  1	  0	0.51714	  0	0.90000	  0	 12	 40	 41	  0	
07-May-2013	sub2336	2336	  1	  0	 63	  1	  1	  2	  1	  5	  1	  2	  1	0.36854	  1	0.90000	  0	 12	 30	 31	  1	
07-May-2013	sub2336	2336	  1	  0	 64	  1	  1	  4	  3	  5	  0	  2	  0	0.64833	  1	0.90000	  0	 14	 34	 49	  0	
07-May-2013	sub2336	2336	  1	  0	 65	  1	  1	  3	  2	  5	  1	  2	  0	0.69409	  0	0.90000	  0	 13	 42	 43	  0	
07-May-2013	sub2336	2336	  1	  0	 66	  1	  1	  3	  2	  5	  1	  2	  0	0.46930	  0	0.90000	  0	 13	 42	 43	  1	
07-May-2013	sub2336	2336	  1	  0	 67	  1	  1	  2	  1	  5	  1	  1	  0	0.56540	  0	0.90000	  0	 12	 40	 41	  0	
07-May-2013	sub2336	2336	  1	  0	 68	  1	  1	  5	  5	  3	  0	  2	  1	0.47809	  0	0.90000	  0	 15	 47	 38	  1	
07-May-2013	sub2336	2336	  1	  0	 69	  1	  1	  6	  4	  6	  0	  1	  1	0.62436	  0	0.90000	  0	 16	 47	 38	  0	
07-May-2013	sub2336	2336	  1	  0	 70	  1	  1	  1	  6	  3	  1	  2	  0	0.69105	  0	0.90000	  0	 11	 40	 41	  0	
07-May-2013	sub2336	2336	  1	  0	 71	  1	  1	  6	  4	  6	  0	  1	  1	0.52738	  0	0.90000	  0	 16	 47	 38	  0	
07-May-2013	sub2336	2336	  1	  0	 72	  1	  1	  3	  2	  5	  1	  2	  0	0.72883	  0	0.90000	  0	 13	 42	 43	  0	
07-May-2013	sub2336	2336	  1	  0	 73	  1	  1	  2	  1	  5	  1	  1	  0	0.81482	  0	0.90000	  0	 12	 40	 41	  0	
07-May-2013	sub2336	2336	  1	  0	 74	  1	  1	  1	  6	  3	  1	  1	  1	0.82790	  1	0.90000	  0	 11	 30	 31	  0	
07-May-2013	sub2336	2336	  1	  0	 75	  1	  1	  3	  2	  5	  0	  1	  0	0.51641	  1	0.90000	  0	 13	 34	 49	  0	
07-May-2013	sub2336	2336	  1	  0	  1	  2	  1	  4	  4	  3	  1	  2	  1	0.48905	  1	0.60000	  0	 14	 32	 33	  1	
07-May-2013	sub2336	2336	  1	  0	  2	  2	  1	  4	  4	  3	  1	  2	  1	0.56636	  1	0.30000	  1	 14	 32	 51	  0	
07-May-2013	sub2336	2336	  1	  0	  3	  2	  1	  3	  2	  6	  1	  1	  1	0.57232	  1	0.90000	  0	 13	 32	 33	  0	
07-May-2013	sub2336	2336	  1	  0	  4	  2	  1	  1	  3	  6	  1	  2	  0	0.61170	  0	0.90000	  0	 11	 40	 41	  0	
07-May-2013	sub2336	2336	  1	  0	  5	  2	  1	  2	  6	  1	  1	  2	  1	0.59788	  1	0.90000	  0	 12	 30	 31	  0	
07-May-2013	sub2336	2336	  1	  0	  6	  2	  1	  6	  1	  6	  1	  2	  1	0.60476	  1	0.90000	  0	 16	 35	 36	  0	
07-May-2013	sub2336	2336	  1	  0	  7	  2	  1	  2	  6	  1	  1	  2	  1	0.53524	  1	0.90000	  0	 12	 30	 31	  0	
07-May-2013	sub2336	2336	  1	  0	  8	  2	  1	  5	  5	  1	  1	  1	  1	0.60023	  1	0.90000	  0	 15	 35	 36	  0	
07-May-2013	sub2336	2336	  1	  0	  9	  2	  1	  3	  2	  6	  1	  1	  1	0.44968	  1	0.90000	  0	 13	 32	 33	  1	
07-May-2013	sub2336	2336	  1	  0	 10	  2	  1	  5	  5	  1	  0	  1	  0	0.57848	  1	0.90000	  0	 15	 37	 48	  0	
07-May-2013	sub2336	2336	  1	  0	 11	  2	  1	  5	  5	  1	  0	  2	  1	0.47990	  0	0.90000	  0	 15	 47	 38	  1	
07-May-2013	sub2336	2336	  1	  0	 12	  2	  1	  6	  1	  6	  1	  2	  1	0.65949	  1	0.90000	  0	 16	 35	 36	  0	
07-May-2013	sub2336	2336	  1	  0	 13	  2	  1	  6	  1	  6	  0	  2	  0	0.49777	  1	0.90000	  0	 16	 37	 48	  1	
07-May-2013	sub2336	2336	  1	  0	 14	  2	  1	  3	  2	  6	  1	  1	  1	0.69468	  1	0.90000	  0	 13	 32	 33	  0	
07-May-2013	sub2336	2336	  1	  0	 15	  2	  1	  3	  2	  6	  1	  1	  1	0.50291	  1	0.90000	  0	 13	 32	 33	  0	
07-May-2013	sub2336	2336	  1	  0	 16	  2	  1	  6	  1	  6	  1	  2	  1	0.55358	  1	0.80000	  0	 16	 35	 36	  0	
07-May-2013	sub2336	2336	  1	  0	 17	  2	  1	  2	  6	  1	  1	  2	  1	0.65928	  1	0.80000	  0	 12	 30	 31	  0	
07-May-2013	sub2336	2336	  1	  0	 18	  2	  1	  5	  5	  1	  0	  1	  0	0.63205	  1	0.70000	  0	 15	 37	 48	  0	
07-May-2013	sub2336	2336	  1	  0	 19	  2	  1	  6	  1	  6	  1	  2	  1	0.55617	  1	0.70000	  0	 16	 35	 36	  0	
07-May-2013	sub2336	2336	  1	  0	 20	  2	  1	  4	  4	  3	  1	  1	  0	0.42237	  0	0.70000	  0	 14	 42	 43	  1	
07-May-2013	sub2336	2336	  1	  0	 21	  2	  1	  1	  3	  6	  1	  1	  1	0.54534	  1	0.60000	  0	 11	 30	 31	  0	
07-May-2013	sub2336	2336	  1	  0	 22	  2	  1	  5	  5	  1	  1	  1	  1	0.45112	  1	0.60000	  0	 15	 35	 36	  1	
07-May-2013	sub2336	2336	  1	  0	 23	  2	  1	  4	  4	  3	  1	  1	  0	0.46918	  0	0.60000	  0	 14	 42	 43	  1	
07-May-2013	sub2336	2336	  1	  0	 24	  2	  1	  5	  5	  1	  0	  1	  0	0.64158	  1	0.60000	  1	 15	 37	 51	  0	
07-May-2013	sub2336	2336	  1	  0	 25	  2	  1	  2	  6	  1	  1	  2	  1	0.53236	  1	0.90000	  0	 12	 30	 31	  0	
07-May-2013	sub2336	2336	  1	  0	 26	  2	  1	  3	  2	  6	  1	  2	  0	0.42563	  0	0.90000	  0	 13	 42	 43	  1	
07-May-2013	sub2336	2336	  1	  0	 27	  2	  1	  6	  1	  6	  0	  2	  0	0.64179	  1	0.90000	  0	 16	 37	 48	  0	
07-May-2013	sub2336	2336	  1	  0	 28	  2	  1	  6	  1	  6	  0	  2	  0	0.53654	  1	0.90000	  0	 16	 37	 48	  0	
07-May-2013	sub2336	2336	  1	  0	 29	  2	  1	  1	  3	  6	  1	  2	  0	0.64847	  0	0.90000	  0	 11	 40	 41	  0	
07-May-2013	sub2336	2336	  1	  0	 30	  2	  1	  4	  4	  3	  1	  1	  0	0.60892	  0	0.80000	  0	 14	 42	 43	  0	
07-May-2013	sub2336	2336	  1	  0	 31	  2	  1	  2	  6	  1	  1	  1	  0	0.55770	  0	0.80000	  0	 12	 40	 41	  0	
07-May-2013	sub2336	2336	  1	  0	 32	  2	  1	  1	  3	  6	  1	  2	  0	0.50692	  0	0.80000	  0	 11	 40	 41	  0	
07-May-2013	sub2336	2336	  1	  0	 33	  2	  1	  1	  3	  6	  1	  1	  1	0.46075	  1	0.80000	  0	 11	 30	 31	  1	
07-May-2013	sub2336	2336	  1	  0	 34	  2	  1	  2	  6	  1	  1	  2	  1	0.52036	  1	0.80000	  0	 12	 30	 31	  0	
07-May-2013	sub2336	2336	  1	  0	 35	  2	  1	  5	  5	  1	  1	  1	  1	0.73825	  1	0.70000	  1	 15	 35	 51	  0	
07-May-2013	sub2336	2336	  1	  0	 36	  2	  1	  1	  3	  6	  1	  1	  1	0.59161	  1	0.90000	  0	 11	 30	 31	  0	
07-May-2013	sub2336	2336	  1	  0	 37	  2	  1	  5	  5	  1	  1	  1	  1	0.56531	  1	0.90000	  0	 15	 35	 36	  0	
07-May-2013	sub2336	2336	  1	  0	 38	  2	  1	  6	  1	  6	  0	  1	  1	0.50453	  0	0.90000	  0	 16	 47	 38	  0	
07-May-2013	sub2336	2336	  1	  0	 39	  2	  1	  5	  5	  1	  1	  1	  1	0.54340	  1	0.90000	  0	 15	 35	 36	  0	
07-May-2013	sub2336	2336	  1	  0	 40	  2	  1	  1	  3	  6	  1	  1	  1	0.59176	  1	0.90000	  0	 11	 30	 31	  0	
07-May-2013	sub2336	2336	  1	  0	 41	  2	  1	  4	  4	  3	  1	  2	  1	0.48615	  1	0.90000	  0	 14	 32	 33	  1	
07-May-2013	sub2336	2336	  1	  0	 42	  2	  1	  3	  2	  6	  0	  2	  1	0.63977	  0	0.90000	  0	 13	 44	 39	  0	
07-May-2013	sub2336	2336	  1	  0	 43	  2	  1	  3	  2	  6	  1	  2	  0	0.47484	  0	0.90000	  0	 13	 42	 43	  1	
07-May-2013	sub2336	2336	  1	  0	 44	  2	  1	  6	  1	  6	  0	  1	  1	0.55894	  0	0.80000	  0	 16	 47	 38	  0	
07-May-2013	sub2336	2336	  1	  0	 45	  2	  1	  4	  4	  3	  1	  2	  1	0.58528	  1	0.80000	  0	 14	 32	 33	  0	
07-May-2013	sub2336	2336	  1	  0	 46	  2	  1	  6	  1	  6	  0	  1	  1	0.57266	  0	0.80000	  0	 16	 47	 38	  0	
07-May-2013	sub2336	2336	  1	  0	 47	  2	  1	  2	  6	  1	  1	  1	  0	0.77879	  0	0.80000	  0	 12	 40	 41	  0	
07-May-2013	sub2336	2336	  1	  0	 48	  2	  1	  3	  2	  6	  1	  1	  1	0.58643	  1	0.80000	  0	 13	 32	 33	  0	
07-May-2013	sub2336	2336	  1	  0	 49	  2	  1	  3	  2	  6	  1	  1	  1	0.54677	  1	0.80000	  0	 13	 32	 33	  0	
07-May-2013	sub2336	2336	  1	  0	 50	  2	  1	  4	  4	  3	  1	  1	  0	0.65594	  0	0.80000	  0	 14	 42	 43	  0	
07-May-2013	sub2336	2336	  1	  0	 51	  2	  1	  5	  5	  1	  1	  1	  1	0.65553	  1	0.70000	  0	 15	 35	 36	  0	
07-May-2013	sub2336	2336	  1	  0	 52	  2	  1	  4	  4	  3	  0	  2	  0	0.44407	  1	0.70000	  0	 14	 34	 49	  1	
07-May-2013	sub2336	2336	  1	  0	 53	  2	  1	  2	  6	  1	  1	  1	  0	0.45247	  0	0.70000	  0	 12	 40	 41	  1	
07-May-2013	sub2336	2336	  1	  0	 54	  2	  1	  1	  3	  6	  1	  2	  0	0.46553	  0	0.70000	  0	 11	 40	 41	  1	
07-May-2013	sub2336	2336	  1	  0	 55	  2	  1	  4	  4	  3	  1	  2	  1	0.83341	  1	0.70000	  1	 14	 32	 51	  0	
07-May-2013	sub2336	2336	  1	  0	 56	  2	  1	  6	  1	  6	  0	  1	  1	0.32818	  0	0.90000	  0	 16	 47	 38	  1	
07-May-2013	sub2336	2336	  1	  0	 57	  2	  1	  1	  3	  6	  1	  1	  1	0.58187	  1	0.90000	  0	 11	 30	 31	  0	
07-May-2013	sub2336	2336	  1	  0	 58	  2	  1	  3	  2	  6	  0	  1	  0	0.50294	  1	0.90000	  0	 13	 34	 49	  0	
07-May-2013	sub2336	2336	  1	  0	 59	  2	  1	  1	  3	  6	  1	  1	  1	0.62901	  1	0.80000	  0	 11	 30	 31	  0	
07-May-2013	sub2336	2336	  1	  0	 60	  2	  1	  2	  6	  1	  1	  2	  1	0.77425	  1	0.80000	  0	 12	 30	 31	  0	
07-May-2013	sub2336	2336	  1	  0	 61	  2	  1	  1	  3	  6	  1	  1	  1	0.59467	  1	0.80000	  0	 11	 30	 31	  0	
07-May-2013	sub2336	2336	  1	  0	 62	  2	  1	  5	  5	  1	  1	  1	  1	0.64635	  1	0.80000	  0	 15	 35	 36	  0	
07-May-2013	sub2336	2336	  1	  0	 63	  2	  1	  4	  4	  3	  0	  1	  1	0.48070	  0	0.80000	  0	 14	 44	 39	  1	
07-May-2013	sub2336	2336	  1	  0	 64	  2	  1	  6	  1	  6	  1	  1	  0	0.45202	  0	0.80000	  0	 16	 45	 46	  1	
07-May-2013	sub2336	2336	  1	  0	 65	  2	  1	  2	  6	  1	  1	  2	  1	0.99491	  1	0.80000	  1	 12	 30	 51	  0	
07-May-2013	sub2336	2336	  1	  0	 66	  2	  1	  1	  3	  6	  1	  1	  1	0.38974	  1	0.90000	  0	 11	 30	 31	  1	
07-May-2013	sub2336	2336	  1	  0	 67	  2	  1	  2	  6	  1	  1	  1	  0	0.05678	  0	0.90000	  0	 12	 40	 41	  1	
07-May-2013	sub2336	2336	  1	  0	 68	  2	  1	  3	  2	  6	  1	  1	  1	0.51279	  1	0.90000	  0	 13	 32	 33	  0	
07-May-2013	sub2336	2336	  1	  0	 69	  2	  1	  4	  4	  3	  1	  1	  0	0.54577	  0	0.90000	  0	 14	 42	 43	  0	
07-May-2013	sub2336	2336	  1	  0	 70	  2	  1	  2	  6	  1	  1	  2	  1	0.45684	  1	0.90000	  0	 12	 30	 31	  1	
07-May-2013	sub2336	2336	  1	  0	 71	  2	  1	  6	  1	  6	  1	  1	  0	0.43264	  0	0.90000	  0	 16	 45	 46	  1	
07-May-2013	sub2336	2336	  1	  0	 72	  2	  1	  5	  5	  1	  0	  1	  0	0.69050	  1	0.90000	  0	 15	 37	 48	  0	
07-May-2013	sub2336	2336	  1	  0	 73	  2	  1	  3	  2	  6	  1	  1	  1	0.58283	  1	0.80000	  0	 13	 32	 33	  0	
07-May-2013	sub2336	2336	  1	  0	 74	  2	  1	  3	  2	  6	  0	  1	  0	0.47376	  1	0.80000	  0	 13	 34	 49	  1	
07-May-2013	sub2336	2336	  1	  0	 75	  2	  1	  2	  6	  1	  1	  2	  1	0.59835	  1	0.80000	  0	 12	 30	 31	  0	
07-May-2013	sub2336	2336	  1	  0	 76	  2	  2	  2	  6	  1	  1	  2	  1	0.60575	  1	0.80000	  0	 22	 60	 61	  0	
07-May-2013	sub2336	2336	  1	  0	 77	  2	  2	  5	  5	  1	  0	  1	  0	0.53358	  1	0.80000	  0	 25	 67	 88	  0	
07-May-2013	sub2336	2336	  1	  0	 78	  2	  2	  2	  6	  1	  1	  1	  0	0.46374	  0	0.80000	  0	 22	 80	 81	  1	
07-May-2013	sub2336	2336	  1	  0	 79	  2	  2	  1	  3	  6	  1	  1	  1	0.54677	  1	0.80000	  0	 21	 60	 61	  0	
07-May-2013	sub2336	2336	  1	  0	 80	  2	  2	  5	  5	  1	  0	  1	  0	0.74780	  1	0.80000	  0	 25	 67	 88	  0	
07-May-2013	sub2336	2336	  1	  0	 81	  2	  2	  1	  3	  6	  1	  2	  0	0.61389	  0	0.80000	  0	 21	 80	 81	  0	
07-May-2013	sub2336	2336	  1	  0	 82	  2	  2	  5	  5	  1	  0	  2	  1	0.61313	  0	0.80000	  0	 25	 87	 68	  0	
07-May-2013	sub2336	2336	  1	  0	 83	  2	  2	  1	  3	  6	  1	  1	  1	0.38410	  1	0.80000	  0	 21	 60	 61	  1	
07-May-2013	sub2336	2336	  1	  0	 84	  2	  2	  5	  5	  1	  0	  2	  1	0.76188	  0	0.80000	  0	 25	 87	 68	  0	
07-May-2013	sub2336	2336	  1	  0	 85	  2	  2	  1	  3	  6	  1	  1	  1	0.41521	  1	0.70000	  0	 21	 60	 61	  1	
07-May-2013	sub2336	2336	  1	  0	 86	  2	  2	  6	  1	  6	  1	  1	  0	0.69799	  0	0.70000	  0	 26	 85	 86	  0	
07-May-2013	sub2336	2336	  1	  0	 87	  2	  2	  3	  2	  6	  1	  1	  1	0.48129	  1	0.70000	  0	 23	 62	 63	  1	
07-May-2013	sub2336	2336	  1	  0	 88	  2	  2	  1	  3	  6	  1	  2	  0	1.03023	  0	0.70000	  1	 21	 80	 51	  0	
07-May-2013	sub2336	2336	  1	  0	 89	  2	  2	  3	  2	  6	  1	  1	  1	0.63321	  1	0.80000	  0	 23	 62	 63	  0	
07-May-2013	sub2336	2336	  1	  0	 90	  2	  2	  2	  6	  1	  1	  2	  1	0.66289	  1	0.80000	  0	 22	 60	 61	  0	
07-May-2013	sub2336	2336	  1	  0	 91	  2	  2	  1	  3	  6	  1	  1	  1	0.41994	  1	0.80000	  0	 21	 60	 61	  1	
07-May-2013	sub2336	2336	  1	  0	 92	  2	  2	  5	  5	  1	  0	  2	  1	0.54067	  0	0.80000	  0	 25	 87	 68	  0	
07-May-2013	sub2336	2336	  1	  0	 93	  2	  2	  5	  5	  1	  0	  2	  1	0.77361	  0	0.80000	  0	 25	 87	 68	  0	
07-May-2013	sub2336	2336	  1	  0	 94	  2	  2	  2	  6	  1	  1	  2	  1	0.62360	  1	0.80000	  0	 22	 60	 61	  0	
07-May-2013	sub2336	2336	  1	  0	 95	  2	  2	  6	  1	  6	  1	  1	  0	0.64282	  0	0.80000	  0	 26	 85	 86	  0	
07-May-2013	sub2336	2336	  1	  0	 96	  2	  2	  4	  4	  3	  1	  2	  1	0.52619	  1	0.80000	  0	 24	 62	 63	  0	
07-May-2013	sub2336	2336	  1	  0	 97	  2	  2	  6	  1	  6	  1	  2	  1	0.81237	  1	0.80000	  1	 26	 65	 51	  0	
07-May-2013	sub2336	2336	  1	  0	 98	  2	  2	  2	  6	  1	  1	  2	  1	0.53505	  1	0.90000	  0	 22	 60	 61	  0	
07-May-2013	sub2336	2336	  1	  0	 99	  2	  2	  3	  2	  6	  0	  1	  0	0.44217	  1	0.90000	  0	 23	 64	 89	  1	
07-May-2013	sub2336	2336	  1	  0	100	  2	  2	  2	  6	  1	  1	  2	  1	0.55227	  1	0.90000	  0	 22	 60	 61	  0	
07-May-2013	sub2336	2336	  1	  0	101	  2	  2	  6	  1	  6	  0	  2	  0	0.57096	  1	0.80000	  0	 26	 67	 88	  0	
07-May-2013	sub2336	2336	  1	  0	102	  2	  2	  5	  5	  1	  0	  2	  1	0.59512	  0	0.80000	  0	 25	 87	 68	  0	
07-May-2013	sub2336	2336	  1	  0	103	  2	  2	  1	  3	  6	  1	  1	  1	0.45293	  1	0.80000	  0	 21	 60	 61	  1	
07-May-2013	sub2336	2336	  1	  0	104	  2	  2	  2	  6	  1	  1	  2	  1	0.50964	  1	0.80000	  0	 22	 60	 61	  0	
07-May-2013	sub2336	2336	  1	  0	105	  2	  2	  1	  3	  6	  1	  2	  0	0.59077	  0	0.80000	  0	 21	 80	 81	  0	
07-May-2013	sub2336	2336	  1	  0	106	  2	  2	  4	  4	  3	  1	  1	  0	0.41753	  0	0.80000	  0	 24	 82	 83	  1	
07-May-2013	sub2336	2336	  1	  0	107	  2	  2	  4	  4	  3	  0	  2	  0	0.52815	  1	0.80000	  0	 24	 64	 89	  0	
07-May-2013	sub2336	2336	  1	  0	108	  2	  2	  5	  5	  1	  0	  2	  1	0.51849	  0	0.80000	  0	 25	 87	 68	  0	
07-May-2013	sub2336	2336	  1	  0	109	  2	  2	  1	  3	  6	  1	  1	  1	0.78380	  1	0.80000	  0	 21	 60	 61	  0	
07-May-2013	sub2336	2336	  1	  0	110	  2	  2	  6	  1	  6	  1	  2	  1	0.50204	  1	0.80000	  0	 26	 65	 66	  0	
07-May-2013	sub2336	2336	  1	  0	111	  2	  2	  3	  2	  6	  1	  1	  1	0.43942	  1	0.80000	  0	 23	 62	 63	  1	
07-May-2013	sub2336	2336	  1	  0	112	  2	  2	  6	  1	  6	  0	  2	  0	0.53722	  1	0.80000	  0	 26	 67	 88	  0	
07-May-2013	sub2336	2336	  1	  0	113	  2	  2	  2	  6	  1	  1	  2	  1	0.64881	  1	0.80000	  0	 22	 60	 61	  0	
07-May-2013	sub2336	2336	  1	  0	114	  2	  2	  1	  3	  6	  1	  1	  1	0.63703	  1	0.80000	  0	 21	 60	 61	  0	
07-May-2013	sub2336	2336	  1	  0	115	  2	  2	  5	  5	  1	  0	  2	  1	0.57781	  0	0.80000	  0	 25	 87	 68	  0	
07-May-2013	sub2336	2336	  1	  0	116	  2	  2	  4	  4	  3	  1	  2	  1	0.53887	  1	0.80000	  0	 24	 62	 63	  0	
07-May-2013	sub2336	2336	  1	  0	117	  2	  2	  6	  1	  6	  1	  2	  1	0.70446	  1	0.80000	  0	 26	 65	 66	  0	
07-May-2013	sub2336	2336	  1	  0	118	  2	  2	  6	  1	  6	  0	  2	  0	0.43143	  1	0.70000	  0	 26	 67	 88	  1	
07-May-2013	sub2336	2336	  1	  0	119	  2	  2	  3	  2	  6	  1	  1	  1	0.57887	  1	0.70000	  0	 23	 62	 63	  0	
07-May-2013	sub2336	2336	  1	  0	120	  2	  2	  6	  1	  6	  1	  2	  1	0.51831	  1	0.70000	  0	 26	 65	 66	  0	
07-May-2013	sub2336	2336	  1	  0	121	  2	  2	  3	  2	  6	  1	  1	  1	0.63466	  1	0.70000	  0	 23	 62	 63	  0	
07-May-2013	sub2336	2336	  1	  0	122	  2	  2	  4	  4	  3	  1	  2	  1	0.46270	  1	0.70000	  0	 24	 62	 63	  1	
07-May-2013	sub2336	2336	  1	  0	123	  2	  2	  2	  6	  1	  1	  1	  0	0.42369	  0	0.70000	  0	 22	 80	 81	  1	
07-May-2013	sub2336	2336	  1	  0	124	  2	  2	  4	  4	  3	  1	  2	  1	0.07303	  1	0.70000	  0	 24	 62	 63	  1	
07-May-2013	sub2336	2336	  1	  0	125	  2	  2	  2	  6	  1	  1	  2	  1	0.63492	  1	0.70000	  0	 22	 60	 61	  0	
07-May-2013	sub2336	2336	  1	  0	126	  2	  2	  5	  5	  1	  0	  2	  1	0.59145	  0	0.70000	  0	 25	 87	 68	  0	
07-May-2013	sub2336	2336	  1	  0	127	  2	  2	  4	  4	  3	  1	  2	  1	0.56418	  1	0.70000	  0	 24	 62	 63	  0	
07-May-2013	sub2336	2336	  1	  0	128	  2	  2	  4	  4	  3	  1	  2	  1	0.47339	  1	0.70000	  0	 24	 62	 63	  1	
07-May-2013	sub2336	2336	  1	  0	129	  2	  2	  5	  5	  1	  0	  2	  1	0.58015	  0	0.70000	  0	 25	 87	 68	  0	
07-May-2013	sub2336	2336	  1	  0	130	  2	  2	  4	  4	  3	  1	  2	  1	0.47112	  1	0.70000	  0	 24	 62	 63	  1	
07-May-2013	sub2336	2336	  1	  0	131	  2	  2	  3	  2	  6	  1	  1	  1	0.59696	  1	0.70000	  0	 23	 62	 63	  0	
07-May-2013	sub2336	2336	  1	  0	132	  2	  2	  6	  1	  6	  0	  2	  0	0.48303	  1	0.70000	  0	 26	 67	 88	  1	
07-May-2013	sub2336	2336	  1	  0	133	  2	  2	  3	  2	  6	  1	  2	  0	0.63808	  0	0.70000	  0	 23	 82	 83	  0	
07-May-2013	sub2336	2336	  1	  0	134	  2	  2	  5	  5	  1	  0	  2	  1	0.64343	  0	0.70000	  0	 25	 87	 68	  0	
07-May-2013	sub2336	2336	  1	  0	135	  2	  2	  4	  4	  3	  0	  2	  0	0.58704	  1	0.70000	  0	 24	 64	 89	  0	
07-May-2013	sub2336	2336	  1	  0	136	  2	  2	  3	  2	  6	  1	  1	  1	0.43160	  1	0.70000	  0	 23	 62	 63	  1	
07-May-2013	sub2336	2336	  1	  0	137	  2	  2	  3	  2	  6	  1	  1	  1	0.51548	  1	0.70000	  0	 23	 62	 63	  0	
07-May-2013	sub2336	2336	  1	  0	138	  2	  2	  5	  5	  1	  0	  2	  1	0.69768	  0	0.70000	  0	 25	 87	 68	  0	
07-May-2013	sub2336	2336	  1	  0	139	  2	  2	  1	  3	  6	  1	  1	  1	0.50927	  1	0.70000	  0	 21	 60	 61	  0	
07-May-2013	sub2336	2336	  1	  0	140	  2	  2	  2	  6	  1	  1	  2	  1	0.62900	  1	0.70000	  0	 22	 60	 61	  0	
07-May-2013	sub2336	2336	  1	  0	141	  2	  2	  1	  3	  6	  1	  1	  1	0.55050	  1	0.60000	  0	 21	 60	 61	  0	
07-May-2013	sub2336	2336	  1	  0	142	  2	  2	  1	  3	  6	  1	  1	  1	0.53866	  1	0.60000	  0	 21	 60	 61	  0	
07-May-2013	sub2336	2336	  1	  0	143	  2	  2	  6	  1	  6	  0	  2	  0	0.47798	  1	0.60000	  0	 26	 67	 88	  1	
07-May-2013	sub2336	2336	  1	  0	144	  2	  2	  4	  4	  3	  1	  2	  1	0.46165	  1	0.60000	  0	 24	 62	 63	  1	
07-May-2013	sub2336	2336	  1	  0	145	  2	  2	  4	  4	  3	  0	  2	  0	0.56450	  1	0.60000	  0	 24	 64	 89	  0	
07-May-2013	sub2336	2336	  1	  0	146	  2	  2	  6	  1	  6	  0	  2	  0	0.53365	  1	0.60000	  0	 26	 67	 88	  0	
07-May-2013	sub2336	2336	  1	  0	147	  2	  2	  2	  6	  1	  1	  2	  1	0.46156	  1	0.60000	  0	 22	 60	 61	  1	
07-May-2013	sub2336	2336	  1	  0	148	  2	  2	  3	  2	  6	  0	  1	  0	0.64268	  1	0.60000	  1	 23	 64	 51	  0	
07-May-2013	sub2336	2336	  1	  0	149	  2	  2	  4	  4	  3	  1	  2	  1	0.45144	  1	0.70000	  0	 24	 62	 63	  1	
07-May-2013	sub2336	2336	  1	  0	150	  2	  2	  3	  2	  6	  1	  1	  1	0.58730	  1	0.70000	  0	 23	 62	 63	  0	
07-May-2013	sub2336	2336	  1	  0	  1	  3	  1	  6	  6	  6	  0	  1	  1	0.40387	  0	0.60000	  0	 16	 47	 38	  1	
07-May-2013	sub2336	2336	  1	  0	  2	  3	  1	  4	  3	  1	  1	  2	  1	0.59031	  1	0.30000	  1	 14	 32	 51	  0	
07-May-2013	sub2336	2336	  1	  0	  3	  3	  1	  4	  3	  1	  0	  2	  0	0.41538	  1	0.90000	  0	 14	 34	 49	  1	
07-May-2013	sub2336	2336	  1	  0	  4	  3	  1	  6	  6	  6	  0	  1	  1	0.61148	  0	0.90000	  0	 16	 47	 38	  0	
07-May-2013	sub2336	2336	  1	  0	  5	  3	  1	  6	  6	  6	  0	  1	  1	0.54765	  0	0.90000	  0	 16	 47	 38	  0	
07-May-2013	sub2336	2336	  1	  0	  6	  3	  1	  6	  6	  6	  0	  1	  1	0.49362	  0	0.90000	  0	 16	 47	 38	  1	
07-May-2013	sub2336	2336	  1	  0	  7	  3	  1	  4	  3	  1	  0	  1	  1	0.42350	  0	0.90000	  0	 14	 44	 39	  1	
07-May-2013	sub2336	2336	  1	  0	  8	  3	  1	  4	  3	  1	  1	  1	  0	0.44516	  0	0.90000	  0	 14	 42	 43	  1	
07-May-2013	sub2336	2336	  1	  0	  9	  3	  1	  6	  6	  6	  0	  1	  1	0.53256	  0	0.90000	  0	 16	 47	 38	  0	
07-May-2013	sub2336	2336	  1	  0	 10	  3	  1	  1	  2	  1	  1	  1	  1	0.68295	  1	0.90000	  0	 11	 30	 31	  0	
07-May-2013	sub2336	2336	  1	  0	 11	  3	  1	  2	  1	  4	  1	  1	  0	0.72991	  0	0.90000	  0	 12	 40	 41	  0	
07-May-2013	sub2336	2336	  1	  0	 12	  3	  1	  5	  5	  6	  1	  1	  1	1.03381	  1	0.90000	  1	 15	 35	 51	  0	
07-May-2013	sub2336	2336	  1	  0	 13	  3	  1	  3	  4	  5	  0	  1	  0	0.58140	  1	0.90000	  0	 13	 34	 49	  0	
07-May-2013	sub2336	2336	  1	  0	 14	  3	  1	  2	  1	  4	  1	  1	  0	0.69853	  0	0.90000	  0	 12	 40	 41	  0	
07-May-2013	sub2336	2336	  1	  0	 15	  3	  1	  3	  4	  5	  1	  1	  1	0.55058	  1	0.90000	  0	 13	 32	 33	  0	
07-May-2013	sub2336	2336	  1	  0	 16	  3	  1	  4	  3	  1	  1	  1	  0	0.64015	  0	0.90000	  0	 14	 42	 43	  0	
07-May-2013	sub2336	2336	  1	  0	 17	  3	  1	  4	  3	  1	  1	  1	  0	0.44867	  0	0.90000	  0	 14	 42	 43	  1	
07-May-2013	sub2336	2336	  1	  0	 18	  3	  1	  3	  4	  5	  1	  2	  0	0.69502	  0	0.90000	  0	 13	 42	 43	  0	
07-May-2013	sub2336	2336	  1	  0	 19	  3	  1	  2	  1	  4	  1	  1	  0	0.54790	  0	0.90000	  0	 12	 40	 41	  0	
07-May-2013	sub2336	2336	  1	  0	 20	  3	  1	  6	  6	  6	  1	  1	  0	0.50642	  0	0.90000	  0	 16	 45	 46	  0	
07-May-2013	sub2336	2336	  1	  0	 21	  3	  1	  1	  2	  1	  1	  1	  1	0.53717	  1	0.90000	  0	 11	 30	 31	  0	
07-May-2013	sub2336	2336	  1	  0	 22	  3	  1	  1	  2	  1	  1	  1	  1	0.46288	  1	0.90000	  0	 11	 30	 31	  1	
07-May-2013	sub2336	2336	  1	  0	 23	  3	  1	  6	  6	  6	  0	  1	  1	0.55770	  0	0.90000	  0	 16	 47	 38	  0	
07-May-2013	sub2336	2336	  1	  0	 24	  3	  1	  5	  5	  6	  0	  1	  0	0.54489	  1	0.90000	  0	 15	 37	 48	  0	
07-May-2013	sub2336	2336	  1	  0	 25	  3	  1	  3	  4	  5	  1	  2	  0	0.65334	  0	0.90000	  0	 13	 42	 43	  0	
07-May-2013	sub2336	2336	  1	  0	 26	  3	  1	  5	  5	  6	  1	  2	  0	0.57696	  0	0.90000	  0	 15	 45	 46	  0	
07-May-2013	sub2336	2336	  1	  0	 27	  3	  1	  1	  2	  1	  1	  1	  1	0.41641	  1	0.90000	  0	 11	 30	 31	  1	
07-May-2013	sub2336	2336	  1	  0	 28	  3	  1	  5	  5	  6	  1	  1	  1	0.48950	  1	0.90000	  0	 15	 35	 36	  1	
07-May-2013	sub2336	2336	  1	  0	 29	  3	  1	  1	  2	  1	  1	  1	  1	0.49960	  1	0.90000	  0	 11	 30	 31	  1	
07-May-2013	sub2336	2336	  1	  0	 30	  3	  1	  5	  5	  6	  1	  1	  1	0.52314	  1	0.80000	  0	 15	 35	 36	  0	
07-May-2013	sub2336	2336	  1	  0	 31	  3	  1	  5	  5	  6	  0	  1	  0	0.46589	  1	0.80000	  0	 15	 37	 48	  1	
07-May-2013	sub2336	2336	  1	  0	 32	  3	  1	  5	  5	  6	  1	  1	  1	0.48809	  1	0.80000	  0	 15	 35	 36	  1	
07-May-2013	sub2336	2336	  1	  0	 33	  3	  1	  4	  3	  1	  1	  1	  0	0.69748	  0	0.80000	  0	 14	 42	 43	  0	
07-May-2013	sub2336	2336	  1	  0	 34	  3	  1	  3	  4	  5	  1	  2	  0	0.66069	  0	0.80000	  0	 13	 42	 43	  0	
07-May-2013	sub2336	2336	  1	  0	 35	  3	  1	  2	  1	  4	  1	  1	  0	0.53395	  0	0.70000	  0	 12	 40	 41	  0	
07-May-2013	sub2336	2336	  1	  0	 36	  3	  1	  5	  5	  6	  1	  1	  1	0.77432	  1	0.70000	  1	 15	 35	 51	  0	
07-May-2013	sub2336	2336	  1	  0	 37	  3	  1	  2	  1	  4	  1	  2	  1	0.40298	  1	0.90000	  0	 12	 30	 31	  1	
07-May-2013	sub2336	2336	  1	  0	 38	  3	  1	  6	  6	  6	  1	  1	  0	0.53493	  0	0.90000	  0	 16	 45	 46	  0	
07-May-2013	sub2336	2336	  1	  0	 39	  3	  1	  3	  4	  5	  1	  2	  0	0.70045	  0	0.90000	  0	 13	 42	 43	  0	
07-May-2013	sub2336	2336	  1	  0	 40	  3	  1	  6	  6	  6	  0	  1	  1	0.48624	  0	0.90000	  0	 16	 47	 38	  1	
07-May-2013	sub2336	2336	  1	  0	 41	  3	  1	  3	  4	  5	  1	  1	  1	0.61429	  1	0.90000	  0	 13	 32	 33	  0	
07-May-2013	sub2336	2336	  1	  0	 42	  3	  1	  3	  4	  5	  1	  1	  1	0.48398	  1	0.90000	  0	 13	 32	 33	  1	
07-May-2013	sub2336	2336	  1	  0	 43	  3	  1	  6	  6	  6	  1	  1	  0	0.51775	  0	0.90000	  0	 16	 45	 46	  0	
07-May-2013	sub2336	2336	  1	  0	 44	  3	  1	  4	  3	  1	  1	  1	  0	0.47818	  0	0.80000	  0	 14	 42	 43	  1	
07-May-2013	sub2336	2336	  1	  0	 45	  3	  1	  5	  5	  6	  0	  1	  0	0.64058	  1	0.80000	  0	 15	 37	 48	  0	
07-May-2013	sub2336	2336	  1	  0	 46	  3	  1	  1	  2	  1	  1	  2	  0	0.77133	  0	0.80000	  0	 11	 40	 41	  0	
07-May-2013	sub2336	2336	  1	  0	 47	  3	  1	  2	  1	  4	  1	  1	  0	0.43561	  0	0.80000	  0	 12	 40	 41	  1	
07-May-2013	sub2336	2336	  1	  0	 48	  3	  1	  5	  5	  6	  0	  2	  1	0.76487	  0	0.80000	  0	 15	 47	 38	  0	
07-May-2013	sub2336	2336	  1	  0	 49	  3	  1	  2	  1	  4	  1	  2	  1	0.41516	  1	0.80000	  0	 12	 30	 31	  1	
07-May-2013	sub2336	2336	  1	  0	 50	  3	  1	  3	  4	  5	  0	  2	  1	0.53528	  0	0.80000	  0	 13	 44	 39	  0	
07-May-2013	sub2336	2336	  1	  0	 51	  3	  1	  6	  6	  6	  0	  1	  1	0.60556	  0	0.70000	  0	 16	 47	 38	  0	
07-May-2013	sub2336	2336	  1	  0	 52	  3	  1	  2	  1	  4	  1	  2	  1	0.57979	  1	0.70000	  0	 12	 30	 31	  0	
07-May-2013	sub2336	2336	  1	  0	 53	  3	  1	  4	  3	  1	  1	  1	  0	0.60026	  0	0.70000	  0	 14	 42	 43	  0	
07-May-2013	sub2336	2336	  1	  0	 54	  3	  1	  4	  3	  1	  1	  2	  1	0.63606	  1	0.70000	  0	 14	 32	 33	  0	
07-May-2013	sub2336	2336	  1	  0	 55	  3	  1	  2	  1	  4	  1	  2	  1	0.74818	  1	0.70000	  1	 12	 30	 51	  0	
07-May-2013	sub2336	2336	  1	  0	 56	  3	  1	  3	  4	  5	  1	  2	  0	0.61652	  0	0.90000	  0	 13	 42	 43	  0	
07-May-2013	sub2336	2336	  1	  0	 57	  3	  1	  1	  2	  1	  1	  1	  1	0.66722	  1	0.90000	  0	 11	 30	 31	  0	
07-May-2013	sub2336	2336	  1	  0	 58	  3	  1	  4	  3	  1	  1	  2	  1	0.66638	  1	0.90000	  0	 14	 32	 33	  0	
07-May-2013	sub2336	2336	  1	  0	 59	  3	  1	  1	  2	  1	  1	  1	  1	0.92801	  1	0.80000	  1	 11	 30	 51	  0	
07-May-2013	sub2336	2336	  1	  0	 60	  3	  1	  2	  1	  4	  1	  2	  1	0.64501	  1	0.90000	  0	 12	 30	 31	  0	
07-May-2013	sub2336	2336	  1	  0	 61	  3	  1	  2	  1	  4	  1	  2	  1	0.59468	  1	0.90000	  0	 12	 30	 31	  0	
07-May-2013	sub2336	2336	  1	  0	 62	  3	  1	  4	  3	  1	  1	  2	  1	0.73419	  1	0.90000	  0	 14	 32	 33	  0	
07-May-2013	sub2336	2336	  1	  0	 63	  3	  1	  3	  4	  5	  1	  2	  0	0.60994	  0	0.90000	  0	 13	 42	 43	  0	
07-May-2013	sub2336	2336	  1	  0	 64	  3	  1	  1	  2	  1	  1	  1	  1	0.61725	  1	0.90000	  0	 11	 30	 31	  0	
07-May-2013	sub2336	2336	  1	  0	 65	  3	  1	  5	  5	  6	  1	  2	  0	0.57186	  0	0.90000	  0	 15	 45	 46	  0	
07-May-2013	sub2336	2336	  1	  0	 66	  3	  1	  5	  5	  6	  0	  1	  0	0.49266	  1	0.90000	  0	 15	 37	 48	  1	
07-May-2013	sub2336	2336	  1	  0	 67	  3	  1	  3	  4	  5	  0	  1	  0	0.56828	  1	0.90000	  0	 13	 34	 49	  0	
07-May-2013	sub2336	2336	  1	  0	 68	  3	  1	  6	  6	  6	  1	  1	  0	0.64401	  0	0.90000	  0	 16	 45	 46	  0	
07-May-2013	sub2336	2336	  1	  0	 69	  3	  1	  2	  1	  4	  1	  2	  1	0.62694	  1	0.90000	  0	 12	 30	 31	  0	
07-May-2013	sub2336	2336	  1	  0	 70	  3	  1	  3	  4	  5	  1	  1	  1	0.63998	  1	0.90000	  0	 13	 32	 33	  0	
07-May-2013	sub2336	2336	  1	  0	 71	  3	  1	  1	  2	  1	  1	  1	  1	0.53213	  1	0.90000	  0	 11	 30	 31	  0	
07-May-2013	sub2336	2336	  1	  0	 72	  3	  1	  6	  6	  6	  1	  1	  0	0.46456	  0	0.90000	  0	 16	 45	 46	  1	
07-May-2013	sub2336	2336	  1	  0	 73	  3	  1	  1	  2	  1	  1	  1	  1	0.64252	  1	0.80000	  0	 11	 30	 31	  0	
07-May-2013	sub2336	2336	  1	  0	 74	  3	  1	  2	  1	  4	  1	  2	  1	0.67332	  1	0.80000	  0	 12	 30	 31	  0	
07-May-2013	sub2336	2336	  1	  0	 75	  3	  1	  1	  2	  1	  1	  1	  1	0.73958	  1	0.80000	  0	 11	 30	 31	  0	
07-May-2013	sub2336	2336	  1	  0	 76	  3	  2	  2	  1	  4	  1	  2	  1	0.64205	  1	0.80000	  0	 22	 60	 61	  0	
07-May-2013	sub2336	2336	  1	  0	 77	  3	  2	  1	  2	  1	  1	  1	  1	0.56216	  1	0.80000	  0	 21	 60	 61	  0	
07-May-2013	sub2336	2336	  1	  0	 78	  3	  2	  3	  4	  5	  0	  2	  1	0.58288	  0	0.80000	  0	 23	 84	 69	  0	
07-May-2013	sub2336	2336	  1	  0	 79	  3	  2	  5	  5	  6	  0	  2	  1	0.79701	  0	0.80000	  0	 25	 87	 68	  0	
07-May-2013	sub2336	2336	  1	  0	 80	  3	  2	  6	  6	  6	  0	  1	  1	0.59113	  0	0.80000	  0	 26	 87	 68	  0	
07-May-2013	sub2336	2336	  1	  0	 81	  3	  2	  5	  5	  6	  0	  2	  1	0.91212	  0	0.80000	  1	 25	 87	 51	  0	
07-May-2013	sub2336	2336	  1	  0	 82	  3	  2	  3	  4	  5	  1	  1	  1	0.75869	  1	0.90000	  0	 23	 62	 63	  0	
07-May-2013	sub2336	2336	  1	  0	 83	  3	  2	  4	  3	  1	  0	  2	  0	0.61740	  1	0.90000	  0	 24	 64	 89	  0	
07-May-2013	sub2336	2336	  1	  0	 84	  3	  2	  2	  1	  4	  1	  2	  1	0.88561	  1	0.90000	  0	 22	 60	 61	  0	
07-May-2013	sub2336	2336	  1	  0	 85	  3	  2	  3	  4	  5	  1	  1	  1	0.69567	  1	0.90000	  0	 23	 62	 63	  0	
07-May-2013	sub2336	2336	  1	  0	 86	  3	  2	  2	  1	  4	  1	  2	  1	0.69776	  1	0.90000	  0	 22	 60	 61	  0	
07-May-2013	sub2336	2336	  1	  0	 87	  3	  2	  5	  5	  6	  0	  2	  1	0.64225	  0	0.80000	  0	 25	 87	 68	  0	
07-May-2013	sub2336	2336	  1	  0	 88	  3	  2	  5	  5	  6	  0	  2	  1	0.55970	  0	0.80000	  0	 25	 87	 68	  0	
07-May-2013	sub2336	2336	  1	  0	 89	  3	  2	  6	  6	  6	  0	  1	  1	0.57634	  0	0.80000	  0	 26	 87	 68	  0	
07-May-2013	sub2336	2336	  1	  0	 90	  3	  2	  3	  4	  5	  1	  1	  1	0.58704	  1	0.80000	  0	 23	 62	 63	  0	
07-May-2013	sub2336	2336	  1	  0	 91	  3	  2	  4	  3	  1	  1	  2	  1	0.48346	  1	0.80000	  0	 24	 62	 63	  1	
07-May-2013	sub2336	2336	  1	  0	 92	  3	  2	  2	  1	  4	  1	  2	  1	0.55601	  1	0.80000	  0	 22	 60	 61	  0	
07-May-2013	sub2336	2336	  1	  0	 93	  3	  2	  5	  5	  6	  0	  2	  1	0.52927	  0	0.80000	  0	 25	 87	 68	  0	
07-May-2013	sub2336	2336	  1	  0	 94	  3	  2	  3	  4	  5	  1	  1	  1	0.89381	  1	0.80000	  1	 23	 62	 51	  0	
07-May-2013	sub2336	2336	  1	  0	 95	  3	  2	  5	  5	  6	  0	  2	  1	0.82533	  0	0.90000	  0	 25	 87	 68	  0	
07-May-2013	sub2336	2336	  1	  0	 96	  3	  2	  3	  4	  5	  1	  1	  1	0.63297	  1	0.90000	  0	 23	 62	 63	  0	
07-May-2013	sub2336	2336	  1	  0	 97	  3	  2	  2	  1	  4	  1	  2	  1	0.63503	  1	0.90000	  0	 22	 60	 61	  0	
07-May-2013	sub2336	2336	  1	  0	 98	  3	  2	  5	  5	  6	  0	  2	  1	0.81097	  0	0.90000	  0	 25	 87	 68	  0	
07-May-2013	sub2336	2336	  1	  0	 99	  3	  2	  4	  3	  1	  1	  2	  1	0.45313	  1	0.90000	  0	 24	 62	 63	  1	
07-May-2013	sub2336	2336	  1	  0	100	  3	  2	  4	  3	  1	  1	  2	  1	0.51116	  1	0.90000	  0	 24	 62	 63	  0	
07-May-2013	sub2336	2336	  1	  0	101	  3	  2	  2	  1	  4	  1	  2	  1	0.55409	  1	0.80000	  0	 22	 60	 61	  0	
07-May-2013	sub2336	2336	  1	  0	102	  3	  2	  6	  6	  6	  1	  1	  0	0.69928	  0	0.80000	  0	 26	 85	 86	  0	
07-May-2013	sub2336	2336	  1	  0	103	  3	  2	  4	  3	  1	  1	  2	  1	0.51235	  1	0.80000	  0	 24	 62	 63	  0	
07-May-2013	sub2336	2336	  1	  0	104	  3	  2	  1	  2	  1	  1	  1	  1	0.52422	  1	0.80000	  0	 21	 60	 61	  0	
07-May-2013	sub2336	2336	  1	  0	105	  3	  2	  5	  5	  6	  0	  2	  1	0.66507	  0	0.80000	  0	 25	 87	 68	  0	
07-May-2013	sub2336	2336	  1	  0	106	  3	  2	  5	  5	  6	  0	  2	  1	0.61039	  0	0.80000	  0	 25	 87	 68	  0	
07-May-2013	sub2336	2336	  1	  0	107	  3	  2	  2	  1	  4	  1	  2	  1	0.50909	  1	0.80000	  0	 22	 60	 61	  0	
07-May-2013	sub2336	2336	  1	  0	108	  3	  2	  2	  1	  4	  1	  2	  1	0.51570	  1	0.80000	  0	 22	 60	 61	  0	
07-May-2013	sub2336	2336	  1	  0	109	  3	  2	  6	  6	  6	  1	  1	  0	0.60393	  0	0.80000	  0	 26	 85	 86	  0	
07-May-2013	sub2336	2336	  1	  0	110	  3	  2	  4	  3	  1	  1	  2	  1	0.48263	  1	0.80000	  0	 24	 62	 63	  1	
07-May-2013	sub2336	2336	  1	  0	111	  3	  2	  6	  6	  6	  0	  1	  1	0.57600	  0	0.80000	  0	 26	 87	 68	  0	
07-May-2013	sub2336	2336	  1	  0	112	  3	  2	  1	  2	  1	  1	  1	  1	0.57040	  1	0.80000	  0	 21	 60	 61	  0	
07-May-2013	sub2336	2336	  1	  0	113	  3	  2	  1	  2	  1	  1	  1	  1	0.55073	  1	0.80000	  0	 21	 60	 61	  0	
07-May-2013	sub2336	2336	  1	  0	114	  3	  2	  1	  2	  1	  1	  1	  1	0.44762	  1	0.80000	  0	 21	 60	 61	  1	
07-May-2013	sub2336	2336	  1	  0	115	  3	  2	  5	  5	  6	  0	  2	  1	0.57744	  0	0.80000	  0	 25	 87	 68	  0	
07-May-2013	sub2336	2336	  1	  0	116	  3	  2	  4	  3	  1	  1	  2	  1	0.55930	  1	0.80000	  0	 24	 62	 63	  0	
07-May-2013	sub2336	2336	  1	  0	117	  3	  2	  4	  3	  1	  1	  2	  1	0.45710	  1	0.80000	  0	 24	 62	 63	  1	
07-May-2013	sub2336	2336	  1	  0	118	  3	  2	  1	  2	  1	  1	  1	  1	0.40120	  1	0.70000	  0	 21	 60	 61	  1	
07-May-2013	sub2336	2336	  1	  0	119	  3	  2	  4	  3	  1	  0	  2	  0	0.61011	  1	0.70000	  0	 24	 64	 89	  0	
07-May-2013	sub2336	2336	  1	  0	120	  3	  2	  6	  6	  6	  1	  1	  0	0.53997	  0	0.70000	  0	 26	 85	 86	  0	
07-May-2013	sub2336	2336	  1	  0	121	  3	  2	  2	  1	  4	  1	  2	  1	0.54526	  1	0.70000	  0	 22	 60	 61	  0	
07-May-2013	sub2336	2336	  1	  0	122	  3	  2	  4	  3	  1	  0	  2	  0	0.53678	  1	0.70000	  0	 24	 64	 89	  0	
07-May-2013	sub2336	2336	  1	  0	123	  3	  2	  1	  2	  1	  1	  1	  1	0.60539	  1	0.70000	  0	 21	 60	 61	  0	
07-May-2013	sub2336	2336	  1	  0	124	  3	  2	  6	  6	  6	  0	  1	  1	0.59855	  0	0.70000	  0	 26	 87	 68	  0	
07-May-2013	sub2336	2336	  1	  0	125	  3	  2	  5	  5	  6	  0	  2	  1	0.67273	  0	0.70000	  0	 25	 87	 68	  0	
07-May-2013	sub2336	2336	  1	  0	126	  3	  2	  2	  1	  4	  1	  2	  1	0.53736	  1	0.70000	  0	 22	 60	 61	  0	
07-May-2013	sub2336	2336	  1	  0	127	  3	  2	  3	  4	  5	  0	  1	  0	0.59993	  1	0.70000	  0	 23	 64	 89	  0	
07-May-2013	sub2336	2336	  1	  0	128	  3	  2	  1	  2	  1	  1	  1	  1	0.53812	  1	0.70000	  0	 21	 60	 61	  0	
07-May-2013	sub2336	2336	  1	  0	129	  3	  2	  2	  1	  4	  1	  2	  1	0.56680	  1	0.70000	  0	 22	 60	 61	  0	
07-May-2013	sub2336	2336	  1	  0	130	  3	  2	  3	  4	  5	  1	  1	  1	0.46451	  1	0.70000	  0	 23	 62	 63	  1	
07-May-2013	sub2336	2336	  1	  0	131	  3	  2	  5	  5	  6	  0	  2	  1	0.50060	  0	0.70000	  0	 25	 87	 68	  0	
07-May-2013	sub2336	2336	  1	  0	132	  3	  2	  6	  6	  6	  1	  1	  0	0.57864	  0	0.70000	  0	 26	 85	 86	  0	
07-May-2013	sub2336	2336	  1	  0	133	  3	  2	  5	  5	  6	  0	  2	  1	0.60107	  0	0.70000	  0	 25	 87	 68	  0	
07-May-2013	sub2336	2336	  1	  0	134	  3	  2	  3	  4	  5	  1	  1	  1	0.44985	  1	0.70000	  0	 23	 62	 63	  1	
07-May-2013	sub2336	2336	  1	  0	135	  3	  2	  2	  1	  4	  1	  2	  1	0.55882	  1	0.70000	  0	 22	 60	 61	  0	
07-May-2013	sub2336	2336	  1	  0	136	  3	  2	  3	  4	  5	  1	  1	  1	0.66628	  1	0.70000	  0	 23	 62	 63	  0	
07-May-2013	sub2336	2336	  1	  0	137	  3	  2	  1	  2	  1	  1	  1	  1	0.56137	  1	0.70000	  0	 21	 60	 61	  0	
07-May-2013	sub2336	2336	  1	  0	138	  3	  2	  3	  4	  5	  1	  1	  1	0.55839	  1	0.70000	  0	 23	 62	 63	  0	
07-May-2013	sub2336	2336	  1	  0	139	  3	  2	  4	  3	  1	  1	  2	  1	0.52706	  1	0.70000	  0	 24	 62	 63	  0	
07-May-2013	sub2336	2336	  1	  0	140	  3	  2	  6	  6	  6	  0	  1	  1	0.53069	  0	0.70000	  0	 26	 87	 68	  0	
07-May-2013	sub2336	2336	  1	  0	141	  3	  2	  6	  6	  6	  1	  1	  0	0.50889	  0	0.60000	  0	 26	 85	 86	  0	
07-May-2013	sub2336	2336	  1	  0	142	  3	  2	  1	  2	  1	  1	  2	  0	0.56488	  0	0.60000	  0	 21	 80	 81	  0	
07-May-2013	sub2336	2336	  1	  0	143	  3	  2	  6	  6	  6	  0	  1	  1	0.64655	  0	0.60000	  1	 26	 87	 51	  0	
07-May-2013	sub2336	2336	  1	  0	144	  3	  2	  6	  6	  6	  1	  1	  0	0.43253	  0	0.70000	  0	 26	 85	 86	  1	
07-May-2013	sub2336	2336	  1	  0	145	  3	  2	  3	  4	  5	  1	  1	  1	0.52471	  1	0.70000	  0	 23	 62	 63	  0	
07-May-2013	sub2336	2336	  1	  0	146	  3	  2	  1	  2	  1	  1	  1	  1	0.44813	  1	0.70000	  0	 21	 60	 61	  1	
07-May-2013	sub2336	2336	  1	  0	147	  3	  2	  1	  2	  1	  1	  1	  1	0.45043	  1	0.70000	  0	 21	 60	 61	  1	
07-May-2013	sub2336	2336	  1	  0	148	  3	  2	  4	  3	  1	  1	  2	  1	0.57721	  1	0.70000	  0	 24	 62	 63	  0	
07-May-2013	sub2336	2336	  1	  0	149	  3	  2	  4	  3	  1	  1	  2	  1	0.54972	  1	0.70000	  0	 24	 62	 63	  0	
07-May-2013	sub2336	2336	  1	  0	150	  3	  2	  1	  2	  1	  1	  1	  1	0.55014	  1	0.70000	  0	 21	 60	 61	  0	
07-May-2013	sub2336	2336	  1	  0	  1	  4	  1	  5	  2	  3	  1	  1	  1	0.40614	  1	0.60000	  0	 15	 35	 36	  1	
07-May-2013	sub2336	2336	  1	  0	  2	  4	  1	  2	  1	  2	  1	  2	  1	0.53297	  1	0.30000	  1	 12	 30	 51	  0	
07-May-2013	sub2336	2336	  1	  0	  3	  4	  1	  1	  3	  3	  1	  2	  0	0.50797	  0	0.90000	  0	 11	 40	 41	  0	
07-May-2013	sub2336	2336	  1	  0	  4	  4	  1	  5	  2	  3	  1	  1	  1	0.63370	  1	0.90000	  0	 15	 35	 36	  0	
07-May-2013	sub2336	2336	  1	  0	  5	  4	  1	  2	  1	  2	  1	  1	  0	0.49941	  0	0.90000	  0	 12	 40	 41	  1	
07-May-2013	sub2336	2336	  1	  0	  6	  4	  1	  4	  4	  4	  1	  2	  1	0.77519	  1	0.90000	  0	 14	 32	 33	  0	
07-May-2013	sub2336	2336	  1	  0	  7	  4	  1	  5	  2	  3	  0	  1	  0	0.51719	  1	0.90000	  0	 15	 37	 48	  0	
07-May-2013	sub2336	2336	  1	  0	  8	  4	  1	  6	  6	  4	  0	  2	  0	0.60733	  1	0.90000	  0	 16	 37	 48	  0	
07-May-2013	sub2336	2336	  1	  0	  9	  4	  1	  6	  6	  4	  1	  1	  0	0.63055	  0	0.90000	  0	 16	 45	 46	  0	
07-May-2013	sub2336	2336	  1	  0	 10	  4	  1	  3	  5	  4	  0	  1	  0	0.59637	  1	0.90000	  0	 13	 34	 49	  0	
07-May-2013	sub2336	2336	  1	  0	 11	  4	  1	  1	  3	  3	  1	  1	  1	0.65066	  1	0.90000	  0	 11	 30	 31	  0	
07-May-2013	sub2336	2336	  1	  0	 12	  4	  1	  3	  5	  4	  1	  2	  0	0.71351	  0	0.90000	  0	 13	 42	 43	  0	
07-May-2013	sub2336	2336	  1	  0	 13	  4	  1	  2	  1	  2	  1	  1	  0	0.48555	  0	0.90000	  0	 12	 40	 41	  1	
07-May-2013	sub2336	2336	  1	  0	 14	  4	  1	  3	  5	  4	  1	  2	  0	0.60008	  0	0.90000	  0	 13	 42	 43	  0	
07-May-2013	sub2336	2336	  1	  0	 15	  4	  1	  6	  6	  4	  1	  1	  0	0.87205	  0	0.90000	  0	 16	 45	 46	  0	
07-May-2013	sub2336	2336	  1	  0	 16	  4	  1	  3	  5	  4	  1	  2	  0	0.66345	  0	0.80000	  0	 13	 42	 43	  0	
07-May-2013	sub2336	2336	  1	  0	 17	  4	  1	  4	  4	  4	  1	  1	  0	0.59875	  0	0.80000	  0	 14	 42	 43	  0	
07-May-2013	sub2336	2336	  1	  0	 18	  4	  1	  2	  1	  2	  1	  2	  1	0.64171	  1	0.70000	  0	 12	 30	 31	  0	
07-May-2013	sub2336	2336	  1	  0	 19	  4	  1	  6	  6	  4	  0	  2	  0	0.80742	  1	0.70000	  1	 16	 37	 51	  0	
07-May-2013	sub2336	2336	  1	  0	 20	  4	  1	  3	  5	  4	  1	  2	  0	0.58541	  0	0.90000	  0	 13	 42	 43	  0	
07-May-2013	sub2336	2336	  1	  0	 21	  4	  1	  1	  3	  3	  1	  1	  1	0.59723	  1	0.90000	  0	 11	 30	 31	  0	
07-May-2013	sub2336	2336	  1	  0	 22	  4	  1	  4	  4	  4	  1	  2	  1	0.79796	  1	0.90000	  0	 14	 32	 33	  0	
07-May-2013	sub2336	2336	  1	  0	 23	  4	  1	  5	  2	  3	  0	  1	  0	0.48995	  1	0.90000	  0	 15	 37	 48	  1	
07-May-2013	sub2336	2336	  1	  0	 24	  4	  1	  5	  2	  3	  1	  1	  1	0.49024	  1	0.90000	  0	 15	 35	 36	  1	
07-May-2013	sub2336	2336	  1	  0	 25	  4	  1	  4	  4	  4	  1	  2	  1	0.64573	  1	0.90000	  0	 14	 32	 33	  0	
07-May-2013	sub2336	2336	  1	  0	 26	  4	  1	  5	  2	  3	  0	  1	  0	0.55463	  1	0.90000	  0	 15	 37	 48	  0	
07-May-2013	sub2336	2336	  1	  0	 27	  4	  1	  4	  4	  4	  1	  2	  1	0.78220	  1	0.90000	  0	 14	 32	 33	  0	
07-May-2013	sub2336	2336	  1	  0	 28	  4	  1	  4	  4	  4	  0	  2	  0	0.76820	  1	0.90000	  0	 14	 34	 49	  0	
07-May-2013	sub2336	2336	  1	  0	 29	  4	  1	  6	  6	  4	  0	  2	  0	0.65658	  1	0.90000	  0	 16	 37	 48	  0	
07-May-2013	sub2336	2336	  1	  0	 30	  4	  1	  5	  2	  3	  1	  1	  1	0.75620	  1	0.80000	  0	 15	 35	 36	  0	
07-May-2013	sub2336	2336	  1	  0	 31	  4	  1	  1	  3	  3	  1	  1	  1	0.69269	  1	0.80000	  0	 11	 30	 31	  0	
07-May-2013	sub2336	2336	  1	  0	 32	  4	  1	  3	  5	  4	  0	  1	  0	0.64868	  1	0.80000	  0	 13	 34	 49	  0	
07-May-2013	sub2336	2336	  1	  0	 33	  4	  1	  3	  5	  4	  1	  1	  1	0.47642	  1	0.80000	  0	 13	 32	 33	  1	
07-May-2013	sub2336	2336	  1	  0	 34	  4	  1	  6	  6	  4	  1	  2	  1	0.65497	  1	0.80000	  0	 16	 35	 36	  0	
07-May-2013	sub2336	2336	  1	  0	 35	  4	  1	  3	  5	  4	  1	  2	  0	0.77284	  0	0.70000	  1	 13	 42	 51	  0	
07-May-2013	sub2336	2336	  1	  0	 36	  4	  1	  2	  1	  2	  1	  1	  0	0.59867	  0	0.90000	  0	 12	 40	 41	  0	
07-May-2013	sub2336	2336	  1	  0	 37	  4	  1	  1	  3	  3	  1	  1	  1	0.61451	  1	0.90000	  0	 11	 30	 31	  0	
07-May-2013	sub2336	2336	  1	  0	 38	  4	  1	  6	  6	  4	  1	  2	  1	0.59882	  1	0.90000	  0	 16	 35	 36	  0	
07-May-2013	sub2336	2336	  1	  0	 39	  4	  1	  4	  4	  4	  1	  2	  1	0.64766	  1	0.90000	  0	 14	 32	 33	  0	
07-May-2013	sub2336	2336	  1	  0	 40	  4	  1	  2	  1	  2	  1	  2	  1	0.59710	  1	0.90000	  0	 12	 30	 31	  0	
07-May-2013	sub2336	2336	  1	  0	 41	  4	  1	  4	  4	  4	  1	  2	  1	0.63504	  1	0.90000	  0	 14	 32	 33	  0	
07-May-2013	sub2336	2336	  1	  0	 42	  4	  1	  4	  4	  4	  1	  2	  1	0.55566	  1	0.90000	  0	 14	 32	 33	  0	
07-May-2013	sub2336	2336	  1	  0	 43	  4	  1	  3	  5	  4	  0	  1	  0	0.62065	  1	0.90000	  0	 13	 34	 49	  0	
07-May-2013	sub2336	2336	  1	  0	 44	  4	  1	  6	  6	  4	  0	  2	  0	0.78859	  1	0.80000	  0	 16	 37	 48	  0	
07-May-2013	sub2336	2336	  1	  0	 45	  4	  1	  4	  4	  4	  0	  2	  0	0.53296	  1	0.80000	  0	 14	 34	 49	  0	
07-May-2013	sub2336	2336	  1	  0	 46	  4	  1	  1	  3	  3	  1	  2	  0	0.47185	  0	0.80000	  0	 11	 40	 41	  1	
07-May-2013	sub2336	2336	  1	  0	 47	  4	  1	  3	  5	  4	  1	  1	  1	0.75995	  1	0.80000	  0	 13	 32	 33	  0	
07-May-2013	sub2336	2336	  1	  0	 48	  4	  1	  1	  3	  3	  1	  1	  1	0.55803	  1	0.80000	  0	 11	 30	 31	  0	
07-May-2013	sub2336	2336	  1	  0	 49	  4	  1	  2	  1	  2	  1	  2	  1	0.57568	  1	0.80000	  0	 12	 30	 31	  0	
07-May-2013	sub2336	2336	  1	  0	 50	  4	  1	  1	  3	  3	  1	  2	  0	0.54733	  0	0.80000	  0	 11	 40	 41	  0	
07-May-2013	sub2336	2336	  1	  0	 51	  4	  1	  6	  6	  4	  0	  2	  0	0.66270	  1	0.70000	  0	 16	 37	 48	  0	
07-May-2013	sub2336	2336	  1	  0	 52	  4	  1	  5	  2	  3	  1	  1	  1	0.56586	  1	0.70000	  0	 15	 35	 36	  0	
07-May-2013	sub2336	2336	  1	  0	 53	  4	  1	  3	  5	  4	  1	  1	  1	0.58750	  1	0.70000	  0	 13	 32	 33	  0	
07-May-2013	sub2336	2336	  1	  0	 54	  4	  1	  2	  1	  2	  1	  2	  1	0.76318	  1	0.70000	  1	 12	 30	 51	  0	
07-May-2013	sub2336	2336	  1	  0	 55	  4	  1	  1	  3	  3	  1	  1	  1	0.72407	  1	0.90000	  0	 11	 30	 31	  0	
07-May-2013	sub2336	2336	  1	  0	 56	  4	  1	  4	  4	  4	  1	  2	  1	0.65285	  1	0.90000	  0	 14	 32	 33	  0	
07-May-2013	sub2336	2336	  1	  0	 57	  4	  1	  5	  2	  3	  0	  1	  0	0.60436	  1	0.90000	  0	 15	 37	 48	  0	
07-May-2013	sub2336	2336	  1	  0	 58	  4	  1	  2	  1	  2	  1	  2	  1	0.99102	  1	0.90000	  1	 12	 30	 51	  0	
07-May-2013	sub2336	2336	  1	  0	 59	  4	  1	  1	  3	  3	  1	  1	  1	0.73966	  1	0.90000	  0	 11	 30	 31	  0	
07-May-2013	sub2336	2336	  1	  0	 60	  4	  1	  2	  1	  2	  1	  2	  1	0.64874	  1	0.90000	  0	 12	 30	 31	  0	
07-May-2013	sub2336	2336	  1	  0	 61	  4	  1	  3	  5	  4	  1	  1	  1	0.62594	  1	0.90000	  0	 13	 32	 33	  0	
07-May-2013	sub2336	2336	  1	  0	 62	  4	  1	  4	  4	  4	  1	  2	  1	0.51135	  1	0.90000	  0	 14	 32	 33	  0	
07-May-2013	sub2336	2336	  1	  0	 63	  4	  1	  3	  5	  4	  1	  2	  0	0.82449	  0	0.90000	  0	 13	 42	 43	  0	
07-May-2013	sub2336	2336	  1	  0	 64	  4	  1	  2	  1	  2	  1	  2	  1	0.80058	  1	0.90000	  0	 12	 30	 31	  0	
07-May-2013	sub2336	2336	  1	  0	 65	  4	  1	  1	  3	  3	  1	  1	  1	0.72165	  1	0.90000	  0	 11	 30	 31	  0	
07-May-2013	sub2336	2336	  1	  0	 66	  4	  1	  1	  3	  3	  1	  1	  1	0.66985	  1	0.90000	  0	 11	 30	 31	  0	
07-May-2013	sub2336	2336	  1	  0	 67	  4	  1	  2	  1	  2	  1	  2	  1	0.76897	  1	0.90000	  0	 12	 30	 31	  0	
07-May-2013	sub2336	2336	  1	  0	 68	  4	  1	  5	  2	  3	  1	  1	  1	0.61904	  1	0.90000	  0	 15	 35	 36	  0	
07-May-2013	sub2336	2336	  1	  0	 69	  4	  1	  6	  6	  4	  0	  1	  1	0.74364	  0	0.90000	  0	 16	 47	 38	  0	
07-May-2013	sub2336	2336	  1	  0	 70	  4	  1	  6	  6	  4	  1	  1	  0	0.59863	  0	0.90000	  0	 16	 45	 46	  0	
07-May-2013	sub2336	2336	  1	  0	 71	  4	  1	  5	  2	  3	  0	  1	  0	0.64579	  1	0.90000	  0	 15	 37	 48	  0	
07-May-2013	sub2336	2336	  1	  0	 72	  4	  1	  6	  6	  4	  0	  1	  1	0.56040	  0	0.90000	  0	 16	 47	 38	  0	
07-May-2013	sub2336	2336	  1	  0	 73	  4	  1	  5	  2	  3	  0	  1	  0	0.59427	  1	0.80000	  0	 15	 37	 48	  0	
07-May-2013	sub2336	2336	  1	  0	 74	  4	  1	  6	  6	  4	  1	  1	  0	0.63361	  0	0.80000	  0	 16	 45	 46	  0	
07-May-2013	sub2336	2336	  1	  0	 75	  4	  1	  2	  1	  2	  1	  2	  1	0.80215	  1	0.80000	  1	 12	 30	 51	  0	
07-May-2013	sub2336	2336	  1	  0	 76	  4	  2	  2	  1	  2	  1	  2	  1	0.49633	  1	0.90000	  0	 22	 60	 61	  1	
07-May-2013	sub2336	2336	  1	  0	 77	  4	  2	  6	  6	  4	  1	  1	  0	0.72077	  0	0.90000	  0	 26	 85	 86	  0	
07-May-2013	sub2336	2336	  1	  0	 78	  4	  2	  4	  4	  4	  1	  2	  1	0.56367	  1	0.90000	  0	 24	 62	 63	  0	
07-May-2013	sub2336	2336	  1	  0	 79	  4	  2	  2	  1	  2	  1	  2	  1	0.85406	  1	0.90000	  0	 22	 60	 61	  0	
07-May-2013	sub2336	2336	  1	  0	 80	  4	  2	  4	  4	  4	  1	  2	  1	0.46095	  1	0.90000	  0	 24	 62	 63	  1	
07-May-2013	sub2336	2336	  1	  0	 81	  4	  2	  1	  3	  3	  1	  1	  1	0.67768	  1	0.90000	  0	 21	 60	 61	  0	
07-May-2013	sub2336	2336	  1	  0	 82	  4	  2	  6	  6	  4	  0	  2	  0	1.28652	  1	0.90000	  1	 26	 67	 51	  0	
07-May-2013	sub2336	2336	  1	  0	 83	  4	  2	  4	  4	  4	  1	  2	  1	0.59760	  1	0.90000	  0	 24	 62	 63	  0	
07-May-2013	sub2336	2336	  1	  0	 84	  4	  2	  2	  1	  2	  1	  2	  1	0.52501	  1	0.90000	  0	 22	 60	 61	  0	
07-May-2013	sub2336	2336	  1	  0	 85	  4	  2	  2	  1	  2	  1	  2	  1	0.55031	  1	0.90000	  0	 22	 60	 61	  0	
07-May-2013	sub2336	2336	  1	  0	 86	  4	  2	  1	  3	  3	  1	  1	  1	0.52140	  1	0.90000	  0	 21	 60	 61	  0	
07-May-2013	sub2336	2336	  1	  0	 87	  4	  2	  2	  1	  2	  1	  2	  1	0.59030	  1	0.90000	  0	 22	 60	 61	  0	
07-May-2013	sub2336	2336	  1	  0	 88	  4	  2	  6	  6	  4	  0	  1	  1	0.59925	  0	0.90000	  0	 26	 87	 68	  0	
07-May-2013	sub2336	2336	  1	  0	 89	  4	  2	  5	  2	  3	  0	  1	  0	0.69741	  1	0.90000	  0	 25	 67	 88	  0	
07-May-2013	sub2336	2336	  1	  0	 90	  4	  2	  2	  1	  2	  1	  2	  1	0.76309	  1	0.90000	  0	 22	 60	 61	  0	
07-May-2013	sub2336	2336	  1	  0	 91	  4	  2	  6	  6	  4	  1	  1	  0	0.97186	  0	0.90000	  1	 26	 85	 51	  0	
07-May-2013	sub2336	2336	  1	  0	 92	  4	  2	  6	  6	  4	  0	  1	  1	0.49346	  0	0.90000	  0	 26	 87	 68	  1	
07-May-2013	sub2336	2336	  1	  0	 93	  4	  2	  6	  6	  4	  0	  1	  1	0.54881	  0	0.90000	  0	 26	 87	 68	  0	
07-May-2013	sub2336	2336	  1	  0	 94	  4	  2	  4	  4	  4	  1	  2	  1	0.44654	  1	0.90000	  0	 24	 62	 63	  1	
07-May-2013	sub2336	2336	  1	  0	 95	  4	  2	  6	  6	  4	  0	  1	  1	0.63643	  0	0.90000	  0	 26	 87	 68	  0	
07-May-2013	sub2336	2336	  1	  0	 96	  4	  2	  1	  3	  3	  1	  1	  1	0.63331	  1	0.90000	  0	 21	 60	 61	  0	
07-May-2013	sub2336	2336	  1	  0	 97	  4	  2	  3	  5	  4	  1	  1	  1	0.60351	  1	0.90000	  0	 23	 62	 63	  0	
07-May-2013	sub2336	2336	  1	  0	 98	  4	  2	  1	  3	  3	  1	  2	  0	0.48444	  0	0.90000	  0	 21	 80	 81	  1	
07-May-2013	sub2336	2336	  1	  0	 99	  4	  2	  1	  3	  3	  1	  1	  1	0.46751	  1	0.90000	  0	 21	 60	 61	  1	
07-May-2013	sub2336	2336	  1	  0	100	  4	  2	  5	  2	  3	  0	  1	  0	0.68363	  1	0.90000	  0	 25	 67	 88	  0	
07-May-2013	sub2336	2336	  1	  0	101	  4	  2	  1	  3	  3	  1	  1	  1	0.53074	  1	0.90000	  0	 21	 60	 61	  0	
07-May-2013	sub2336	2336	  1	  0	102	  4	  2	  3	  5	  4	  1	  1	  1	0.64819	  1	0.90000	  0	 23	 62	 63	  0	
07-May-2013	sub2336	2336	  1	  0	103	  4	  2	  5	  2	  3	  0	  2	  1	0.65145	  0	0.90000	  0	 25	 87	 68	  0	
07-May-2013	sub2336	2336	  1	  0	104	  4	  2	  4	  4	  4	  1	  2	  1	0.42876	  1	0.90000	  0	 24	 62	 63	  1	
07-May-2013	sub2336	2336	  1	  0	105	  4	  2	  6	  6	  4	  1	  2	  1	0.46490	  1	0.90000	  0	 26	 65	 66	  1	
07-May-2013	sub2336	2336	  1	  0	106	  4	  2	  5	  2	  3	  0	  1	  0	0.49447	  1	0.90000	  0	 25	 67	 88	  1	
07-May-2013	sub2336	2336	  1	  0	107	  4	  2	  4	  4	  4	  0	  2	  0	0.73801	  1	0.90000	  0	 24	 64	 89	  0	
07-May-2013	sub2336	2336	  1	  0	108	  4	  2	  5	  2	  3	  0	  1	  0	0.63112	  1	0.90000	  0	 25	 67	 88	  0	
07-May-2013	sub2336	2336	  1	  0	109	  4	  2	  5	  2	  3	  0	  2	  1	0.57326	  0	0.90000	  0	 25	 87	 68	  0	
07-May-2013	sub2336	2336	  1	  0	110	  4	  2	  5	  2	  3	  0	  2	  1	0.48417	  0	0.90000	  0	 25	 87	 68	  1	
07-May-2013	sub2336	2336	  1	  0	111	  4	  2	  1	  3	  3	  1	  2	  0	0.66563	  0	0.90000	  0	 21	 80	 81	  0	
07-May-2013	sub2336	2336	  1	  0	112	  4	  2	  4	  4	  4	  0	  2	  0	0.52425	  1	0.90000	  0	 24	 64	 89	  0	
07-May-2013	sub2336	2336	  1	  0	113	  4	  2	  5	  2	  3	  0	  2	  1	0.71445	  0	0.90000	  0	 25	 87	 68	  0	
07-May-2013	sub2336	2336	  1	  0	114	  4	  2	  4	  4	  4	  1	  2	  1	0.50478	  1	0.90000	  0	 24	 62	 63	  0	
07-May-2013	sub2336	2336	  1	  0	115	  4	  2	  4	  4	  4	  1	  2	  1	0.52884	  1	0.90000	  0	 24	 62	 63	  0	
07-May-2013	sub2336	2336	  1	  0	116	  4	  2	  1	  3	  3	  1	  1	  1	0.65243	  1	0.80000	  0	 21	 60	 61	  0	
07-May-2013	sub2336	2336	  1	  0	117	  4	  2	  2	  1	  2	  1	  2	  1	0.58050	  1	0.80000	  0	 22	 60	 61	  0	
07-May-2013	sub2336	2336	  1	  0	118	  4	  2	  3	  5	  4	  1	  1	  1	0.69863	  1	0.80000	  0	 23	 62	 63	  0	
07-May-2013	sub2336	2336	  1	  0	119	  4	  2	  3	  5	  4	  0	  1	  0	0.69414	  1	0.80000	  0	 23	 64	 89	  0	
07-May-2013	sub2336	2336	  1	  0	120	  4	  2	  6	  6	  4	  0	  2	  0	0.66899	  1	0.80000	  0	 26	 67	 88	  0	
07-May-2013	sub2336	2336	  1	  0	121	  4	  2	  3	  5	  4	  1	  1	  1	0.73884	  1	0.80000	  0	 23	 62	 63	  0	
07-May-2013	sub2336	2336	  1	  0	122	  4	  2	  5	  2	  3	  0	  2	  1	0.73955	  0	0.80000	  0	 25	 87	 68	  0	
07-May-2013	sub2336	2336	  1	  0	123	  4	  2	  1	  3	  3	  1	  1	  1	0.59710	  1	0.80000	  0	 21	 60	 61	  0	
07-May-2013	sub2336	2336	  1	  0	124	  4	  2	  4	  4	  4	  1	  2	  1	0.51114	  1	0.80000	  0	 24	 62	 63	  0	
07-May-2013	sub2336	2336	  1	  0	125	  4	  2	  1	  3	  3	  1	  1	  1	0.59448	  1	0.80000	  0	 21	 60	 61	  0	
07-May-2013	sub2336	2336	  1	  0	126	  4	  2	  1	  3	  3	  1	  1	  1	0.53162	  1	0.80000	  0	 21	 60	 61	  0	
07-May-2013	sub2336	2336	  1	  0	127	  4	  2	  1	  3	  3	  1	  1	  1	0.53898	  1	0.80000	  0	 21	 60	 61	  0	
07-May-2013	sub2336	2336	  1	  0	128	  4	  2	  2	  1	  2	  1	  2	  1	0.43053	  1	0.80000	  0	 22	 60	 61	  1	
07-May-2013	sub2336	2336	  1	  0	129	  4	  2	  6	  6	  4	  1	  1	  0	0.64009	  0	0.80000	  0	 26	 85	 86	  0	
07-May-2013	sub2336	2336	  1	  0	130	  4	  2	  2	  1	  2	  1	  2	  1	0.68547	  1	0.80000	  0	 22	 60	 61	  0	
07-May-2013	sub2336	2336	  1	  0	131	  4	  2	  2	  1	  2	  1	  1	  0	0.52920	  0	0.80000	  0	 22	 80	 81	  0	
07-May-2013	sub2336	2336	  1	  0	132	  4	  2	  3	  5	  4	  1	  1	  1	0.76454	  1	0.80000	  0	 23	 62	 63	  0	
07-May-2013	sub2336	2336	  1	  0	133	  4	  2	  3	  5	  4	  1	  1	  1	0.67989	  1	0.80000	  0	 23	 62	 63	  0	
07-May-2013	sub2336	2336	  1	  0	134	  4	  2	  3	  5	  4	  1	  1	  1	0.48925	  1	0.80000	  0	 23	 62	 63	  1	
07-May-2013	sub2336	2336	  1	  0	135	  4	  2	  6	  6	  4	  1	  1	  0	0.73588	  0	0.70000	  1	 26	 85	 51	  0	
07-May-2013	sub2336	2336	  1	  0	136	  4	  2	  3	  5	  4	  1	  1	  1	0.51816	  1	0.80000	  0	 23	 62	 63	  0	
07-May-2013	sub2336	2336	  1	  0	137	  4	  2	  4	  4	  4	  0	  2	  0	0.85881	  1	0.80000	  1	 24	 64	 51	  0	
07-May-2013	sub2336	2336	  1	  0	138	  4	  2	  5	  2	  3	  0	  2	  1	0.78455	  0	0.90000	  0	 25	 87	 68	  0	
07-May-2013	sub2336	2336	  1	  0	139	  4	  2	  4	  4	  4	  1	  2	  1	0.63553	  1	0.90000	  0	 24	 62	 63	  0	
07-May-2013	sub2336	2336	  1	  0	140	  4	  2	  1	  3	  3	  1	  1	  1	0.61695	  1	0.90000	  0	 21	 60	 61	  0	
07-May-2013	sub2336	2336	  1	  0	141	  4	  2	  5	  2	  3	  0	  2	  1	0.67856	  0	0.90000	  0	 25	 87	 68	  0	
07-May-2013	sub2336	2336	  1	  0	142	  4	  2	  3	  5	  4	  1	  1	  1	0.72308	  1	0.90000	  0	 23	 62	 63	  0	
07-May-2013	sub2336	2336	  1	  0	143	  4	  2	  3	  5	  4	  1	  1	  1	0.56119	  1	0.90000	  0	 23	 62	 63	  0	
07-May-2013	sub2336	2336	  1	  0	144	  4	  2	  5	  2	  3	  0	  2	  1	0.52702	  0	0.80000	  0	 25	 87	 68	  0	
07-May-2013	sub2336	2336	  1	  0	145	  4	  2	  5	  2	  3	  0	  2	  1	0.53612	  0	0.80000	  0	 25	 87	 68	  0	
07-May-2013	sub2336	2336	  1	  0	146	  4	  2	  4	  4	  4	  1	  2	  1	0.59537	  1	0.80000	  0	 24	 62	 63	  0	
07-May-2013	sub2336	2336	  1	  0	147	  4	  2	  6	  6	  4	  1	  1	  0	0.61558	  0	0.80000	  0	 26	 85	 86	  0	
07-May-2013	sub2336	2336	  1	  0	148	  4	  2	  2	  1	  2	  1	  2	  1	0.62617	  1	0.80000	  0	 22	 60	 61	  0	
07-May-2013	sub2336	2336	  1	  0	149	  4	  2	  2	  1	  2	  1	  2	  1	0.67867	  1	0.80000	  0	 22	 60	 61	  0	
07-May-2013	sub2336	2336	  1	  0	150	  4	  2	  3	  5	  4	  0	  1	  0	0.52911	  1	0.80000	  0	 23	 64	 89	  0	
07-May-2013	sub2336	2336	  1	  0	  1	  5	  1	  4	  1	  1	  1	  1	  0	0.55227	  0	0.60000	  0	 14	 42	 43	  0	
07-May-2013	sub2336	2336	  1	  0	  2	  5	  1	  3	  3	  2	  1	  2	  0	0.61811	  0	0.30000	  1	 13	 42	 51	  0	
07-May-2013	sub2336	2336	  1	  0	  3	  5	  1	  3	  3	  2	  1	  2	  0	0.41029	  0	0.90000	  0	 13	 42	 43	  1	
07-May-2013	sub2336	2336	  1	  0	  4	  5	  1	  3	  3	  2	  1	  1	  1	0.63447	  1	0.90000	  0	 13	 32	 33	  0	
07-May-2013	sub2336	2336	  1	  0	  5	  5	  1	  5	  2	  2	  1	  1	  1	0.68087	  1	0.90000	  0	 15	 35	 36	  0	
07-May-2013	sub2336	2336	  1	  0	  6	  5	  1	  4	  1	  1	  1	  2	  1	0.71076	  1	0.90000	  0	 14	 32	 33	  0	
07-May-2013	sub2336	2336	  1	  0	  7	  5	  1	  5	  2	  2	  1	  1	  1	0.61467	  1	0.90000	  0	 15	 35	 36	  0	
07-May-2013	sub2336	2336	  1	  0	  8	  5	  1	  6	  4	  2	  1	  2	  1	0.61553	  1	0.90000	  0	 16	 35	 36	  0	
07-May-2013	sub2336	2336	  1	  0	  9	  5	  1	  3	  3	  2	  0	  1	  0	0.65604	  1	0.90000	  0	 13	 34	 49	  0	
07-May-2013	sub2336	2336	  1	  0	 10	  5	  1	  6	  4	  2	  1	  2	  1	0.71821	  1	0.90000	  0	 16	 35	 36	  0	
07-May-2013	sub2336	2336	  1	  0	 11	  5	  1	  6	  4	  2	  1	  2	  1	0.55113	  1	0.90000	  0	 16	 35	 36	  0	
07-May-2013	sub2336	2336	  1	  0	 12	  5	  1	  2	  6	  2	  1	  2	  1	0.69495	  1	0.90000	  0	 12	 30	 31	  0	
07-May-2013	sub2336	2336	  1	  0	 13	  5	  1	  1	  5	  2	  1	  2	  0	0.59184	  0	0.90000	  0	 11	 40	 41	  0	
07-May-2013	sub2336	2336	  1	  0	 14	  5	  1	  1	  5	  2	  1	  1	  1	0.67048	  1	0.90000	  0	 11	 30	 31	  0	
07-May-2013	sub2336	2336	  1	  0	 15	  5	  1	  2	  6	  2	  1	  1	  0	0.56621	  0	0.90000	  0	 12	 40	 41	  0	
07-May-2013	sub2336	2336	  1	  0	 16	  5	  1	  5	  2	  2	  0	  1	  0	0.56456	  1	0.80000	  0	 15	 37	 48	  0	
07-May-2013	sub2336	2336	  1	  0	 17	  5	  1	  1	  5	  2	  1	  2	  0	0.87438	  0	0.80000	  1	 11	 40	 51	  0	
07-May-2013	sub2336	2336	  1	  0	 18	  5	  1	  2	  6	  2	  1	  2	  1	0.49178	  1	0.90000	  0	 12	 30	 31	  1	
07-May-2013	sub2336	2336	  1	  0	 19	  5	  1	  6	  4	  2	  0	  2	  0	0.44645	  1	0.90000	  0	 16	 37	 48	  1	
07-May-2013	sub2336	2336	  1	  0	 20	  5	  1	  6	  4	  2	  0	  1	  1	0.60457	  0	0.90000	  0	 16	 47	 38	  0	
07-May-2013	sub2336	2336	  1	  0	 21	  5	  1	  3	  3	  2	  1	  2	  0	0.51875	  0	0.90000	  0	 13	 42	 43	  0	
07-May-2013	sub2336	2336	  1	  0	 22	  5	  1	  1	  5	  2	  1	  2	  0	0.71284	  0	0.90000	  0	 11	 40	 41	  0	
07-May-2013	sub2336	2336	  1	  0	 23	  5	  1	  1	  5	  2	  1	  1	  1	0.51771	  1	0.90000	  0	 11	 30	 31	  0	
07-May-2013	sub2336	2336	  1	  0	 24	  5	  1	  5	  2	  2	  0	  1	  0	0.49138	  1	0.90000	  0	 15	 37	 48	  1	
07-May-2013	sub2336	2336	  1	  0	 25	  5	  1	  6	  4	  2	  0	  1	  1	0.58364	  0	0.90000	  0	 16	 47	 38	  0	
07-May-2013	sub2336	2336	  1	  0	 26	  5	  1	  6	  4	  2	  0	  1	  1	0.50263	  0	0.90000	  0	 16	 47	 38	  0	
07-May-2013	sub2336	2336	  1	  0	 27	  5	  1	  4	  1	  1	  1	  1	  0	0.46740	  0	0.90000	  0	 14	 42	 43	  1	
07-May-2013	sub2336	2336	  1	  0	 28	  5	  1	  6	  4	  2	  1	  2	  1	0.49158	  1	0.90000	  0	 16	 35	 36	  1	
07-May-2013	sub2336	2336	  1	  0	 29	  5	  1	  2	  6	  2	  1	  2	  1	0.61143	  1	0.90000	  0	 12	 30	 31	  0	
07-May-2013	sub2336	2336	  1	  0	 30	  5	  1	  1	  5	  2	  1	  1	  1	0.55671	  1	0.80000	  0	 11	 30	 31	  0	
07-May-2013	sub2336	2336	  1	  0	 31	  5	  1	  3	  3	  2	  1	  1	  1	0.62091	  1	0.80000	  0	 13	 32	 33	  0	
07-May-2013	sub2336	2336	  1	  0	 32	  5	  1	  4	  1	  1	  1	  2	  1	0.69908	  1	0.80000	  0	 14	 32	 33	  0	
07-May-2013	sub2336	2336	  1	  0	 33	  5	  1	  4	  1	  1	  1	  2	  1	0.65598	  1	0.80000	  0	 14	 32	 33	  0	
07-May-2013	sub2336	2336	  1	  0	 34	  5	  1	  3	  3	  2	  0	  1	  0	0.66242	  1	0.80000	  0	 13	 34	 49	  0	
07-May-2013	sub2336	2336	  1	  0	 35	  5	  1	  3	  3	  2	  1	  1	  1	0.48510	  1	0.70000	  0	 13	 32	 33	  1	
07-May-2013	sub2336	2336	  1	  0	 36	  5	  1	  1	  5	  2	  1	  1	  1	0.79270	  1	0.70000	  1	 11	 30	 51	  0	
07-May-2013	sub2336	2336	  1	  0	 37	  5	  1	  4	  1	  1	  1	  1	  0	0.48093	  0	0.90000	  0	 14	 42	 43	  1	
07-May-2013	sub2336	2336	  1	  0	 38	  5	  1	  1	  5	  2	  1	  2	  0	0.63460	  0	0.90000	  0	 11	 40	 41	  0	
07-May-2013	sub2336	2336	  1	  0	 39	  5	  1	  6	  4	  2	  1	  1	  0	0.47977	  0	0.90000	  0	 16	 45	 46	  1	
07-May-2013	sub2336	2336	  1	  0	 40	  5	  1	  5	  2	  2	  1	  2	  0	0.64662	  0	0.90000	  0	 15	 45	 46	  0	
07-May-2013	sub2336	2336	  1	  0	 41	  5	  1	  2	  6	  2	  1	  2	  1	0.92459	  1	0.90000	  1	 12	 30	 51	  0	
07-May-2013	sub2336	2336	  1	  0	 42	  5	  1	  5	  2	  2	  1	  2	  0	0.48241	  0	0.90000	  0	 15	 45	 46	  1	
07-May-2013	sub2336	2336	  1	  0	 43	  5	  1	  5	  2	  2	  0	  1	  0	0.41301	  1	0.90000	  0	 15	 37	 48	  1	
07-May-2013	sub2336	2336	  1	  0	 44	  5	  1	  2	  6	  2	  1	  1	  0	0.69192	  0	0.90000	  0	 12	 40	 41	  0	
07-May-2013	sub2336	2336	  1	  0	 45	  5	  1	  5	  2	  2	  0	  1	  0	0.55099	  1	0.90000	  0	 15	 37	 48	  0	
07-May-2013	sub2336	2336	  1	  0	 46	  5	  1	  2	  6	  2	  1	  2	  1	0.69212	  1	0.90000	  0	 12	 30	 31	  0	
07-May-2013	sub2336	2336	  1	  0	 47	  5	  1	  6	  4	  2	  0	  1	  1	0.71493	  0	0.90000	  0	 16	 47	 38	  0	
07-May-2013	sub2336	2336	  1	  0	 48	  5	  1	  5	  2	  2	  1	  2	  0	0.66335	  0	0.90000	  0	 15	 45	 46	  0	
07-May-2013	sub2336	2336	  1	  0	 49	  5	  1	  6	  4	  2	  1	  1	  0	0.58593	  0	0.90000	  0	 16	 45	 46	  0	
07-May-2013	sub2336	2336	  1	  0	 50	  5	  1	  3	  3	  2	  0	  1	  0	0.66664	  1	0.90000	  0	 13	 34	 49	  0	
07-May-2013	sub2336	2336	  1	  0	 51	  5	  1	  3	  3	  2	  1	  2	  0	0.44458	  0	0.90000	  0	 13	 42	 43	  1	
07-May-2013	sub2336	2336	  1	  0	 52	  5	  1	  1	  5	  2	  1	  1	  1	0.44040	  1	0.90000	  0	 11	 30	 31	  1	
07-May-2013	sub2336	2336	  1	  0	 53	  5	  1	  1	  5	  2	  1	  1	  1	0.51536	  1	0.90000	  0	 11	 30	 31	  0	
07-May-2013	sub2336	2336	  1	  0	 54	  5	  1	  3	  3	  2	  1	  2	  0	0.59340	  0	0.90000	  0	 13	 42	 43	  0	
07-May-2013	sub2336	2336	  1	  0	 55	  5	  1	  2	  6	  2	  1	  1	  0	0.51531	  0	0.90000	  0	 12	 40	 41	  0	
07-May-2013	sub2336	2336	  1	  0	 56	  5	  1	  2	  6	  2	  1	  2	  1	0.55033	  1	0.90000	  0	 12	 30	 31	  0	
07-May-2013	sub2336	2336	  1	  0	 57	  5	  1	  2	  6	  2	  1	  2	  1	0.52472	  1	0.90000	  0	 12	 30	 31	  0	
07-May-2013	sub2336	2336	  1	  0	 58	  5	  1	  5	  2	  2	  1	  2	  0	0.67518	  0	0.90000	  0	 15	 45	 46	  0	
07-May-2013	sub2336	2336	  1	  0	 59	  5	  1	  2	  6	  2	  1	  2	  1	0.74658	  1	0.80000	  0	 12	 30	 31	  0	
07-May-2013	sub2336	2336	  1	  0	 60	  5	  1	  4	  1	  1	  1	  2	  1	0.73604	  1	0.80000	  0	 14	 32	 33	  0	
07-May-2013	sub2336	2336	  1	  0	 61	  5	  1	  4	  1	  1	  1	  2	  1	0.49923	  1	0.80000	  0	 14	 32	 33	  1	
07-May-2013	sub2336	2336	  1	  0	 62	  5	  1	  5	  2	  2	  0	  2	  1	0.60296	  0	0.80000	  0	 15	 47	 38	  0	
07-May-2013	sub2336	2336	  1	  0	 63	  5	  1	  4	  1	  1	  0	  2	  0	0.63886	  1	0.80000	  0	 14	 34	 49	  0	
07-May-2013	sub2336	2336	  1	  0	 64	  5	  1	  1	  5	  2	  1	  2	  0	0.63484	  0	0.80000	  0	 11	 40	 41	  0	
07-May-2013	sub2336	2336	  1	  0	 65	  5	  1	  4	  1	  1	  1	  2	  1	0.56231	  1	0.80000	  0	 14	 32	 33	  0	
07-May-2013	sub2336	2336	  1	  0	 66	  5	  1	  4	  1	  1	  1	  2	  1	0.48153	  1	0.80000	  0	 14	 32	 33	  1	
07-May-2013	sub2336	2336	  1	  0	 67	  5	  1	  4	  1	  1	  0	  2	  0	0.46179	  1	0.80000	  0	 14	 34	 49	  1	
07-May-2013	sub2336	2336	  1	  0	 68	  5	  1	  2	  6	  2	  1	  2	  1	0.70280	  1	0.70000	  1	 12	 30	 51	  0	
07-May-2013	sub2336	2336	  1	  0	 69	  5	  1	  5	  2	  2	  0	  2	  1	0.76104	  0	0.90000	  0	 15	 47	 38	  0	
07-May-2013	sub2336	2336	  1	  0	 70	  5	  1	  6	  4	  2	  1	  1	  0	0.52222	  0	0.90000	  0	 16	 45	 46	  0	
07-May-2013	sub2336	2336	  1	  0	 71	  5	  1	  6	  4	  2	  0	  1	  1	0.45125	  0	0.90000	  0	 16	 47	 38	  1	
07-May-2013	sub2336	2336	  1	  0	 72	  5	  1	  2	  6	  2	  1	  2	  1	0.65833	  1	0.90000	  0	 12	 30	 31	  0	
07-May-2013	sub2336	2336	  1	  0	 73	  5	  1	  1	  5	  2	  1	  1	  1	0.63479	  1	0.80000	  0	 11	 30	 31	  0	
07-May-2013	sub2336	2336	  1	  0	 74	  5	  1	  3	  3	  2	  1	  2	  0	0.54972	  0	0.80000	  0	 13	 42	 43	  0	
07-May-2013	sub2336	2336	  1	  0	 75	  5	  1	  3	  3	  2	  1	  1	  1	0.60457	  1	0.80000	  0	 13	 32	 33	  0	
07-May-2013	sub2336	2336	  1	  0	 76	  5	  2	  5	  2	  2	  0	  2	  1	0.57996	  0	0.80000	  0	 25	 87	 68	  0	
07-May-2013	sub2336	2336	  1	  0	 77	  5	  2	  6	  4	  2	  0	  1	  1	0.51465	  0	0.80000	  0	 26	 87	 68	  0	
07-May-2013	sub2336	2336	  1	  0	 78	  5	  2	  1	  5	  2	  1	  1	  1	0.45788	  1	0.80000	  0	 21	 60	 61	  1	
07-May-2013	sub2336	2336	  1	  0	 79	  5	  2	  5	  2	  2	  0	  2	  1	0.47559	  0	0.80000	  0	 25	 87	 68	  1	
07-May-2013	sub2336	2336	  1	  0	 80	  5	  2	  1	  5	  2	  1	  1	  1	0.49688	  1	0.80000	  0	 21	 60	 61	  1	
07-May-2013	sub2336	2336	  1	  0	 81	  5	  2	  5	  2	  2	  0	  2	  1	0.75409	  0	0.80000	  0	 25	 87	 68	  0	
07-May-2013	sub2336	2336	  1	  0	 82	  5	  2	  6	  4	  2	  0	  1	  1	0.42071	  0	0.80000	  0	 26	 87	 68	  1	
07-May-2013	sub2336	2336	  1	  0	 83	  5	  2	  4	  1	  1	  0	  2	  0	0.65662	  1	0.80000	  0	 24	 64	 89	  0	
07-May-2013	sub2336	2336	  1	  0	 84	  5	  2	  5	  2	  2	  0	  2	  1	0.58322	  0	0.80000	  0	 25	 87	 68	  0	
07-May-2013	sub2336	2336	  1	  0	 85	  5	  2	  3	  3	  2	  0	  1	  0	0.49893	  1	0.70000	  0	 23	 64	 89	  1	
07-May-2013	sub2336	2336	  1	  0	 86	  5	  2	  2	  6	  2	  1	  2	  1	0.65486	  1	0.70000	  0	 22	 60	 61	  0	
07-May-2013	sub2336	2336	  1	  0	 87	  5	  2	  1	  5	  2	  1	  1	  1	0.50279	  1	0.70000	  0	 21	 60	 61	  0	
07-May-2013	sub2336	2336	  1	  0	 88	  5	  2	  5	  2	  2	  0	  2	  1	0.57451	  0	0.70000	  0	 25	 87	 68	  0	
07-May-2013	sub2336	2336	  1	  0	 89	  5	  2	  3	  3	  2	  1	  1	  1	0.60668	  1	0.70000	  0	 23	 62	 63	  0	
07-May-2013	sub2336	2336	  1	  0	 90	  5	  2	  4	  1	  1	  1	  2	  1	0.54746	  1	0.70000	  0	 24	 62	 63	  0	
07-May-2013	sub2336	2336	  1	  0	 91	  5	  2	  2	  6	  2	  1	  2	  1	0.64831	  1	0.70000	  0	 22	 60	 61	  0	
07-May-2013	sub2336	2336	  1	  0	 92	  5	  2	  5	  2	  2	  0	  2	  1	0.54153	  0	0.70000	  0	 25	 87	 68	  0	
07-May-2013	sub2336	2336	  1	  0	 93	  5	  2	  2	  6	  2	  1	  2	  1	0.54913	  1	0.70000	  0	 22	 60	 61	  0	
07-May-2013	sub2336	2336	  1	  0	 94	  5	  2	  2	  6	  2	  1	  2	  1	0.47463	  1	0.70000	  0	 22	 60	 61	  1	
07-May-2013	sub2336	2336	  1	  0	 95	  5	  2	  3	  3	  2	  1	  1	  1	0.56550	  1	0.70000	  0	 23	 62	 63	  0	
07-May-2013	sub2336	2336	  1	  0	 96	  5	  2	  6	  4	  2	  1	  1	  0	0.63544	  0	0.70000	  0	 26	 85	 86	  0	
07-May-2013	sub2336	2336	  1	  0	 97	  5	  2	  1	  5	  2	  1	  1	  1	0.67418	  1	0.70000	  0	 21	 60	 61	  0	
07-May-2013	sub2336	2336	  1	  0	 98	  5	  2	  4	  1	  1	  1	  2	  1	0.44563	  1	0.70000	  0	 24	 62	 63	  1	
07-May-2013	sub2336	2336	  1	  0	 99	  5	  2	  5	  2	  2	  0	  2	  1	0.57929	  0	0.70000	  0	 25	 87	 68	  0	
07-May-2013	sub2336	2336	  1	  0	100	  5	  2	  3	  3	  2	  1	  1	  1	0.57166	  1	0.70000	  0	 23	 62	 63	  0	
07-May-2013	sub2336	2336	  1	  0	101	  5	  2	  4	  1	  1	  1	  2	  1	0.55039	  1	0.60000	  0	 24	 62	 63	  0	
07-May-2013	sub2336	2336	  1	  0	102	  5	  2	  6	  4	  2	  1	  1	  0	0.52867	  0	0.60000	  0	 26	 85	 86	  0	
07-May-2013	sub2336	2336	  1	  0	103	  5	  2	  1	  5	  2	  1	  1	  1	0.48325	  1	0.60000	  0	 21	 60	 61	  1	
07-May-2013	sub2336	2336	  1	  0	104	  5	  2	  3	  3	  2	  1	  1	  1	0.42005	  1	0.60000	  0	 23	 62	 63	  1	
07-May-2013	sub2336	2336	  1	  0	105	  5	  2	  4	  1	  1	  1	  2	  1	0.53924	  1	0.60000	  0	 24	 62	 63	  0	
07-May-2013	sub2336	2336	  1	  0	106	  5	  2	  2	  6	  2	  1	  2	  1	0.53347	  1	0.60000	  0	 22	 60	 61	  0	
07-May-2013	sub2336	2336	  1	  0	107	  5	  2	  1	  5	  2	  1	  1	  1	0.64369	  1	0.60000	  1	 21	 60	 51	  0	
07-May-2013	sub2336	2336	  1	  0	108	  5	  2	  5	  2	  2	  0	  2	  1	0.55427	  0	0.70000	  0	 25	 87	 68	  0	
07-May-2013	sub2336	2336	  1	  0	109	  5	  2	  6	  4	  2	  1	  1	  0	0.41076	  0	0.70000	  0	 26	 85	 86	  1	
07-May-2013	sub2336	2336	  1	  0	110	  5	  2	  1	  5	  2	  1	  1	  1	0.43054	  1	0.70000	  0	 21	 60	 61	  1	
07-May-2013	sub2336	2336	  1	  0	111	  5	  2	  4	  1	  1	  1	  2	  1	0.61153	  1	0.70000	  0	 24	 62	 63	  0	
07-May-2013	sub2336	2336	  1	  0	112	  5	  2	  2	  6	  2	  1	  2	  1	0.55527	  1	0.70000	  0	 22	 60	 61	  0	
07-May-2013	sub2336	2336	  1	  0	113	  5	  2	  3	  3	  2	  1	  1	  1	0.55647	  1	0.70000	  0	 23	 62	 63	  0	
07-May-2013	sub2336	2336	  1	  0	114	  5	  2	  3	  3	  2	  1	  1	  1	0.51687	  1	0.70000	  0	 23	 62	 63	  0	
07-May-2013	sub2336	2336	  1	  0	115	  5	  2	  1	  5	  2	  1	  1	  1	0.51203	  1	0.70000	  0	 21	 60	 61	  0	
07-May-2013	sub2336	2336	  1	  0	116	  5	  2	  1	  5	  2	  1	  1	  1	0.65922	  1	0.70000	  0	 21	 60	 61	  0	
07-May-2013	sub2336	2336	  1	  0	117	  5	  2	  2	  6	  2	  1	  2	  1	0.78874	  1	0.70000	  1	 22	 60	 51	  0	
07-May-2013	sub2336	2336	  1	  0	118	  5	  2	  3	  3	  2	  1	  1	  1	0.58935	  1	0.70000	  0	 23	 62	 63	  0	
07-May-2013	sub2336	2336	  1	  0	119	  5	  2	  6	  4	  2	  0	  1	  1	0.50698	  0	0.70000	  0	 26	 87	 68	  0	
07-May-2013	sub2336	2336	  1	  0	120	  5	  2	  6	  4	  2	  0	  1	  1	0.47463	  0	0.70000	  0	 26	 87	 68	  1	
07-May-2013	sub2336	2336	  1	  0	121	  5	  2	  2	  6	  2	  1	  2	  1	0.76249	  1	0.70000	  1	 22	 60	 51	  0	
07-May-2013	sub2336	2336	  1	  0	122	  5	  2	  4	  1	  1	  1	  1	  0	0.40979	  0	0.80000	  0	 24	 82	 83	  1	
07-May-2013	sub2336	2336	  1	  0	123	  5	  2	  2	  6	  2	  1	  2	  1	0.50135	  1	0.80000	  0	 22	 60	 61	  0	
07-May-2013	sub2336	2336	  1	  0	124	  5	  2	  2	  6	  2	  1	  2	  1	0.49109	  1	0.80000	  0	 22	 60	 61	  1	
07-May-2013	sub2336	2336	  1	  0	125	  5	  2	  3	  3	  2	  1	  1	  1	0.49401	  1	0.80000	  0	 23	 62	 63	  1	
07-May-2013	sub2336	2336	  1	  0	126	  5	  2	  6	  4	  2	  1	  1	  0	0.51518	  0	0.80000	  0	 26	 85	 86	  0	
07-May-2013	sub2336	2336	  1	  0	127	  5	  2	  4	  1	  1	  1	  2	  1	0.83122	  1	0.80000	  1	 24	 62	 51	  0	
07-May-2013	sub2336	2336	  1	  0	128	  5	  2	  5	  2	  2	  0	  2	  1	0.57898	  0	0.90000	  0	 25	 87	 68	  0	
07-May-2013	sub2336	2336	  1	  0	129	  5	  2	  3	  3	  2	  1	  1	  1	0.69944	  1	0.90000	  0	 23	 62	 63	  0	
07-May-2013	sub2336	2336	  1	  0	130	  5	  2	  5	  2	  2	  0	  2	  1	0.57582	  0	0.80000	  0	 25	 87	 68	  0	
07-May-2013	sub2336	2336	  1	  0	131	  5	  2	  4	  1	  1	  1	  2	  1	0.78453	  1	0.80000	  0	 24	 62	 63	  0	
07-May-2013	sub2336	2336	  1	  0	132	  5	  2	  5	  2	  2	  0	  2	  1	0.49616	  0	0.80000	  0	 25	 87	 68	  1	
07-May-2013	sub2336	2336	  1	  0	133	  5	  2	  5	  2	  2	  0	  2	  1	0.47246	  0	0.80000	  0	 25	 87	 68	  1	
07-May-2013	sub2336	2336	  1	  0	134	  5	  2	  4	  1	  1	  1	  2	  1	0.72518	  1	0.80000	  0	 24	 62	 63	  0	
07-May-2013	sub2336	2336	  1	  0	135	  5	  2	  4	  1	  1	  1	  2	  1	0.53948	  1	0.80000	  0	 24	 62	 63	  0	
07-May-2013	sub2336	2336	  1	  0	136	  5	  2	  1	  5	  2	  1	  1	  1	0.67411	  1	0.80000	  0	 21	 60	 61	  0	
07-May-2013	sub2336	2336	  1	  0	137	  5	  2	  1	  5	  2	  1	  1	  1	0.41318	  1	0.80000	  0	 21	 60	 61	  1	
07-May-2013	sub2336	2336	  1	  0	138	  5	  2	  6	  4	  2	  0	  1	  1	0.42362	  0	0.80000	  0	 26	 87	 68	  1	
07-May-2013	sub2336	2336	  1	  0	139	  5	  2	  6	  4	  2	  0	  1	  1	0.46478	  0	0.80000	  0	 26	 87	 68	  1	
07-May-2013	sub2336	2336	  1	  0	140	  5	  2	  2	  6	  2	  1	  2	  1	0.65629	  1	0.80000	  0	 22	 60	 61	  0	
07-May-2013	sub2336	2336	  1	  0	141	  5	  2	  2	  6	  2	  1	  2	  1	0.59798	  1	0.80000	  0	 22	 60	 61	  0	
07-May-2013	sub2336	2336	  1	  0	142	  5	  2	  6	  4	  2	  1	  1	  0	0.70103	  0	0.80000	  0	 26	 85	 86	  0	
07-May-2013	sub2336	2336	  1	  0	143	  5	  2	  5	  2	  2	  0	  2	  1	0.60666	  0	0.80000	  0	 25	 87	 68	  0	
07-May-2013	sub2336	2336	  1	  0	144	  5	  2	  3	  3	  2	  1	  1	  1	0.57164	  1	0.80000	  0	 23	 62	 63	  0	
07-May-2013	sub2336	2336	  1	  0	145	  5	  2	  1	  5	  2	  1	  1	  1	0.57864	  1	0.80000	  0	 21	 60	 61	  0	
07-May-2013	sub2336	2336	  1	  0	146	  5	  2	  4	  1	  1	  0	  2	  0	0.65403	  1	0.80000	  0	 24	 64	 89	  0	
07-May-2013	sub2336	2336	  1	  0	147	  5	  2	  1	  5	  2	  1	  2	  0	0.54369	  0	0.80000	  0	 21	 80	 81	  0	
07-May-2013	sub2336	2336	  1	  0	148	  5	  2	  6	  4	  2	  1	  1	  0	0.59579	  0	0.80000	  0	 26	 85	 86	  0	
07-May-2013	sub2336	2336	  1	  0	149	  5	  2	  4	  1	  1	  0	  2	  0	0.71889	  1	0.80000	  0	 24	 64	 89	  0	
07-May-2013	sub2336	2336	  1	  0	150	  5	  2	  3	  3	  2	  0	  1	  0	0.49916	  1	0.80000	  0	 23	 64	 89	  1	
07-May-2013	sub2336	2336	  1	  0	  1	  6	  1	  6	  6	  5	  0	  2	  0	0.50393	  1	0.60000	  0	 16	 37	 48	  0	
07-May-2013	sub2336	2336	  1	  0	  2	  6	  1	  2	  4	  1	  1	  2	  1	0.54531	  1	0.30000	  1	 12	 30	 51	  0	
07-May-2013	sub2336	2336	  1	  0	  3	  6	  1	  2	  4	  1	  1	  2	  1	0.42963	  1	0.90000	  0	 12	 30	 31	  1	
07-May-2013	sub2336	2336	  1	  0	  4	  6	  1	  3	  2	  4	  1	  2	  0	0.64018	  0	0.90000	  0	 13	 42	 43	  0	
07-May-2013	sub2336	2336	  1	  0	  5	  6	  1	  2	  4	  1	  1	  2	  1	0.57205	  1	0.90000	  0	 12	 30	 31	  0	
07-May-2013	sub2336	2336	  1	  0	  6	  6	  1	  5	  1	  3	  1	  2	  0	0.64551	  0	0.90000	  0	 15	 45	 46	  0	
07-May-2013	sub2336	2336	  1	  0	  7	  6	  1	  5	  1	  3	  1	  1	  1	0.59676	  1	0.90000	  0	 15	 35	 36	  0	
07-May-2013	sub2336	2336	  1	  0	  8	  6	  1	  5	  1	  3	  1	  1	  1	0.48643	  1	0.90000	  0	 15	 35	 36	  1	
07-May-2013	sub2336	2336	  1	  0	  9	  6	  1	  4	  5	  5	  1	  2	  1	0.57502	  1	0.90000	  0	 14	 32	 33	  0	
07-May-2013	sub2336	2336	  1	  0	 10	  6	  1	  1	  3	  4	  1	  2	  0	0.62324	  0	0.90000	  0	 11	 40	 41	  0	
07-May-2013	sub2336	2336	  1	  0	 11	  6	  1	  4	  5	  5	  1	  1	  0	0.50025	  0	0.90000	  0	 14	 42	 43	  1	
07-May-2013	sub2336	2336	  1	  0	 12	  6	  1	  6	  6	  5	  0	  1	  1	0.77312	  0	0.90000	  0	 16	 47	 38	  0	
07-May-2013	sub2336	2336	  1	  0	 13	  6	  1	  6	  6	  5	  1	  1	  0	0.58111	  0	0.90000	  0	 16	 45	 46	  0	
07-May-2013	sub2336	2336	  1	  0	 14	  6	  1	  3	  2	  4	  1	  2	  0	0.79043	  0	0.90000	  0	 13	 42	 43	  0	
07-May-2013	sub2336	2336	  1	  0	 15	  6	  1	  1	  3	  4	  1	  2	  0	0.74570	  0	0.90000	  0	 11	 40	 41	  0	
07-May-2013	sub2336	2336	  1	  0	 16	  6	  1	  4	  5	  5	  1	  1	  0	0.52309	  0	0.80000	  0	 14	 42	 43	  0	
07-May-2013	sub2336	2336	  1	  0	 17	  6	  1	  1	  3	  4	  1	  1	  1	0.55965	  1	0.80000	  0	 11	 30	 31	  0	
07-May-2013	sub2336	2336	  1	  0	 18	  6	  1	  1	  3	  4	  1	  1	  1	0.56165	  1	0.70000	  0	 11	 30	 31	  0	
07-May-2013	sub2336	2336	  1	  0	 19	  6	  1	  5	  1	  3	  0	  2	  1	0.94766	  0	0.70000	  1	 15	 47	 51	  0	
07-May-2013	sub2336	2336	  1	  0	 20	  6	  1	  2	  4	  1	  1	  2	  1	0.60510	  1	0.90000	  0	 12	 30	 31	  0	
07-May-2013	sub2336	2336	  1	  0	 21	  6	  1	  1	  3	  4	  1	  1	  1	0.63189	  1	0.90000	  0	 11	 30	 31	  0	
07-May-2013	sub2336	2336	  1	  0	 22	  6	  1	  1	  3	  4	  1	  1	  1	0.51084	  1	0.90000	  0	 11	 30	 31	  0	
07-May-2013	sub2336	2336	  1	  0	 23	  6	  1	  4	  5	  5	  1	  2	  1	0.59323	  1	0.90000	  0	 14	 32	 33	  0	
07-May-2013	sub2336	2336	  1	  0	 24	  6	  1	  5	  1	  3	  0	  1	  0	0.59390	  1	0.90000	  0	 15	 37	 48	  0	
07-May-2013	sub2336	2336	  1	  0	 25	  6	  1	  3	  2	  4	  1	  1	  1	0.74945	  1	0.90000	  0	 13	 32	 33	  0	
07-May-2013	sub2336	2336	  1	  0	 26	  6	  1	  5	  1	  3	  1	  1	  1	0.59845	  1	0.90000	  0	 15	 35	 36	  0	
07-May-2013	sub2336	2336	  1	  0	 27	  6	  1	  1	  3	  4	  1	  1	  1	0.55417	  1	0.90000	  0	 11	 30	 31	  0	
07-May-2013	sub2336	2336	  1	  0	 28	  6	  1	  4	  5	  5	  1	  2	  1	0.58634	  1	0.90000	  0	 14	 32	 33	  0	
07-May-2013	sub2336	2336	  1	  0	 29	  6	  1	  2	  4	  1	  1	  2	  1	0.54402	  1	0.90000	  0	 12	 30	 31	  0	
07-May-2013	sub2336	2336	  1	  0	 30	  6	  1	  2	  4	  1	  1	  2	  1	0.75357	  1	0.80000	  0	 12	 30	 31	  0	
07-May-2013	sub2336	2336	  1	  0	 31	  6	  1	  5	  1	  3	  1	  1	  1	0.68573	  1	0.80000	  0	 15	 35	 36	  0	
07-May-2013	sub2336	2336	  1	  0	 32	  6	  1	  2	  4	  1	  1	  1	  0	0.45057	  0	0.80000	  0	 12	 40	 41	  1	
07-May-2013	sub2336	2336	  1	  0	 33	  6	  1	  6	  6	  5	  1	  2	  1	0.56871	  1	0.80000	  0	 16	 35	 36	  0	
07-May-2013	sub2336	2336	  1	  0	 34	  6	  1	  3	  2	  4	  0	  1	  0	0.58713	  1	0.80000	  0	 13	 34	 49	  0	
07-May-2013	sub2336	2336	  1	  0	 35	  6	  1	  2	  4	  1	  1	  2	  1	0.69399	  1	0.70000	  0	 12	 30	 31	  0	
07-May-2013	sub2336	2336	  1	  0	 36	  6	  1	  5	  1	  3	  0	  1	  0	0.59906	  1	0.70000	  0	 15	 37	 48	  0	
07-May-2013	sub2336	2336	  1	  0	 37	  6	  1	  3	  2	  4	  0	  1	  0	0.77168	  1	0.70000	  1	 13	 34	 51	  0	
07-May-2013	sub2336	2336	  1	  0	 38	  6	  1	  3	  2	  4	  1	  1	  1	0.50648	  1	0.90000	  0	 13	 32	 33	  0	
07-May-2013	sub2336	2336	  1	  0	 39	  6	  1	  3	  2	  4	  1	  1	  1	0.53847	  1	0.90000	  0	 13	 32	 33	  0	
07-May-2013	sub2336	2336	  1	  0	 40	  6	  1	  4	  5	  5	  1	  2	  1	0.62469	  1	0.90000	  0	 14	 32	 33	  0	
07-May-2013	sub2336	2336	  1	  0	 41	  6	  1	  6	  6	  5	  0	  2	  0	0.44186	  1	0.90000	  0	 16	 37	 48	  1	
07-May-2013	sub2336	2336	  1	  0	 42	  6	  1	  3	  2	  4	  1	  1	  1	0.57249	  1	0.90000	  0	 13	 32	 33	  0	
07-May-2013	sub2336	2336	  1	  0	 43	  6	  1	  5	  1	  3	  1	  1	  1	0.55026	  1	0.90000	  0	 15	 35	 36	  0	
07-May-2013	sub2336	2336	  1	  0	 44	  6	  1	  2	  4	  1	  1	  2	  1	0.63411	  1	0.80000	  0	 12	 30	 31	  0	
07-May-2013	sub2336	2336	  1	  0	 45	  6	  1	  6	  6	  5	  0	  1	  1	0.58555	  0	0.80000	  0	 16	 47	 38	  0	
07-May-2013	sub2336	2336	  1	  0	 46	  6	  1	  4	  5	  5	  1	  2	  1	0.56811	  1	0.80000	  0	 14	 32	 33	  0	
07-May-2013	sub2336	2336	  1	  0	 47	  6	  1	  6	  6	  5	  1	  2	  1	0.78415	  1	0.80000	  0	 16	 35	 36	  0	
07-May-2013	sub2336	2336	  1	  0	 48	  6	  1	  4	  5	  5	  0	  2	  0	0.96257	  1	0.80000	  1	 14	 34	 51	  0	
07-May-2013	sub2336	2336	  1	  0	 49	  6	  1	  6	  6	  5	  0	  1	  1	0.64020	  0	0.90000	  0	 16	 47	 38	  0	
07-May-2013	sub2336	2336	  1	  0	 50	  6	  1	  3	  2	  4	  1	  1	  1	0.56807	  1	0.90000	  0	 13	 32	 33	  0	
07-May-2013	sub2336	2336	  1	  0	 51	  6	  1	  3	  2	  4	  0	  1	  0	0.45815	  1	0.90000	  0	 13	 34	 49	  1	
07-May-2013	sub2336	2336	  1	  0	 52	  6	  1	  2	  4	  1	  1	  2	  1	0.42426	  1	0.90000	  0	 12	 30	 31	  1	
07-May-2013	sub2336	2336	  1	  0	 53	  6	  1	  6	  6	  5	  0	  1	  1	0.63626	  0	0.90000	  0	 16	 47	 38	  0	
07-May-2013	sub2336	2336	  1	  0	 54	  6	  1	  1	  3	  4	  1	  1	  1	0.64023	  1	0.90000	  0	 11	 30	 31	  0	
07-May-2013	sub2336	2336	  1	  0	 55	  6	  1	  2	  4	  1	  1	  2	  1	0.58713	  1	0.90000	  0	 12	 30	 31	  0	
07-May-2013	sub2336	2336	  1	  0	 56	  6	  1	  6	  6	  5	  1	  1	  0	0.61834	  0	0.90000	  0	 16	 45	 46	  0	
07-May-2013	sub2336	2336	  1	  0	 57	  6	  1	  5	  1	  3	  0	  1	  0	0.67346	  1	0.90000	  0	 15	 37	 48	  0	
07-May-2013	sub2336	2336	  1	  0	 58	  6	  1	  4	  5	  5	  1	  2	  1	0.46502	  1	0.90000	  0	 14	 32	 33	  1	
07-May-2013	sub2336	2336	  1	  0	 59	  6	  1	  1	  3	  4	  1	  1	  1	0.55088	  1	0.80000	  0	 11	 30	 31	  0	
07-May-2013	sub2336	2336	  1	  0	 60	  6	  1	  5	  1	  3	  1	  1	  1	0.52310	  1	0.80000	  0	 15	 35	 36	  0	
07-May-2013	sub2336	2336	  1	  0	 61	  6	  1	  5	  1	  3	  0	  1	  0	0.52288	  1	0.80000	  0	 15	 37	 48	  0	
07-May-2013	sub2336	2336	  1	  0	 62	  6	  1	  3	  2	  4	  1	  1	  1	0.60378	  1	0.80000	  0	 13	 32	 33	  0	
07-May-2013	sub2336	2336	  1	  0	 63	  6	  1	  3	  2	  4	  1	  1	  1	0.50233	  1	0.80000	  0	 13	 32	 33	  0	
07-May-2013	sub2336	2336	  1	  0	 64	  6	  1	  1	  3	  4	  1	  1	  1	0.54285	  1	0.80000	  0	 11	 30	 31	  0	
07-May-2013	sub2336	2336	  1	  0	 65	  6	  1	  4	  5	  5	  1	  2	  1	0.59575	  1	0.80000	  0	 14	 32	 33	  0	
07-May-2013	sub2336	2336	  1	  0	 66	  6	  1	  1	  3	  4	  1	  1	  1	0.62669	  1	0.80000	  0	 11	 30	 31	  0	
07-May-2013	sub2336	2336	  1	  0	 67	  6	  1	  1	  3	  4	  1	  1	  1	0.47177	  1	0.80000	  0	 11	 30	 31	  1	
07-May-2013	sub2336	2336	  1	  0	 68	  6	  1	  2	  4	  1	  1	  2	  1	0.61847	  1	0.70000	  0	 12	 30	 31	  0	
07-May-2013	sub2336	2336	  1	  0	 69	  6	  1	  4	  5	  5	  0	  2	  0	0.61443	  1	0.70000	  0	 14	 34	 49	  0	
07-May-2013	sub2336	2336	  1	  0	 70	  6	  1	  6	  6	  5	  1	  1	  0	0.56179	  0	0.70000	  0	 16	 45	 46	  0	
07-May-2013	sub2336	2336	  1	  0	 71	  6	  1	  3	  2	  4	  1	  1	  1	0.70907	  1	0.70000	  1	 13	 32	 51	  0	
07-May-2013	sub2336	2336	  1	  0	 72	  6	  1	  4	  5	  5	  1	  2	  1	0.60075	  1	0.90000	  0	 14	 32	 33	  0	
07-May-2013	sub2336	2336	  1	  0	 73	  6	  1	  6	  6	  5	  0	  1	  1	0.61482	  0	0.80000	  0	 16	 47	 38	  0	
07-May-2013	sub2336	2336	  1	  0	 74	  6	  1	  6	  6	  5	  1	  1	  0	0.55449	  0	0.80000	  0	 16	 45	 46	  0	
07-May-2013	sub2336	2336	  1	  0	 75	  6	  1	  2	  4	  1	  1	  1	  0	0.57525	  0	0.80000	  0	 12	 40	 41	  0	
07-May-2013	sub2336	2336	  1	  0	 76	  6	  2	  3	  2	  4	  1	  1	  1	0.54454	  1	0.80000	  0	 23	 62	 63	  0	
07-May-2013	sub2336	2336	  1	  0	 77	  6	  2	  6	  6	  5	  0	  1	  1	0.62198	  0	0.80000	  0	 26	 87	 68	  0	
07-May-2013	sub2336	2336	  1	  0	 78	  6	  2	  4	  5	  5	  1	  2	  1	0.47967	  1	0.80000	  0	 24	 62	 63	  1	
07-May-2013	sub2336	2336	  1	  0	 79	  6	  2	  1	  3	  4	  1	  1	  1	0.81335	  1	0.80000	  1	 21	 60	 51	  0	
07-May-2013	sub2336	2336	  1	  0	 80	  6	  2	  3	  2	  4	  1	  2	  0	0.57641	  0	0.90000	  0	 23	 82	 83	  0	
07-May-2013	sub2336	2336	  1	  0	 81	  6	  2	  6	  6	  5	  0	  1	  1	0.75189	  0	0.90000	  0	 26	 87	 68	  0	
07-May-2013	sub2336	2336	  1	  0	 82	  6	  2	  5	  1	  3	  0	  1	  0	0.62765	  1	0.90000	  0	 25	 67	 88	  0	
07-May-2013	sub2336	2336	  1	  0	 83	  6	  2	  6	  6	  5	  1	  1	  0	0.57064	  0	0.90000	  0	 26	 85	 86	  0	
07-May-2013	sub2336	2336	  1	  0	 84	  6	  2	  2	  4	  1	  1	  2	  1	0.54590	  1	0.90000	  0	 22	 60	 61	  0	
07-May-2013	sub2336	2336	  1	  0	 85	  6	  2	  5	  1	  3	  0	  1	  0	0.64522	  1	0.90000	  0	 25	 67	 88	  0	
07-May-2013	sub2336	2336	  1	  0	 86	  6	  2	  4	  5	  5	  0	  2	  0	0.66626	  1	0.90000	  0	 24	 64	 89	  0	
07-May-2013	sub2336	2336	  1	  0	 87	  6	  2	  3	  2	  4	  0	  1	  0	0.58959	  1	0.80000	  0	 23	 64	 89	  0	
07-May-2013	sub2336	2336	  1	  0	 88	  6	  2	  4	  5	  5	  0	  2	  0	0.59280	  1	0.80000	  0	 24	 64	 89	  0	
07-May-2013	sub2336	2336	  1	  0	 89	  6	  2	  4	  5	  5	  1	  2	  1	0.52770	  1	0.80000	  0	 24	 62	 63	  0	
07-May-2013	sub2336	2336	  1	  0	 90	  6	  2	  1	  3	  4	  1	  1	  1	0.60720	  1	0.80000	  0	 21	 60	 61	  0	
07-May-2013	sub2336	2336	  1	  0	 91	  6	  2	  6	  6	  5	  0	  1	  1	0.68182	  0	0.80000	  0	 26	 87	 68	  0	
07-May-2013	sub2336	2336	  1	  0	 92	  6	  2	  2	  4	  1	  1	  2	  1	0.63532	  1	0.80000	  0	 22	 60	 61	  0	
07-May-2013	sub2336	2336	  1	  0	 93	  6	  2	  4	  5	  5	  0	  2	  0	0.52281	  1	0.80000	  0	 24	 64	 89	  0	
07-May-2013	sub2336	2336	  1	  0	 94	  6	  2	  6	  6	  5	  0	  1	  1	0.55248	  0	0.80000	  0	 26	 87	 68	  0	
07-May-2013	sub2336	2336	  1	  0	 95	  6	  2	  3	  2	  4	  0	  1	  0	0.61983	  1	0.80000	  0	 23	 64	 89	  0	
07-May-2013	sub2336	2336	  1	  0	 96	  6	  2	  3	  2	  4	  1	  1	  1	0.61219	  1	0.80000	  0	 23	 62	 63	  0	
07-May-2013	sub2336	2336	  1	  0	 97	  6	  2	  3	  2	  4	  1	  1	  1	0.59925	  1	0.80000	  0	 23	 62	 63	  0	
07-May-2013	sub2336	2336	  1	  0	 98	  6	  2	  4	  5	  5	  1	  2	  1	0.53160	  1	0.80000	  0	 24	 62	 63	  0	
07-May-2013	sub2336	2336	  1	  0	 99	  6	  2	  6	  6	  5	  1	  1	  0	0.54789	  0	0.80000	  0	 26	 85	 86	  0	
07-May-2013	sub2336	2336	  1	  0	100	  6	  2	  5	  1	  3	  0	  1	  0	0.55474	  1	0.80000	  0	 25	 67	 88	  0	
07-May-2013	sub2336	2336	  1	  0	101	  6	  2	  5	  1	  3	  0	  1	  0	0.61350	  1	0.70000	  0	 25	 67	 88	  0	
07-May-2013	sub2336	2336	  1	  0	102	  6	  2	  5	  1	  3	  0	  1	  0	0.39532	  1	0.70000	  0	 25	 67	 88	  1	
07-May-2013	sub2336	2336	  1	  0	103	  6	  2	  1	  3	  4	  1	  1	  1	0.63444	  1	0.70000	  0	 21	 60	 61	  0	
07-May-2013	sub2336	2336	  1	  0	104	  6	  2	  6	  6	  5	  0	  1	  1	0.80982	  0	0.70000	  1	 26	 87	 51	  0	
07-May-2013	sub2336	2336	  1	  0	105	  6	  2	  2	  4	  1	  1	  2	  1	0.64960	  1	0.80000	  0	 22	 60	 61	  0	
07-May-2013	sub2336	2336	  1	  0	106	  6	  2	  1	  3	  4	  1	  1	  1	0.50448	  1	0.80000	  0	 21	 60	 61	  0	
07-May-2013	sub2336	2336	  1	  0	107	  6	  2	  1	  3	  4	  1	  1	  1	0.51984	  1	0.80000	  0	 21	 60	 61	  0	
07-May-2013	sub2336	2336	  1	  0	108	  6	  2	  4	  5	  5	  1	  2	  1	0.63893	  1	0.80000	  0	 24	 62	 63	  0	
07-May-2013	sub2336	2336	  1	  0	109	  6	  2	  2	  4	  1	  1	  2	  1	0.78475	  1	0.80000	  0	 22	 60	 61	  0	
07-May-2013	sub2336	2336	  1	  0	110	  6	  2	  6	  6	  5	  1	  1	  0	0.67274	  0	0.80000	  0	 26	 85	 86	  0	
07-May-2013	sub2336	2336	  1	  0	111	  6	  2	  5	  1	  3	  0	  1	  0	0.66064	  1	0.80000	  0	 25	 67	 88	  0	
07-May-2013	sub2336	2336	  1	  0	112	  6	  2	  1	  3	  4	  1	  2	  0	0.52622	  0	0.80000	  0	 21	 80	 81	  0	
07-May-2013	sub2336	2336	  1	  0	113	  6	  2	  5	  1	  3	  0	  1	  0	0.38875	  1	0.80000	  0	 25	 67	 88	  1	
07-May-2013	sub2336	2336	  1	  0	114	  6	  2	  6	  6	  5	  0	  1	  1	0.62030	  0	0.80000	  0	 26	 87	 68	  0	
07-May-2013	sub2336	2336	  1	  0	115	  6	  2	  2	  4	  1	  1	  2	  1	0.59932	  1	0.80000	  0	 22	 60	 61	  0	
07-May-2013	sub2336	2336	  1	  0	116	  6	  2	  5	  1	  3	  0	  2	  1	0.41146	  0	0.80000	  0	 25	 87	 68	  1	
07-May-2013	sub2336	2336	  1	  0	117	  6	  2	  1	  3	  4	  1	  1	  1	0.52528	  1	0.80000	  0	 21	 60	 61	  0	
07-May-2013	sub2336	2336	  1	  0	118	  6	  2	  3	  2	  4	  1	  1	  1	0.51006	  1	0.70000	  0	 23	 62	 63	  0	
07-May-2013	sub2336	2336	  1	  0	119	  6	  2	  5	  1	  3	  0	  2	  1	0.44732	  0	0.70000	  0	 25	 87	 68	  1	
07-May-2013	sub2336	2336	  1	  0	120	  6	  2	  2	  4	  1	  1	  2	  1	0.63666	  1	0.70000	  0	 22	 60	 61	  0	
07-May-2013	sub2336	2336	  1	  0	121	  6	  2	  4	  5	  5	  1	  2	  1	0.54626	  1	0.70000	  0	 24	 62	 63	  0	
07-May-2013	sub2336	2336	  1	  0	122	  6	  2	  6	  6	  5	  1	  1	  0	0.72138	  0	0.70000	  1	 26	 85	 51	  0	
07-May-2013	sub2336	2336	  1	  0	123	  6	  2	  4	  5	  5	  1	  2	  1	0.57170	  1	0.80000	  0	 24	 62	 63	  0	
07-May-2013	sub2336	2336	  1	  0	124	  6	  2	  5	  1	  3	  0	  2	  1	0.44909	  0	0.80000	  0	 25	 87	 68	  1	
07-May-2013	sub2336	2336	  1	  0	125	  6	  2	  6	  6	  5	  1	  1	  0	0.60812	  0	0.80000	  0	 26	 85	 86	  0	
07-May-2013	sub2336	2336	  1	  0	126	  6	  2	  5	  1	  3	  0	  2	  1	0.58231	  0	0.80000	  0	 25	 87	 68	  0	
07-May-2013	sub2336	2336	  1	  0	127	  6	  2	  5	  1	  3	  0	  2	  1	0.54937	  0	0.80000	  0	 25	 87	 68	  0	
07-May-2013	sub2336	2336	  1	  0	128	  6	  2	  5	  1	  3	  0	  2	  1	0.72575	  0	0.80000	  0	 25	 87	 68	  0	
07-May-2013	sub2336	2336	  1	  0	129	  6	  2	  4	  5	  5	  1	  2	  1	0.48618	  1	0.80000	  0	 24	 62	 63	  1	
07-May-2013	sub2336	2336	  1	  0	130	  6	  2	  3	  2	  4	  1	  1	  1	0.67773	  1	0.80000	  0	 23	 62	 63	  0	
07-May-2013	sub2336	2336	  1	  0	131	  6	  2	  3	  2	  4	  1	  1	  1	0.51799	  1	0.80000	  0	 23	 62	 63	  0	
07-May-2013	sub2336	2336	  1	  0	132	  6	  2	  2	  4	  1	  1	  2	  1	0.53617	  1	0.80000	  0	 22	 60	 61	  0	
07-May-2013	sub2336	2336	  1	  0	133	  6	  2	  6	  6	  5	  1	  1	  0	0.59814	  0	0.80000	  0	 26	 85	 86	  0	
07-May-2013	sub2336	2336	  1	  0	134	  6	  2	  4	  5	  5	  1	  2	  1	0.58140	  1	0.80000	  0	 24	 62	 63	  0	
07-May-2013	sub2336	2336	  1	  0	135	  6	  2	  2	  4	  1	  1	  2	  1	0.62619	  1	0.70000	  0	 22	 60	 61	  0	
07-May-2013	sub2336	2336	  1	  0	136	  6	  2	  2	  4	  1	  1	  2	  1	0.48972	  1	0.70000	  0	 22	 60	 61	  1	
07-May-2013	sub2336	2336	  1	  0	137	  6	  2	  1	  3	  4	  1	  1	  1	0.86061	  1	0.70000	  1	 21	 60	 51	  0	
07-May-2013	sub2336	2336	  1	  0	138	  6	  2	  1	  3	  4	  1	  1	  1	0.39673	  1	0.80000	  0	 21	 60	 61	  1	
07-May-2013	sub2336	2336	  1	  0	139	  6	  2	  3	  2	  4	  1	  2	  0	0.74684	  0	0.80000	  0	 23	 82	 83	  0	
07-May-2013	sub2336	2336	  1	  0	140	  6	  2	  3	  2	  4	  1	  1	  1	0.42498	  1	0.80000	  0	 23	 62	 63	  1	
07-May-2013	sub2336	2336	  1	  0	141	  6	  2	  3	  2	  4	  1	  1	  1	0.49039	  1	0.80000	  0	 23	 62	 63	  1	
07-May-2013	sub2336	2336	  1	  0	142	  6	  2	  1	  3	  4	  1	  1	  1	0.43475	  1	0.80000	  0	 21	 60	 61	  1	
07-May-2013	sub2336	2336	  1	  0	143	  6	  2	  1	  3	  4	  1	  1	  1	0.41625	  1	0.80000	  0	 21	 60	 61	  1	
07-May-2013	sub2336	2336	  1	  0	144	  6	  2	  2	  4	  1	  1	  2	  1	0.67381	  1	0.80000	  0	 22	 60	 61	  0	
07-May-2013	sub2336	2336	  1	  0	145	  6	  2	  4	  5	  5	  1	  2	  1	0.51958	  1	0.80000	  0	 24	 62	 63	  0	
07-May-2013	sub2336	2336	  1	  0	146	  6	  2	  2	  4	  1	  1	  2	  1	0.56241	  1	0.80000	  0	 22	 60	 61	  0	
07-May-2013	sub2336	2336	  1	  0	147	  6	  2	  1	  3	  4	  1	  1	  1	0.49434	  1	0.80000	  0	 21	 60	 61	  1	
07-May-2013	sub2336	2336	  1	  0	148	  6	  2	  4	  5	  5	  1	  2	  1	0.60492	  1	0.80000	  0	 24	 62	 63	  0	
07-May-2013	sub2336	2336	  1	  0	149	  6	  2	  2	  4	  1	  1	  2	  1	0.62895	  1	0.80000	  0	 22	 60	 61	  0	
07-May-2013	sub2336	2336	  1	  0	150	  6	  2	  1	  3	  4	  1	  2	  0	0.70213	  0	0.80000	  0	 21	 80	 81	  0	
