Date 	 Name 	 ID 	 Gender 	 Appearance 	 Trial 	 Block 	 Bin 	 Condition 	 Category 	 Number 	 Valid 	 Keypress 	 Correct 	 RT 	 Realcorrect 	 Deadline 	 Timeout 	 Stimtrigger 	 Resptrigger 	 Fedtrigger 	 WithinTime 	 
07-May-2013	sub2337	2337	  2	  1	  1	  1	  1	  5	  3	  1	  0	  1	  0	2.30389	  1	0.60000	  1	 15	 37	 51	  0	
07-May-2013	sub2337	2337	  2	  1	  2	  1	  1	  2	  6	  1	  1	  1	  0	0.14864	  0	0.90000	  0	 12	 40	 41	  1	
07-May-2013	sub2337	2337	  2	  1	  3	  1	  1	  3	  1	  2	  1	  1	  1	0.63719	  1	0.90000	  0	 13	 32	 33	  0	
07-May-2013	sub2337	2337	  2	  1	  4	  1	  1	  6	  2	  3	  1	  2	  1	0.65964	  1	0.90000	  0	 16	 35	 36	  0	
07-May-2013	sub2337	2337	  2	  1	  5	  1	  1	  1	  4	  1	  1	  1	  1	0.66045	  1	0.90000	  0	 11	 30	 31	  0	
07-May-2013	sub2337	2337	  2	  1	  6	  1	  1	  5	  3	  1	  1	  1	  1	0.76872	  1	0.90000	  0	 15	 35	 36	  0	
07-May-2013	sub2337	2337	  2	  1	  7	  1	  1	  6	  2	  3	  1	  2	  1	0.65070	  1	0.90000	  0	 16	 35	 36	  0	
07-May-2013	sub2337	2337	  2	  1	  8	  1	  1	  6	  2	  3	  0	  1	  1	0.75057	  0	0.90000	  0	 16	 47	 38	  0	
07-May-2013	sub2337	2337	  2	  1	  9	  1	  1	  2	  6	  1	  1	  2	  1	0.59127	  1	0.90000	  0	 12	 30	 31	  0	
07-May-2013	sub2337	2337	  2	  1	 10	  1	  1	  2	  6	  1	  1	  1	  0	0.59865	  0	0.90000	  0	 12	 40	 41	  0	
07-May-2013	sub2337	2337	  2	  1	 11	  1	  1	  4	  5	  3	  1	  2	  1	0.70120	  1	0.90000	  0	 14	 32	 33	  0	
07-May-2013	sub2337	2337	  2	  1	 12	  1	  1	  2	  6	  1	  1	  1	  0	0.68387	  0	0.90000	  0	 12	 40	 41	  0	
07-May-2013	sub2337	2337	  2	  1	 13	  1	  1	  5	  3	  1	  1	  1	  1	0.90631	  1	0.90000	  1	 15	 35	 51	  0	
07-May-2013	sub2337	2337	  2	  1	 14	  1	  1	  3	  1	  2	  0	  2	  1	0.51936	  0	0.90000	  0	 13	 44	 39	  0	
07-May-2013	sub2337	2337	  2	  1	 15	  1	  1	  1	  4	  1	  1	  2	  0	0.69649	  0	0.90000	  0	 11	 40	 41	  0	
07-May-2013	sub2337	2337	  2	  1	 16	  1	  1	  2	  6	  1	  1	  1	  0	0.66855	  0	0.90000	  0	 12	 40	 41	  0	
07-May-2013	sub2337	2337	  2	  1	 17	  1	  1	  3	  1	  2	  1	  2	  0	0.57760	  0	0.90000	  0	 13	 42	 43	  0	
07-May-2013	sub2337	2337	  2	  1	 18	  1	  1	  5	  3	  1	  0	  1	  0	0.75948	  1	0.90000	  0	 15	 37	 48	  0	
07-May-2013	sub2337	2337	  2	  1	 19	  1	  1	  1	  4	  1	  1	  2	  0	0.46762	  0	0.90000	  0	 11	 40	 41	  1	
07-May-2013	sub2337	2337	  2	  1	 20	  1	  1	  2	  6	  1	  1	  1	  0	0.67352	  0	0.90000	  0	 12	 40	 41	  0	
07-May-2013	sub2337	2337	  2	  1	 21	  1	  1	  1	  4	  1	  1	  2	  0	0.88408	  0	0.90000	  0	 11	 40	 41	  0	
07-May-2013	sub2337	2337	  2	  1	 22	  1	  1	  3	  1	  2	  1	  1	  1	0.79161	  1	0.90000	  0	 13	 32	 33	  0	
07-May-2013	sub2337	2337	  2	  1	 23	  1	  1	  1	  4	  1	  1	  1	  1	0.75015	  1	0.90000	  0	 11	 30	 31	  0	
07-May-2013	sub2337	2337	  2	  1	 24	  1	  1	  2	  6	  1	  1	  1	  0	0.61745	  0	0.90000	  0	 12	 40	 41	  0	
07-May-2013	sub2337	2337	  2	  1	 25	  1	  1	  3	  1	  2	  1	  1	  1	0.72595	  1	0.90000	  0	 13	 32	 33	  0	
07-May-2013	sub2337	2337	  2	  1	 26	  1	  1	  1	  4	  1	  1	  1	  1	1.09452	  1	0.90000	  1	 11	 30	 51	  0	
07-May-2013	sub2337	2337	  2	  1	 27	  1	  1	  4	  5	  3	  1	  2	  1	0.55463	  1	0.90000	  0	 14	 32	 33	  0	
07-May-2013	sub2337	2337	  2	  1	 28	  1	  1	  2	  6	  1	  1	  1	  0	0.57513	  0	0.90000	  0	 12	 40	 41	  0	
07-May-2013	sub2337	2337	  2	  1	 29	  1	  1	  2	  6	  1	  1	  2	  1	0.57293	  1	0.90000	  0	 12	 30	 31	  0	
07-May-2013	sub2337	2337	  2	  1	 30	  1	  1	  5	  3	  1	  0	  1	  0	0.89477	  1	0.90000	  0	 15	 37	 48	  0	
07-May-2013	sub2337	2337	  2	  1	 31	  1	  1	  3	  1	  2	  0	  1	  0	0.80353	  1	0.90000	  0	 13	 34	 49	  0	
07-May-2013	sub2337	2337	  2	  1	 32	  1	  1	  3	  1	  2	  1	  2	  0	0.64857	  0	0.90000	  0	 13	 42	 43	  0	
07-May-2013	sub2337	2337	  2	  1	 33	  1	  1	  2	  6	  1	  1	  2	  1	0.73638	  1	0.90000	  0	 12	 30	 31	  0	
07-May-2013	sub2337	2337	  2	  1	 34	  1	  1	  6	  2	  3	  0	  2	  0	0.67373	  1	0.90000	  0	 16	 37	 48	  0	
07-May-2013	sub2337	2337	  2	  1	 35	  1	  1	  2	  6	  1	  1	  2	  1	0.62671	  1	0.90000	  0	 12	 30	 31	  0	
07-May-2013	sub2337	2337	  2	  1	 36	  1	  1	  6	  2	  3	  1	  2	  1	0.58446	  1	0.90000	  0	 16	 35	 36	  0	
07-May-2013	sub2337	2337	  2	  1	 37	  1	  1	  6	  2	  3	  0	  2	  0	0.63288	  1	0.90000	  0	 16	 37	 48	  0	
07-May-2013	sub2337	2337	  2	  1	 38	  1	  1	  4	  5	  3	  0	  1	  1	0.60230	  0	0.90000	  0	 14	 44	 39	  0	
07-May-2013	sub2337	2337	  2	  1	 39	  1	  1	  1	  4	  1	  1	  2	  0	0.61788	  0	0.90000	  0	 11	 40	 41	  0	
07-May-2013	sub2337	2337	  2	  1	 40	  1	  1	  4	  5	  3	  1	  2	  1	0.47531	  1	0.90000	  0	 14	 32	 33	  1	
07-May-2013	sub2337	2337	  2	  1	 41	  1	  1	  5	  3	  1	  0	  1	  0	0.61079	  1	0.90000	  0	 15	 37	 48	  0	
07-May-2013	sub2337	2337	  2	  1	 42	  1	  1	  5	  3	  1	  1	  2	  0	0.40298	  0	0.90000	  0	 15	 45	 46	  1	
07-May-2013	sub2337	2337	  2	  1	 43	  1	  1	  5	  3	  1	  0	  2	  1	0.60742	  0	0.90000	  0	 15	 47	 38	  0	
07-May-2013	sub2337	2337	  2	  1	 44	  1	  1	  1	  4	  1	  1	  1	  1	0.67257	  1	0.80000	  0	 11	 30	 31	  0	
07-May-2013	sub2337	2337	  2	  1	 45	  1	  1	  1	  4	  1	  1	  1	  1	0.65932	  1	0.80000	  0	 11	 30	 31	  0	
07-May-2013	sub2337	2337	  2	  1	 46	  1	  1	  6	  2	  3	  1	  1	  0	0.69332	  0	0.80000	  0	 16	 45	 46	  0	
07-May-2013	sub2337	2337	  2	  1	 47	  1	  1	  3	  1	  2	  1	  2	  0	0.89019	  0	0.80000	  1	 13	 42	 51	  0	
07-May-2013	sub2337	2337	  2	  1	 48	  1	  1	  1	  4	  1	  1	  2	  0	0.38966	  0	0.90000	  0	 11	 40	 41	  1	
07-May-2013	sub2337	2337	  2	  1	 49	  1	  1	  1	  4	  1	  1	  1	  1	0.43990	  1	0.90000	  0	 11	 30	 31	  1	
07-May-2013	sub2337	2337	  2	  1	 50	  1	  1	  4	  5	  3	  1	  2	  1	0.63058	  1	0.90000	  0	 14	 32	 33	  0	
07-May-2013	sub2337	2337	  2	  1	 51	  1	  1	  4	  5	  3	  1	  1	  0	0.55141	  0	0.90000	  0	 14	 42	 43	  0	
07-May-2013	sub2337	2337	  2	  1	 52	  1	  1	  2	  6	  1	  1	  2	  1	0.51914	  1	0.90000	  0	 12	 30	 31	  0	
07-May-2013	sub2337	2337	  2	  1	 53	  1	  1	  4	  5	  3	  1	  1	  0	0.65610	  0	0.90000	  0	 14	 42	 43	  0	
07-May-2013	sub2337	2337	  2	  1	 54	  1	  1	  6	  2	  3	  1	  1	  0	0.73748	  0	0.90000	  0	 16	 45	 46	  0	
07-May-2013	sub2337	2337	  2	  1	 55	  1	  1	  3	  1	  2	  0	  2	  1	0.73169	  0	0.90000	  0	 13	 44	 39	  0	
07-May-2013	sub2337	2337	  2	  1	 56	  1	  1	  2	  6	  1	  1	  2	  1	1.04102	  1	0.90000	  1	 12	 30	 51	  0	
07-May-2013	sub2337	2337	  2	  1	 57	  1	  1	  6	  2	  3	  0	  2	  0	0.30095	  1	0.90000	  0	 16	 37	 48	  1	
07-May-2013	sub2337	2337	  2	  1	 58	  1	  1	  4	  5	  3	  1	  2	  1	0.47612	  1	0.90000	  0	 14	 32	 33	  1	
07-May-2013	sub2337	2337	  2	  1	 59	  1	  1	  4	  5	  3	  1	  2	  1	0.57816	  1	0.90000	  0	 14	 32	 33	  0	
07-May-2013	sub2337	2337	  2	  1	 60	  1	  1	  3	  1	  2	  1	  1	  1	0.61406	  1	0.90000	  0	 13	 32	 33	  0	
07-May-2013	sub2337	2337	  2	  1	 61	  1	  1	  5	  3	  1	  1	  1	  1	0.72171	  1	0.90000	  0	 15	 35	 36	  0	
07-May-2013	sub2337	2337	  2	  1	 62	  1	  1	  3	  1	  2	  1	  1	  1	0.60677	  1	0.90000	  0	 13	 32	 33	  0	
07-May-2013	sub2337	2337	  2	  1	 63	  1	  1	  6	  2	  3	  1	  2	  1	0.64472	  1	0.90000	  0	 16	 35	 36	  0	
07-May-2013	sub2337	2337	  2	  1	 64	  1	  1	  3	  1	  2	  1	  1	  1	0.87882	  1	0.90000	  0	 13	 32	 33	  0	
07-May-2013	sub2337	2337	  2	  1	 65	  1	  1	  6	  2	  3	  0	  2	  0	0.79833	  1	0.90000	  0	 16	 37	 48	  0	
07-May-2013	sub2337	2337	  2	  1	 66	  1	  1	  4	  5	  3	  1	  2	  1	0.71368	  1	0.90000	  0	 14	 32	 33	  0	
07-May-2013	sub2337	2337	  2	  1	 67	  1	  1	  6	  2	  3	  1	  1	  0	1.10221	  0	0.90000	  1	 16	 45	 51	  0	
07-May-2013	sub2337	2337	  2	  1	 68	  1	  1	  5	  3	  1	  1	  1	  1	0.53582	  1	0.90000	  0	 15	 35	 36	  0	
07-May-2013	sub2337	2337	  2	  1	 69	  1	  1	  4	  5	  3	  1	  2	  1	0.82824	  1	0.90000	  0	 14	 32	 33	  0	
07-May-2013	sub2337	2337	  2	  1	 70	  1	  1	  5	  3	  1	  0	  2	  1	0.38598	  0	0.90000	  0	 15	 47	 38	  1	
07-May-2013	sub2337	2337	  2	  1	 71	  1	  1	  1	  4	  1	  1	  2	  0	0.70422	  0	0.90000	  0	 11	 40	 41	  0	
07-May-2013	sub2337	2337	  2	  1	 72	  1	  1	  3	  1	  2	  1	  2	  0	0.56172	  0	0.90000	  0	 13	 42	 43	  0	
07-May-2013	sub2337	2337	  2	  1	 73	  1	  1	  5	  3	  1	  1	  1	  1	0.57124	  1	0.90000	  0	 15	 35	 36	  0	
07-May-2013	sub2337	2337	  2	  1	 74	  1	  1	  4	  5	  3	  0	  2	  0	0.56519	  1	0.90000	  0	 14	 34	 49	  0	
07-May-2013	sub2337	2337	  2	  1	 75	  1	  1	  6	  2	  3	  0	  1	  1	0.31082	  0	0.90000	  0	 16	 47	 38	  1	
07-May-2013	sub2337	2337	  2	  1	  1	  2	  1	  5	  5	  5	  0	  1	  0	0.81245	  1	0.60000	  1	 15	 37	 51	  0	
07-May-2013	sub2337	2337	  2	  1	  2	  2	  1	  6	  1	  5	  1	  1	  0	0.04647	  0	0.90000	  0	 16	 45	 46	  1	
07-May-2013	sub2337	2337	  2	  1	  3	  2	  1	  4	  3	  2	  1	  2	  1	0.46318	  1	0.90000	  0	 14	 32	 33	  1	
07-May-2013	sub2337	2337	  2	  1	  4	  2	  1	  2	  4	  2	  1	  1	  0	0.52600	  0	0.90000	  0	 12	 40	 41	  0	
07-May-2013	sub2337	2337	  2	  1	  5	  2	  1	  2	  4	  2	  1	  2	  1	0.38913	  1	0.90000	  0	 12	 30	 31	  1	
07-May-2013	sub2337	2337	  2	  1	  6	  2	  1	  1	  6	  6	  1	  2	  0	0.56973	  0	0.90000	  0	 11	 40	 41	  0	
07-May-2013	sub2337	2337	  2	  1	  7	  2	  1	  5	  5	  5	  0	  2	  1	0.67690	  0	0.90000	  0	 15	 47	 38	  0	
07-May-2013	sub2337	2337	  2	  1	  8	  2	  1	  1	  6	  6	  1	  1	  1	0.55404	  1	0.90000	  0	 11	 30	 31	  0	
07-May-2013	sub2337	2337	  2	  1	  9	  2	  1	  6	  1	  5	  1	  2	  1	0.58038	  1	0.90000	  0	 16	 35	 36	  0	
07-May-2013	sub2337	2337	  2	  1	 10	  2	  1	  1	  6	  6	  1	  1	  1	0.47357	  1	0.90000	  0	 11	 30	 31	  1	
07-May-2013	sub2337	2337	  2	  1	 11	  2	  1	  2	  4	  2	  1	  2	  1	0.37539	  1	0.90000	  0	 12	 30	 31	  1	
07-May-2013	sub2337	2337	  2	  1	 12	  2	  1	  2	  4	  2	  1	  2	  1	0.61936	  1	0.90000	  0	 12	 30	 31	  0	
07-May-2013	sub2337	2337	  2	  1	 13	  2	  1	  5	  5	  5	  0	  2	  1	0.71794	  0	0.90000	  0	 15	 47	 38	  0	
07-May-2013	sub2337	2337	  2	  1	 14	  2	  1	  4	  3	  2	  1	  2	  1	0.57745	  1	0.90000	  0	 14	 32	 33	  0	
07-May-2013	sub2337	2337	  2	  1	 15	  2	  1	  1	  6	  6	  1	  1	  1	0.41524	  1	0.90000	  0	 11	 30	 31	  1	
07-May-2013	sub2337	2337	  2	  1	 16	  2	  1	  1	  6	  6	  1	  2	  0	0.45385	  0	0.80000	  0	 11	 40	 41	  1	
07-May-2013	sub2337	2337	  2	  1	 17	  2	  1	  5	  5	  5	  1	  2	  0	0.60276	  0	0.80000	  0	 15	 45	 46	  0	
07-May-2013	sub2337	2337	  2	  1	 18	  2	  1	  5	  5	  5	  0	  2	  1	0.52062	  0	0.70000	  0	 15	 47	 38	  0	
07-May-2013	sub2337	2337	  2	  1	 19	  2	  1	  3	  2	  1	  1	  2	  0	0.68254	  0	0.70000	  0	 13	 42	 43	  0	
07-May-2013	sub2337	2337	  2	  1	 20	  2	  1	  3	  2	  1	  1	  1	  1	0.44635	  1	0.70000	  0	 13	 32	 33	  1	
07-May-2013	sub2337	2337	  2	  1	 21	  2	  1	  2	  4	  2	  1	  2	  1	0.57535	  1	0.60000	  0	 12	 30	 31	  0	
07-May-2013	sub2337	2337	  2	  1	 22	  2	  1	  4	  3	  2	  1	  2	  1	0.65195	  1	0.60000	  1	 14	 32	 51	  0	
07-May-2013	sub2337	2337	  2	  1	 23	  2	  1	  6	  1	  5	  0	  2	  0	0.74968	  1	0.90000	  0	 16	 37	 48	  0	
07-May-2013	sub2337	2337	  2	  1	 24	  2	  1	  3	  2	  1	  1	  1	  1	0.58434	  1	0.90000	  0	 13	 32	 33	  0	
07-May-2013	sub2337	2337	  2	  1	 25	  2	  1	  5	  5	  5	  1	  2	  0	0.67703	  0	0.90000	  0	 15	 45	 46	  0	
07-May-2013	sub2337	2337	  2	  1	 26	  2	  1	  1	  6	  6	  1	  1	  1	0.58249	  1	0.90000	  0	 11	 30	 31	  0	
07-May-2013	sub2337	2337	  2	  1	 27	  2	  1	  3	  2	  1	  1	  1	  1	0.71268	  1	0.90000	  0	 13	 32	 33	  0	
07-May-2013	sub2337	2337	  2	  1	 28	  2	  1	  6	  1	  5	  0	  1	  1	0.87499	  0	0.90000	  0	 16	 47	 38	  0	
07-May-2013	sub2337	2337	  2	  1	 29	  2	  1	  4	  3	  2	  0	  2	  0	0.47548	  1	0.90000	  0	 14	 34	 49	  1	
07-May-2013	sub2337	2337	  2	  1	 30	  2	  1	  3	  2	  1	  1	  1	  1	0.62564	  1	0.80000	  0	 13	 32	 33	  0	
07-May-2013	sub2337	2337	  2	  1	 31	  2	  1	  1	  6	  6	  1	  1	  1	0.56942	  1	0.80000	  0	 11	 30	 31	  0	
07-May-2013	sub2337	2337	  2	  1	 32	  2	  1	  4	  3	  2	  1	  2	  1	0.57102	  1	0.80000	  0	 14	 32	 33	  0	
07-May-2013	sub2337	2337	  2	  1	 33	  2	  1	  3	  2	  1	  0	  1	  0	0.56445	  1	0.80000	  0	 13	 34	 49	  0	
07-May-2013	sub2337	2337	  2	  1	 34	  2	  1	  6	  1	  5	  1	  2	  1	0.56730	  1	0.80000	  0	 16	 35	 36	  0	
07-May-2013	sub2337	2337	  2	  1	 35	  2	  1	  2	  4	  2	  1	  2	  1	0.53320	  1	0.70000	  0	 12	 30	 31	  0	
07-May-2013	sub2337	2337	  2	  1	 36	  2	  1	  5	  5	  5	  0	  2	  1	0.59178	  0	0.70000	  0	 15	 47	 38	  0	
07-May-2013	sub2337	2337	  2	  1	 37	  2	  1	  4	  3	  2	  1	  2	  1	0.45993	  1	0.70000	  0	 14	 32	 33	  1	
07-May-2013	sub2337	2337	  2	  1	 38	  2	  1	  1	  6	  6	  1	  1	  1	0.49037	  1	0.70000	  0	 11	 30	 31	  1	
07-May-2013	sub2337	2337	  2	  1	 39	  2	  1	  5	  5	  5	  1	  2	  0	0.95750	  0	0.70000	  1	 15	 45	 51	  0	
07-May-2013	sub2337	2337	  2	  1	 40	  2	  1	  1	  6	  6	  1	  1	  1	0.61108	  1	0.90000	  0	 11	 30	 31	  0	
07-May-2013	sub2337	2337	  2	  1	 41	  2	  1	  6	  1	  5	  0	  2	  0	0.45422	  1	0.90000	  0	 16	 37	 48	  1	
07-May-2013	sub2337	2337	  2	  1	 42	  2	  1	  3	  2	  1	  1	  1	  1	0.58944	  1	0.90000	  0	 13	 32	 33	  0	
07-May-2013	sub2337	2337	  2	  1	 43	  2	  1	  5	  5	  5	  1	  2	  0	0.41044	  0	0.90000	  0	 15	 45	 46	  1	
07-May-2013	sub2337	2337	  2	  1	 44	  2	  1	  5	  5	  5	  1	  2	  0	0.60522	  0	0.80000	  0	 15	 45	 46	  0	
07-May-2013	sub2337	2337	  2	  1	 45	  2	  1	  6	  1	  5	  0	  1	  1	0.56803	  0	0.80000	  0	 16	 47	 38	  0	
07-May-2013	sub2337	2337	  2	  1	 46	  2	  1	  4	  3	  2	  1	  2	  1	0.50219	  1	0.80000	  0	 14	 32	 33	  0	
07-May-2013	sub2337	2337	  2	  1	 47	  2	  1	  3	  2	  1	  1	  1	  1	0.66162	  1	0.80000	  0	 13	 32	 33	  0	
07-May-2013	sub2337	2337	  2	  1	 48	  2	  1	  2	  4	  2	  1	  1	  0	0.61134	  0	0.80000	  0	 12	 40	 41	  0	
07-May-2013	sub2337	2337	  2	  1	 49	  2	  1	  3	  2	  1	  0	  1	  0	0.49582	  1	0.80000	  0	 13	 34	 49	  1	
07-May-2013	sub2337	2337	  2	  1	 50	  2	  1	  6	  1	  5	  1	  2	  1	0.50601	  1	0.80000	  0	 16	 35	 36	  0	
07-May-2013	sub2337	2337	  2	  1	 51	  2	  1	  4	  3	  2	  1	  2	  1	0.54987	  1	0.70000	  0	 14	 32	 33	  0	
07-May-2013	sub2337	2337	  2	  1	 52	  2	  1	  2	  4	  2	  1	  1	  0	0.64885	  0	0.70000	  0	 12	 40	 41	  0	
07-May-2013	sub2337	2337	  2	  1	 53	  2	  1	  3	  2	  1	  1	  1	  1	0.51703	  1	0.70000	  0	 13	 32	 33	  0	
07-May-2013	sub2337	2337	  2	  1	 54	  2	  1	  2	  4	  2	  1	  2	  1	0.57931	  1	0.70000	  0	 12	 30	 31	  0	
07-May-2013	sub2337	2337	  2	  1	 55	  2	  1	  6	  1	  5	  0	  2	  0	0.52988	  1	0.70000	  0	 16	 37	 48	  0	
07-May-2013	sub2337	2337	  2	  1	 56	  2	  1	  1	  6	  6	  1	  1	  1	0.50086	  1	0.70000	  0	 11	 30	 31	  0	
07-May-2013	sub2337	2337	  2	  1	 57	  2	  1	  3	  2	  1	  1	  1	  1	0.41754	  1	0.70000	  0	 13	 32	 33	  1	
07-May-2013	sub2337	2337	  2	  1	 58	  2	  1	  6	  1	  5	  0	  2	  0	0.49728	  1	0.70000	  0	 16	 37	 48	  1	
07-May-2013	sub2337	2337	  2	  1	 59	  2	  1	  3	  2	  1	  1	  1	  1	0.54296	  1	0.70000	  0	 13	 32	 33	  0	
07-May-2013	sub2337	2337	  2	  1	 60	  2	  1	  1	  6	  6	  1	  1	  1	0.40412	  1	0.70000	  0	 11	 30	 31	  1	
07-May-2013	sub2337	2337	  2	  1	 61	  2	  1	  6	  1	  5	  1	  2	  1	0.75404	  1	0.60000	  1	 16	 35	 51	  0	
07-May-2013	sub2337	2337	  2	  1	 62	  2	  1	  4	  3	  2	  1	  2	  1	0.45416	  1	0.80000	  0	 14	 32	 33	  1	
07-May-2013	sub2337	2337	  2	  1	 63	  2	  1	  4	  3	  2	  1	  2	  1	0.39752	  1	0.80000	  0	 14	 32	 33	  1	
07-May-2013	sub2337	2337	  2	  1	 64	  2	  1	  5	  5	  5	  0	  2	  1	0.62865	  0	0.80000	  0	 15	 47	 38	  0	
07-May-2013	sub2337	2337	  2	  1	 65	  2	  1	  2	  4	  2	  1	  1	  0	0.48452	  0	0.80000	  0	 12	 40	 41	  1	
07-May-2013	sub2337	2337	  2	  1	 66	  2	  1	  4	  3	  2	  0	  2	  0	0.38381	  1	0.80000	  0	 14	 34	 49	  1	
07-May-2013	sub2337	2337	  2	  1	 67	  2	  1	  4	  3	  2	  1	  2	  1	0.35816	  1	0.80000	  0	 14	 32	 33	  1	
07-May-2013	sub2337	2337	  2	  1	 68	  2	  1	  5	  5	  5	  1	  1	  1	0.63921	  1	0.70000	  0	 15	 35	 36	  0	
07-May-2013	sub2337	2337	  2	  1	 69	  2	  1	  3	  2	  1	  0	  1	  0	0.51491	  1	0.70000	  0	 13	 34	 49	  0	
07-May-2013	sub2337	2337	  2	  1	 70	  2	  1	  2	  4	  2	  1	  1	  0	0.60351	  0	0.70000	  0	 12	 40	 41	  0	
07-May-2013	sub2337	2337	  2	  1	 71	  2	  1	  6	  1	  5	  0	  2	  0	0.58180	  1	0.70000	  0	 16	 37	 48	  0	
07-May-2013	sub2337	2337	  2	  1	 72	  2	  1	  6	  1	  5	  1	  1	  0	0.37247	  0	0.70000	  0	 16	 45	 46	  1	
07-May-2013	sub2337	2337	  2	  1	 73	  2	  1	  2	  4	  2	  1	  2	  1	0.71110	  1	0.70000	  1	 12	 30	 51	  0	
07-May-2013	sub2337	2337	  2	  1	 74	  2	  1	  1	  6	  6	  1	  1	  1	0.34695	  1	0.80000	  0	 11	 30	 31	  1	
07-May-2013	sub2337	2337	  2	  1	 75	  2	  1	  2	  4	  2	  1	  1	  0	0.45428	  0	0.80000	  0	 12	 40	 41	  1	
07-May-2013	sub2337	2337	  2	  1	 76	  2	  2	  1	  6	  6	  1	  1	  1	0.42821	  1	0.80000	  0	 21	 60	 61	  1	
07-May-2013	sub2337	2337	  2	  1	 77	  2	  2	  6	  1	  5	  1	  2	  1	0.41361	  1	0.80000	  0	 26	 65	 66	  1	
07-May-2013	sub2337	2337	  2	  1	 78	  2	  2	  3	  2	  1	  1	  1	  1	0.46561	  1	0.80000	  0	 23	 62	 63	  1	
07-May-2013	sub2337	2337	  2	  1	 79	  2	  2	  5	  5	  5	  0	  1	  0	0.59901	  1	0.80000	  0	 25	 67	 88	  0	
07-May-2013	sub2337	2337	  2	  1	 80	  2	  2	  2	  4	  2	  1	  2	  1	0.68917	  1	0.80000	  0	 22	 60	 61	  0	
07-May-2013	sub2337	2337	  2	  1	 81	  2	  2	  1	  6	  6	  1	  1	  1	0.39848	  1	0.80000	  0	 21	 60	 61	  1	
07-May-2013	sub2337	2337	  2	  1	 82	  2	  2	  2	  4	  2	  1	  2	  1	0.58223	  1	0.80000	  0	 22	 60	 61	  0	
07-May-2013	sub2337	2337	  2	  1	 83	  2	  2	  3	  2	  1	  1	  1	  1	0.58623	  1	0.80000	  0	 23	 62	 63	  0	
07-May-2013	sub2337	2337	  2	  1	 84	  2	  2	  4	  3	  2	  1	  2	  1	0.41230	  1	0.80000	  0	 24	 62	 63	  1	
07-May-2013	sub2337	2337	  2	  1	 85	  2	  2	  2	  4	  2	  1	  1	  0	0.58587	  0	0.70000	  0	 22	 80	 81	  0	
07-May-2013	sub2337	2337	  2	  1	 86	  2	  2	  1	  6	  6	  1	  1	  1	0.47718	  1	0.70000	  0	 21	 60	 61	  1	
07-May-2013	sub2337	2337	  2	  1	 87	  2	  2	  4	  3	  2	  1	  2	  1	0.55403	  1	0.70000	  0	 24	 62	 63	  0	
07-May-2013	sub2337	2337	  2	  1	 88	  2	  2	  1	  6	  6	  1	  1	  1	0.43143	  1	0.70000	  0	 21	 60	 61	  1	
07-May-2013	sub2337	2337	  2	  1	 89	  2	  2	  2	  4	  2	  1	  2	  1	0.46397	  1	0.70000	  0	 22	 60	 61	  1	
07-May-2013	sub2337	2337	  2	  1	 90	  2	  2	  4	  3	  2	  1	  2	  1	0.45697	  1	0.70000	  0	 24	 62	 63	  1	
07-May-2013	sub2337	2337	  2	  1	 91	  2	  2	  6	  1	  5	  1	  2	  1	0.52715	  1	0.70000	  0	 26	 65	 66	  0	
07-May-2013	sub2337	2337	  2	  1	 92	  2	  2	  1	  6	  6	  1	  1	  1	0.53558	  1	0.70000	  0	 21	 60	 61	  0	
07-May-2013	sub2337	2337	  2	  1	 93	  2	  2	  6	  1	  5	  1	  1	  0	0.68865	  0	0.70000	  0	 26	 85	 86	  0	
07-May-2013	sub2337	2337	  2	  1	 94	  2	  2	  5	  5	  5	  0	  2	  1	0.55607	  0	0.70000	  0	 25	 87	 68	  0	
07-May-2013	sub2337	2337	  2	  1	 95	  2	  2	  5	  5	  5	  0	  2	  1	0.49629	  0	0.70000	  0	 25	 87	 68	  1	
07-May-2013	sub2337	2337	  2	  1	 96	  2	  2	  4	  3	  2	  1	  2	  1	0.61114	  1	0.70000	  0	 24	 62	 63	  0	
07-May-2013	sub2337	2337	  2	  1	 97	  2	  2	  4	  3	  2	  0	  2	  0	0.36625	  1	0.70000	  0	 24	 64	 89	  1	
07-May-2013	sub2337	2337	  2	  1	 98	  2	  2	  5	  5	  5	  0	  2	  1	0.50574	  0	0.70000	  0	 25	 87	 68	  0	
07-May-2013	sub2337	2337	  2	  1	 99	  2	  2	  4	  3	  2	  0	  2	  0	0.52485	  1	0.70000	  0	 24	 64	 89	  0	
07-May-2013	sub2337	2337	  2	  1	100	  2	  2	  6	  1	  5	  0	  1	  1	0.60150	  0	0.70000	  0	 26	 87	 68	  0	
07-May-2013	sub2337	2337	  2	  1	101	  2	  2	  4	  3	  2	  1	  2	  1	0.52947	  1	0.60000	  0	 24	 62	 63	  0	
07-May-2013	sub2337	2337	  2	  1	102	  2	  2	  1	  6	  6	  1	  1	  1	0.42470	  1	0.60000	  0	 21	 60	 61	  1	
07-May-2013	sub2337	2337	  2	  1	103	  2	  2	  1	  6	  6	  1	  1	  1	0.48446	  1	0.60000	  0	 21	 60	 61	  1	
07-May-2013	sub2337	2337	  2	  1	104	  2	  2	  5	  5	  5	  0	  2	  1	0.51945	  0	0.60000	  0	 25	 87	 68	  0	
07-May-2013	sub2337	2337	  2	  1	105	  2	  2	  2	  4	  2	  1	  2	  1	0.55327	  1	0.60000	  0	 22	 60	 61	  0	
07-May-2013	sub2337	2337	  2	  1	106	  2	  2	  2	  4	  2	  1	  2	  1	0.54508	  1	0.60000	  0	 22	 60	 61	  0	
07-May-2013	sub2337	2337	  2	  1	107	  2	  2	  6	  1	  5	  1	  1	  0	0.63974	  0	0.60000	  1	 26	 85	 51	  0	
07-May-2013	sub2337	2337	  2	  1	108	  2	  2	  6	  1	  5	  0	  1	  1	0.37178	  0	0.70000	  0	 26	 87	 68	  1	
07-May-2013	sub2337	2337	  2	  1	109	  2	  2	  5	  5	  5	  0	  2	  1	0.57515	  0	0.70000	  0	 25	 87	 68	  0	
07-May-2013	sub2337	2337	  2	  1	110	  2	  2	  1	  6	  6	  1	  1	  1	0.51260	  1	0.70000	  0	 21	 60	 61	  0	
07-May-2013	sub2337	2337	  2	  1	111	  2	  2	  4	  3	  2	  1	  2	  1	0.48318	  1	0.70000	  0	 24	 62	 63	  1	
07-May-2013	sub2337	2337	  2	  1	112	  2	  2	  5	  5	  5	  0	  2	  1	0.48705	  0	0.70000	  0	 25	 87	 68	  1	
07-May-2013	sub2337	2337	  2	  1	113	  2	  2	  2	  4	  2	  1	  2	  1	0.51042	  1	0.70000	  0	 22	 60	 61	  0	
07-May-2013	sub2337	2337	  2	  1	114	  2	  2	  4	  3	  2	  1	  2	  1	0.40818	  1	0.70000	  0	 24	 62	 63	  1	
07-May-2013	sub2337	2337	  2	  1	115	  2	  2	  2	  4	  2	  1	  1	  0	0.69091	  0	0.70000	  0	 22	 80	 81	  0	
07-May-2013	sub2337	2337	  2	  1	116	  2	  2	  3	  2	  1	  0	  1	  0	0.64281	  1	0.70000	  0	 23	 64	 89	  0	
07-May-2013	sub2337	2337	  2	  1	117	  2	  2	  6	  1	  5	  0	  1	  1	0.81338	  0	0.70000	  1	 26	 87	 51	  0	
07-May-2013	sub2337	2337	  2	  1	118	  2	  2	  4	  3	  2	  0	  2	  0	0.39366	  1	0.70000	  0	 24	 64	 89	  1	
07-May-2013	sub2337	2337	  2	  1	119	  2	  2	  1	  6	  6	  1	  1	  1	0.56614	  1	0.70000	  0	 21	 60	 61	  0	
07-May-2013	sub2337	2337	  2	  1	120	  2	  2	  1	  6	  6	  1	  1	  1	0.45923	  1	0.70000	  0	 21	 60	 61	  1	
07-May-2013	sub2337	2337	  2	  1	121	  2	  2	  1	  6	  6	  1	  1	  1	0.50732	  1	0.70000	  0	 21	 60	 61	  0	
07-May-2013	sub2337	2337	  2	  1	122	  2	  2	  4	  3	  2	  1	  2	  1	0.44498	  1	0.70000	  0	 24	 62	 63	  1	
07-May-2013	sub2337	2337	  2	  1	123	  2	  2	  2	  4	  2	  1	  1	  0	0.82954	  0	0.70000	  1	 22	 80	 51	  0	
07-May-2013	sub2337	2337	  2	  1	124	  2	  2	  6	  1	  5	  1	  1	  0	0.46096	  0	0.80000	  0	 26	 85	 86	  1	
07-May-2013	sub2337	2337	  2	  1	125	  2	  2	  2	  4	  2	  1	  2	  1	0.50649	  1	0.80000	  0	 22	 60	 61	  0	
07-May-2013	sub2337	2337	  2	  1	126	  2	  2	  3	  2	  1	  1	  1	  1	0.45623	  1	0.80000	  0	 23	 62	 63	  1	
07-May-2013	sub2337	2337	  2	  1	127	  2	  2	  3	  2	  1	  1	  1	  1	0.45412	  1	0.80000	  0	 23	 62	 63	  1	
07-May-2013	sub2337	2337	  2	  1	128	  2	  2	  3	  2	  1	  1	  1	  1	0.52093	  1	0.80000	  0	 23	 62	 63	  0	
07-May-2013	sub2337	2337	  2	  1	129	  2	  2	  2	  4	  2	  1	  2	  1	0.61845	  1	0.80000	  0	 22	 60	 61	  0	
07-May-2013	sub2337	2337	  2	  1	130	  2	  2	  3	  2	  1	  1	  1	  1	0.55560	  1	0.80000	  0	 23	 62	 63	  0	
07-May-2013	sub2337	2337	  2	  1	131	  2	  2	  5	  5	  5	  0	  1	  0	0.62654	  1	0.80000	  0	 25	 67	 88	  0	
07-May-2013	sub2337	2337	  2	  1	132	  2	  2	  6	  1	  5	  0	  1	  1	0.50140	  0	0.80000	  0	 26	 87	 68	  0	
07-May-2013	sub2337	2337	  2	  1	133	  2	  2	  3	  2	  1	  1	  1	  1	0.49824	  1	0.80000	  0	 23	 62	 63	  1	
07-May-2013	sub2337	2337	  2	  1	134	  2	  2	  3	  2	  1	  1	  1	  1	0.51112	  1	0.80000	  0	 23	 62	 63	  0	
07-May-2013	sub2337	2337	  2	  1	135	  2	  2	  6	  1	  5	  1	  1	  0	0.70695	  0	0.70000	  1	 26	 85	 51	  0	
07-May-2013	sub2337	2337	  2	  1	136	  2	  2	  4	  3	  2	  1	  2	  1	0.40106	  1	0.80000	  0	 24	 62	 63	  1	
07-May-2013	sub2337	2337	  2	  1	137	  2	  2	  5	  5	  5	  0	  1	  0	0.45239	  1	0.80000	  0	 25	 67	 88	  1	
07-May-2013	sub2337	2337	  2	  1	138	  2	  2	  5	  5	  5	  0	  2	  1	0.57577	  0	0.80000	  0	 25	 87	 68	  0	
07-May-2013	sub2337	2337	  2	  1	139	  2	  2	  6	  1	  5	  0	  1	  1	0.54685	  0	0.80000	  0	 26	 87	 68	  0	
07-May-2013	sub2337	2337	  2	  1	140	  2	  2	  3	  2	  1	  0	  1	  0	0.53376	  1	0.80000	  0	 23	 64	 89	  0	
07-May-2013	sub2337	2337	  2	  1	141	  2	  2	  5	  5	  5	  0	  2	  1	0.55555	  0	0.80000	  0	 25	 87	 68	  0	
07-May-2013	sub2337	2337	  2	  1	142	  2	  2	  5	  5	  5	  0	  2	  1	0.51262	  0	0.80000	  0	 25	 87	 68	  0	
07-May-2013	sub2337	2337	  2	  1	143	  2	  2	  1	  6	  6	  1	  1	  1	0.55122	  1	0.80000	  0	 21	 60	 61	  0	
07-May-2013	sub2337	2337	  2	  1	144	  2	  2	  3	  2	  1	  1	  1	  1	0.49543	  1	0.80000	  0	 23	 62	 63	  1	
07-May-2013	sub2337	2337	  2	  1	145	  2	  2	  2	  4	  2	  1	  2	  1	0.49609	  1	0.80000	  0	 22	 60	 61	  1	
07-May-2013	sub2337	2337	  2	  1	146	  2	  2	  1	  6	  6	  1	  1	  1	0.55968	  1	0.80000	  0	 21	 60	 61	  0	
07-May-2013	sub2337	2337	  2	  1	147	  2	  2	  6	  1	  5	  0	  1	  1	0.54702	  0	0.80000	  0	 26	 87	 68	  0	
07-May-2013	sub2337	2337	  2	  1	148	  2	  2	  5	  5	  5	  0	  2	  1	0.98394	  0	0.80000	  1	 25	 87	 51	  0	
07-May-2013	sub2337	2337	  2	  1	149	  2	  2	  4	  3	  2	  1	  2	  1	0.55705	  1	0.80000	  0	 24	 62	 63	  0	
07-May-2013	sub2337	2337	  2	  1	150	  2	  2	  3	  2	  1	  1	  1	  1	0.51047	  1	0.80000	  0	 23	 62	 63	  0	
07-May-2013	sub2337	2337	  2	  1	  1	  3	  1	  3	  2	  6	  1	  1	  1	0.61730	  1	0.60000	  1	 13	 32	 51	  0	
07-May-2013	sub2337	2337	  2	  1	  2	  3	  1	  4	  6	  5	  1	  1	  0	0.31527	  0	0.90000	  0	 14	 42	 43	  1	
07-May-2013	sub2337	2337	  2	  1	  3	  3	  1	  2	  4	  5	  1	  1	  0	0.57286	  0	0.90000	  0	 12	 40	 41	  0	
07-May-2013	sub2337	2337	  2	  1	  4	  3	  1	  5	  3	  5	  0	  1	  0	0.52681	  1	0.90000	  0	 15	 37	 48	  0	
07-May-2013	sub2337	2337	  2	  1	  5	  3	  1	  5	  3	  5	  1	  2	  0	0.50753	  0	0.90000	  0	 15	 45	 46	  0	
07-May-2013	sub2337	2337	  2	  1	  6	  3	  1	  1	  5	  4	  1	  2	  0	0.61702	  0	0.90000	  0	 11	 40	 41	  0	
07-May-2013	sub2337	2337	  2	  1	  7	  3	  1	  5	  3	  5	  1	  1	  1	0.68509	  1	0.90000	  0	 15	 35	 36	  0	
07-May-2013	sub2337	2337	  2	  1	  8	  3	  1	  2	  4	  5	  1	  2	  1	0.61979	  1	0.90000	  0	 12	 30	 31	  0	
07-May-2013	sub2337	2337	  2	  1	  9	  3	  1	  1	  5	  4	  1	  1	  1	0.85529	  1	0.90000	  0	 11	 30	 31	  0	
07-May-2013	sub2337	2337	  2	  1	 10	  3	  1	  3	  2	  6	  1	  2	  0	0.42340	  0	0.90000	  0	 13	 42	 43	  1	
07-May-2013	sub2337	2337	  2	  1	 11	  3	  1	  1	  5	  4	  1	  1	  1	0.54796	  1	0.90000	  0	 11	 30	 31	  0	
07-May-2013	sub2337	2337	  2	  1	 12	  3	  1	  6	  1	  1	  0	  2	  0	0.50068	  1	0.90000	  0	 16	 37	 48	  0	
07-May-2013	sub2337	2337	  2	  1	 13	  3	  1	  3	  2	  6	  1	  1	  1	0.81464	  1	0.90000	  0	 13	 32	 33	  0	
07-May-2013	sub2337	2337	  2	  1	 14	  3	  1	  3	  2	  6	  0	  1	  0	0.43113	  1	0.90000	  0	 13	 34	 49	  1	
07-May-2013	sub2337	2337	  2	  1	 15	  3	  1	  6	  1	  1	  1	  1	  0	0.46088	  0	0.90000	  0	 16	 45	 46	  1	
07-May-2013	sub2337	2337	  2	  1	 16	  3	  1	  3	  2	  6	  1	  1	  1	0.50937	  1	0.80000	  0	 13	 32	 33	  0	
07-May-2013	sub2337	2337	  2	  1	 17	  3	  1	  5	  3	  5	  1	  1	  1	0.50326	  1	0.80000	  0	 15	 35	 36	  0	
07-May-2013	sub2337	2337	  2	  1	 18	  3	  1	  2	  4	  5	  1	  2	  1	0.48303	  1	0.70000	  0	 12	 30	 31	  1	
07-May-2013	sub2337	2337	  2	  1	 19	  3	  1	  2	  4	  5	  1	  2	  1	0.64355	  1	0.70000	  0	 12	 30	 31	  0	
07-May-2013	sub2337	2337	  2	  1	 20	  3	  1	  6	  1	  1	  1	  2	  1	0.49252	  1	0.70000	  0	 16	 35	 36	  1	
07-May-2013	sub2337	2337	  2	  1	 21	  3	  1	  6	  1	  1	  1	  2	  1	0.44315	  1	0.60000	  0	 16	 35	 36	  1	
07-May-2013	sub2337	2337	  2	  1	 22	  3	  1	  5	  3	  5	  0	  1	  0	0.50658	  1	0.60000	  0	 15	 37	 48	  0	
07-May-2013	sub2337	2337	  2	  1	 23	  3	  1	  1	  5	  4	  1	  1	  1	0.61111	  1	0.60000	  1	 11	 30	 51	  0	
07-May-2013	sub2337	2337	  2	  1	 24	  3	  1	  2	  4	  5	  1	  2	  1	0.72414	  1	0.90000	  0	 12	 30	 31	  0	
07-May-2013	sub2337	2337	  2	  1	 25	  3	  1	  5	  3	  5	  0	  1	  0	0.37487	  1	0.90000	  0	 15	 37	 48	  1	
07-May-2013	sub2337	2337	  2	  1	 26	  3	  1	  6	  1	  1	  1	  2	  1	0.43971	  1	0.90000	  0	 16	 35	 36	  1	
07-May-2013	sub2337	2337	  2	  1	 27	  3	  1	  3	  2	  6	  0	  1	  0	0.40737	  1	0.90000	  0	 13	 34	 49	  1	
07-May-2013	sub2337	2337	  2	  1	 28	  3	  1	  1	  5	  4	  1	  2	  0	0.61313	  0	0.90000	  0	 11	 40	 41	  0	
07-May-2013	sub2337	2337	  2	  1	 29	  3	  1	  6	  1	  1	  1	  2	  1	0.60597	  1	0.90000	  0	 16	 35	 36	  0	
07-May-2013	sub2337	2337	  2	  1	 30	  3	  1	  3	  2	  6	  1	  1	  1	0.68332	  1	0.80000	  0	 13	 32	 33	  0	
07-May-2013	sub2337	2337	  2	  1	 31	  3	  1	  5	  3	  5	  1	  1	  1	0.49218	  1	0.80000	  0	 15	 35	 36	  1	
07-May-2013	sub2337	2337	  2	  1	 32	  3	  1	  4	  6	  5	  1	  2	  1	0.66954	  1	0.80000	  0	 14	 32	 33	  0	
07-May-2013	sub2337	2337	  2	  1	 33	  3	  1	  2	  4	  5	  1	  2	  1	0.52009	  1	0.80000	  0	 12	 30	 31	  0	
07-May-2013	sub2337	2337	  2	  1	 34	  3	  1	  1	  5	  4	  1	  1	  1	0.54003	  1	0.80000	  0	 11	 30	 31	  0	
07-May-2013	sub2337	2337	  2	  1	 35	  3	  1	  4	  6	  5	  1	  2	  1	0.64969	  1	0.70000	  0	 14	 32	 33	  0	
07-May-2013	sub2337	2337	  2	  1	 36	  3	  1	  5	  3	  5	  1	  1	  1	0.39822	  1	0.70000	  0	 15	 35	 36	  1	
07-May-2013	sub2337	2337	  2	  1	 37	  3	  1	  6	  1	  1	  1	  2	  1	0.48881	  1	0.70000	  0	 16	 35	 36	  1	
07-May-2013	sub2337	2337	  2	  1	 38	  3	  1	  5	  3	  5	  0	  1	  0	0.36931	  1	0.70000	  0	 15	 37	 48	  1	
07-May-2013	sub2337	2337	  2	  1	 39	  3	  1	  6	  1	  1	  1	  2	  1	0.34654	  1	0.70000	  0	 16	 35	 36	  1	
07-May-2013	sub2337	2337	  2	  1	 40	  3	  1	  1	  5	  4	  1	  1	  1	0.56388	  1	0.70000	  0	 11	 30	 31	  0	
07-May-2013	sub2337	2337	  2	  1	 41	  3	  1	  1	  5	  4	  1	  1	  1	0.40069	  1	0.60000	  0	 11	 30	 31	  1	
07-May-2013	sub2337	2337	  2	  1	 42	  3	  1	  2	  4	  5	  1	  2	  1	0.51099	  1	0.60000	  0	 12	 30	 31	  0	
07-May-2013	sub2337	2337	  2	  1	 43	  3	  1	  4	  6	  5	  1	  2	  1	0.67099	  1	0.60000	  1	 14	 32	 51	  0	
07-May-2013	sub2337	2337	  2	  1	 44	  3	  1	  6	  1	  1	  0	  2	  0	0.50490	  1	0.80000	  0	 16	 37	 48	  0	
07-May-2013	sub2337	2337	  2	  1	 45	  3	  1	  3	  2	  6	  0	  1	  0	0.52865	  1	0.80000	  0	 13	 34	 49	  0	
07-May-2013	sub2337	2337	  2	  1	 46	  3	  1	  3	  2	  6	  1	  1	  1	0.49144	  1	0.80000	  0	 13	 32	 33	  1	
07-May-2013	sub2337	2337	  2	  1	 47	  3	  1	  3	  2	  6	  1	  1	  1	0.50386	  1	0.80000	  0	 13	 32	 33	  0	
07-May-2013	sub2337	2337	  2	  1	 48	  3	  1	  2	  4	  5	  1	  2	  1	0.44714	  1	0.80000	  0	 12	 30	 31	  1	
07-May-2013	sub2337	2337	  2	  1	 49	  3	  1	  5	  3	  5	  0	  1	  0	0.40427	  1	0.80000	  0	 15	 37	 48	  1	
07-May-2013	sub2337	2337	  2	  1	 50	  3	  1	  2	  4	  5	  1	  2	  1	0.47469	  1	0.80000	  0	 12	 30	 31	  1	
07-May-2013	sub2337	2337	  2	  1	 51	  3	  1	  3	  2	  6	  1	  1	  1	0.43946	  1	0.70000	  0	 13	 32	 33	  1	
07-May-2013	sub2337	2337	  2	  1	 52	  3	  1	  5	  3	  5	  0	  1	  0	0.42765	  1	0.70000	  0	 15	 37	 48	  1	
07-May-2013	sub2337	2337	  2	  1	 53	  3	  1	  2	  4	  5	  1	  2	  1	0.62429	  1	0.70000	  0	 12	 30	 31	  0	
07-May-2013	sub2337	2337	  2	  1	 54	  3	  1	  4	  6	  5	  0	  2	  0	0.50927	  1	0.70000	  0	 14	 34	 49	  0	
07-May-2013	sub2337	2337	  2	  1	 55	  3	  1	  6	  1	  1	  0	  2	  0	0.43890	  1	0.70000	  0	 16	 37	 48	  1	
07-May-2013	sub2337	2337	  2	  1	 56	  3	  1	  2	  4	  5	  1	  2	  1	0.57741	  1	0.70000	  0	 12	 30	 31	  0	
07-May-2013	sub2337	2337	  2	  1	 57	  3	  1	  3	  2	  6	  1	  1	  1	0.63504	  1	0.70000	  0	 13	 32	 33	  0	
07-May-2013	sub2337	2337	  2	  1	 58	  3	  1	  2	  4	  5	  1	  2	  1	0.44293	  1	0.70000	  0	 12	 30	 31	  1	
07-May-2013	sub2337	2337	  2	  1	 59	  3	  1	  4	  6	  5	  0	  2	  0	0.49772	  1	0.70000	  0	 14	 34	 49	  1	
07-May-2013	sub2337	2337	  2	  1	 60	  3	  1	  3	  2	  6	  1	  1	  1	0.57131	  1	0.70000	  0	 13	 32	 33	  0	
07-May-2013	sub2337	2337	  2	  1	 61	  3	  1	  5	  3	  5	  1	  1	  1	0.51516	  1	0.60000	  0	 15	 35	 36	  0	
07-May-2013	sub2337	2337	  2	  1	 62	  3	  1	  2	  4	  5	  1	  2	  1	0.52986	  1	0.60000	  0	 12	 30	 31	  0	
07-May-2013	sub2337	2337	  2	  1	 63	  3	  1	  4	  6	  5	  1	  1	  0	0.52760	  0	0.60000	  0	 14	 42	 43	  0	
07-May-2013	sub2337	2337	  2	  1	 64	  3	  1	  1	  5	  4	  1	  1	  1	0.57427	  1	0.60000	  0	 11	 30	 31	  0	
07-May-2013	sub2337	2337	  2	  1	 65	  3	  1	  4	  6	  5	  1	  2	  1	0.43445	  1	0.60000	  0	 14	 32	 33	  1	
07-May-2013	sub2337	2337	  2	  1	 66	  3	  1	  1	  5	  4	  1	  1	  1	0.60169	  1	0.60000	  1	 11	 30	 51	  0	
07-May-2013	sub2337	2337	  2	  1	 67	  3	  1	  1	  5	  4	  1	  1	  1	0.36051	  1	0.80000	  0	 11	 30	 31	  1	
07-May-2013	sub2337	2337	  2	  1	 68	  3	  1	  4	  6	  5	  1	  2	  1	0.57003	  1	0.70000	  0	 14	 32	 33	  0	
07-May-2013	sub2337	2337	  2	  1	 69	  3	  1	  6	  1	  1	  0	  2	  0	0.53096	  1	0.70000	  0	 16	 37	 48	  0	
07-May-2013	sub2337	2337	  2	  1	 70	  3	  1	  1	  5	  4	  1	  1	  1	0.46617	  1	0.70000	  0	 11	 30	 31	  1	
07-May-2013	sub2337	2337	  2	  1	 71	  3	  1	  6	  1	  1	  0	  2	  0	0.44748	  1	0.70000	  0	 16	 37	 48	  1	
07-May-2013	sub2337	2337	  2	  1	 72	  3	  1	  4	  6	  5	  1	  1	  0	0.54813	  0	0.70000	  0	 14	 42	 43	  0	
07-May-2013	sub2337	2337	  2	  1	 73	  3	  1	  4	  6	  5	  1	  2	  1	0.58630	  1	0.70000	  0	 14	 32	 33	  0	
07-May-2013	sub2337	2337	  2	  1	 74	  3	  1	  6	  1	  1	  0	  2	  0	0.53553	  1	0.70000	  0	 16	 37	 48	  0	
07-May-2013	sub2337	2337	  2	  1	 75	  3	  1	  4	  6	  5	  1	  2	  1	0.58151	  1	0.70000	  0	 14	 32	 33	  0	
07-May-2013	sub2337	2337	  2	  1	 76	  3	  2	  4	  6	  5	  0	  2	  0	0.46467	  1	0.70000	  0	 24	 64	 89	  1	
07-May-2013	sub2337	2337	  2	  1	 77	  3	  2	  5	  3	  5	  0	  1	  0	0.51267	  1	0.70000	  0	 25	 67	 88	  0	
07-May-2013	sub2337	2337	  2	  1	 78	  3	  2	  5	  3	  5	  0	  1	  0	0.48506	  1	0.70000	  0	 25	 67	 88	  1	
07-May-2013	sub2337	2337	  2	  1	 79	  3	  2	  2	  4	  5	  1	  2	  1	0.46296	  1	0.70000	  0	 22	 60	 61	  1	
07-May-2013	sub2337	2337	  2	  1	 80	  3	  2	  6	  1	  1	  0	  2	  0	0.43411	  1	0.70000	  0	 26	 67	 88	  1	
07-May-2013	sub2337	2337	  2	  1	 81	  3	  2	  5	  3	  5	  0	  1	  0	0.46435	  1	0.60000	  0	 25	 67	 88	  1	
07-May-2013	sub2337	2337	  2	  1	 82	  3	  2	  5	  3	  5	  0	  1	  0	0.41403	  1	0.60000	  0	 25	 67	 88	  1	
07-May-2013	sub2337	2337	  2	  1	 83	  3	  2	  1	  5	  4	  1	  1	  1	0.59803	  1	0.60000	  0	 21	 60	 61	  0	
07-May-2013	sub2337	2337	  2	  1	 84	  3	  2	  5	  3	  5	  0	  1	  0	0.40275	  1	0.60000	  0	 25	 67	 88	  1	
07-May-2013	sub2337	2337	  2	  1	 85	  3	  2	  3	  2	  6	  0	  1	  0	0.44579	  1	0.60000	  0	 23	 64	 89	  1	
07-May-2013	sub2337	2337	  2	  1	 86	  3	  2	  4	  6	  5	  1	  2	  1	0.52737	  1	0.60000	  0	 24	 62	 63	  0	
07-May-2013	sub2337	2337	  2	  1	 87	  3	  2	  2	  4	  5	  1	  2	  1	0.70290	  1	0.60000	  1	 22	 60	 51	  0	
07-May-2013	sub2337	2337	  2	  1	 88	  3	  2	  6	  1	  1	  0	  2	  0	0.63210	  1	0.70000	  0	 26	 67	 88	  0	
07-May-2013	sub2337	2337	  2	  1	 89	  3	  2	  6	  1	  1	  0	  2	  0	0.38345	  1	0.70000	  0	 26	 67	 88	  1	
07-May-2013	sub2337	2337	  2	  1	 90	  3	  2	  5	  3	  5	  0	  1	  0	0.51103	  1	0.70000	  0	 25	 67	 88	  0	
07-May-2013	sub2337	2337	  2	  1	 91	  3	  2	  4	  6	  5	  1	  2	  1	0.53581	  1	0.70000	  0	 24	 62	 63	  0	
07-May-2013	sub2337	2337	  2	  1	 92	  3	  2	  3	  2	  6	  1	  1	  1	0.66973	  1	0.70000	  0	 23	 62	 63	  0	
07-May-2013	sub2337	2337	  2	  1	 93	  3	  2	  4	  6	  5	  0	  2	  0	0.60630	  1	0.70000	  0	 24	 64	 89	  0	
07-May-2013	sub2337	2337	  2	  1	 94	  3	  2	  5	  3	  5	  0	  1	  0	0.42929	  1	0.70000	  0	 25	 67	 88	  1	
07-May-2013	sub2337	2337	  2	  1	 95	  3	  2	  4	  6	  5	  1	  2	  1	1.35924	  1	0.70000	  1	 24	 62	 51	  0	
07-May-2013	sub2337	2337	  2	  1	 96	  3	  2	  4	  6	  5	  1	  2	  1	0.45447	  1	0.80000	  0	 24	 62	 63	  1	
07-May-2013	sub2337	2337	  2	  1	 97	  3	  2	  1	  5	  4	  1	  1	  1	0.51836	  1	0.80000	  0	 21	 60	 61	  0	
07-May-2013	sub2337	2337	  2	  1	 98	  3	  2	  2	  4	  5	  1	  2	  1	0.49729	  1	0.80000	  0	 22	 60	 61	  1	
07-May-2013	sub2337	2337	  2	  1	 99	  3	  2	  6	  1	  1	  1	  2	  1	0.53782	  1	0.80000	  0	 26	 65	 66	  0	
07-May-2013	sub2337	2337	  2	  1	100	  3	  2	  6	  1	  1	  0	  2	  0	0.39329	  1	0.80000	  0	 26	 67	 88	  1	
07-May-2013	sub2337	2337	  2	  1	101	  3	  2	  4	  6	  5	  1	  2	  1	0.49698	  1	0.70000	  0	 24	 62	 63	  1	
07-May-2013	sub2337	2337	  2	  1	102	  3	  2	  3	  2	  6	  1	  1	  1	0.54293	  1	0.70000	  0	 23	 62	 63	  0	
07-May-2013	sub2337	2337	  2	  1	103	  3	  2	  1	  5	  4	  1	  1	  1	0.55453	  1	0.70000	  0	 21	 60	 61	  0	
07-May-2013	sub2337	2337	  2	  1	104	  3	  2	  1	  5	  4	  1	  1	  1	0.67464	  1	0.70000	  0	 21	 60	 61	  0	
07-May-2013	sub2337	2337	  2	  1	105	  3	  2	  5	  3	  5	  0	  2	  1	0.42696	  0	0.70000	  0	 25	 87	 68	  1	
07-May-2013	sub2337	2337	  2	  1	106	  3	  2	  1	  5	  4	  1	  1	  1	0.58359	  1	0.70000	  0	 21	 60	 61	  0	
07-May-2013	sub2337	2337	  2	  1	107	  3	  2	  3	  2	  6	  0	  2	  1	0.44838	  0	0.70000	  0	 23	 84	 69	  1	
07-May-2013	sub2337	2337	  2	  1	108	  3	  2	  2	  4	  5	  1	  2	  1	0.50335	  1	0.70000	  0	 22	 60	 61	  0	
07-May-2013	sub2337	2337	  2	  1	109	  3	  2	  3	  2	  6	  1	  1	  1	0.50547	  1	0.70000	  0	 23	 62	 63	  0	
07-May-2013	sub2337	2337	  2	  1	110	  3	  2	  3	  2	  6	  1	  1	  1	0.50460	  1	0.70000	  0	 23	 62	 63	  0	
07-May-2013	sub2337	2337	  2	  1	111	  3	  2	  2	  4	  5	  1	  2	  1	0.48712	  1	0.70000	  0	 22	 60	 61	  1	
07-May-2013	sub2337	2337	  2	  1	112	  3	  2	  2	  4	  5	  1	  2	  1	0.49319	  1	0.70000	  0	 22	 60	 61	  1	
07-May-2013	sub2337	2337	  2	  1	113	  3	  2	  6	  1	  1	  0	  2	  0	0.53788	  1	0.70000	  0	 26	 67	 88	  0	
07-May-2013	sub2337	2337	  2	  1	114	  3	  2	  1	  5	  4	  1	  1	  1	0.53190	  1	0.70000	  0	 21	 60	 61	  0	
07-May-2013	sub2337	2337	  2	  1	115	  3	  2	  1	  5	  4	  1	  1	  1	0.63487	  1	0.70000	  0	 21	 60	 61	  0	
07-May-2013	sub2337	2337	  2	  1	116	  3	  2	  5	  3	  5	  0	  1	  0	0.44566	  1	0.70000	  0	 25	 67	 88	  1	
07-May-2013	sub2337	2337	  2	  1	117	  3	  2	  6	  1	  1	  1	  2	  1	0.45543	  1	0.70000	  0	 26	 65	 66	  1	
07-May-2013	sub2337	2337	  2	  1	118	  3	  2	  3	  2	  6	  1	  1	  1	0.75785	  1	0.70000	  1	 23	 62	 51	  0	
07-May-2013	sub2337	2337	  2	  1	119	  3	  2	  2	  4	  5	  1	  2	  1	0.46223	  1	0.70000	  0	 22	 60	 61	  1	
07-May-2013	sub2337	2337	  2	  1	120	  3	  2	  1	  5	  4	  1	  1	  1	0.55891	  1	0.70000	  0	 21	 60	 61	  0	
07-May-2013	sub2337	2337	  2	  1	121	  3	  2	  1	  5	  4	  1	  1	  1	0.45704	  1	0.70000	  0	 21	 60	 61	  1	
07-May-2013	sub2337	2337	  2	  1	122	  3	  2	  5	  3	  5	  0	  2	  1	0.68156	  0	0.70000	  0	 25	 87	 68	  0	
07-May-2013	sub2337	2337	  2	  1	123	  3	  2	  3	  2	  6	  1	  1	  1	0.67974	  1	0.70000	  0	 23	 62	 63	  0	
07-May-2013	sub2337	2337	  2	  1	124	  3	  2	  1	  5	  4	  1	  1	  1	0.44408	  1	0.70000	  0	 21	 60	 61	  1	
07-May-2013	sub2337	2337	  2	  1	125	  3	  2	  5	  3	  5	  0	  1	  0	0.67627	  1	0.70000	  0	 25	 67	 88	  0	
07-May-2013	sub2337	2337	  2	  1	126	  3	  2	  5	  3	  5	  0	  2	  1	0.49934	  0	0.70000	  0	 25	 87	 68	  1	
07-May-2013	sub2337	2337	  2	  1	127	  3	  2	  3	  2	  6	  1	  1	  1	0.45637	  1	0.70000	  0	 23	 62	 63	  1	
07-May-2013	sub2337	2337	  2	  1	128	  3	  2	  6	  1	  1	  1	  2	  1	0.46975	  1	0.70000	  0	 26	 65	 66	  1	
07-May-2013	sub2337	2337	  2	  1	129	  3	  2	  6	  1	  1	  1	  2	  1	0.44919	  1	0.70000	  0	 26	 65	 66	  1	
07-May-2013	sub2337	2337	  2	  1	130	  3	  2	  2	  4	  5	  1	  2	  1	0.69731	  1	0.70000	  0	 22	 60	 61	  0	
07-May-2013	sub2337	2337	  2	  1	131	  3	  2	  2	  4	  5	  1	  2	  1	0.44526	  1	0.70000	  0	 22	 60	 61	  1	
07-May-2013	sub2337	2337	  2	  1	132	  3	  2	  4	  6	  5	  1	  2	  1	0.60982	  1	0.70000	  0	 24	 62	 63	  0	
07-May-2013	sub2337	2337	  2	  1	133	  3	  2	  5	  3	  5	  0	  2	  1	0.65740	  0	0.70000	  0	 25	 87	 68	  0	
07-May-2013	sub2337	2337	  2	  1	134	  3	  2	  2	  4	  5	  1	  2	  1	0.57209	  1	0.70000	  0	 22	 60	 61	  0	
07-May-2013	sub2337	2337	  2	  1	135	  3	  2	  4	  6	  5	  1	  2	  1	0.46334	  1	0.70000	  0	 24	 62	 63	  1	
07-May-2013	sub2337	2337	  2	  1	136	  3	  2	  3	  2	  6	  1	  1	  1	0.53400	  1	0.70000	  0	 23	 62	 63	  0	
07-May-2013	sub2337	2337	  2	  1	137	  3	  2	  2	  4	  5	  1	  2	  1	0.42052	  1	0.70000	  0	 22	 60	 61	  1	
07-May-2013	sub2337	2337	  2	  1	138	  3	  2	  2	  4	  5	  1	  2	  1	0.43325	  1	0.70000	  0	 22	 60	 61	  1	
07-May-2013	sub2337	2337	  2	  1	139	  3	  2	  6	  1	  1	  0	  2	  0	0.48675	  1	0.70000	  0	 26	 67	 88	  1	
07-May-2013	sub2337	2337	  2	  1	140	  3	  2	  3	  2	  6	  1	  1	  1	0.52391	  1	0.70000	  0	 23	 62	 63	  0	
07-May-2013	sub2337	2337	  2	  1	141	  3	  2	  4	  6	  5	  1	  2	  1	0.50221	  1	0.60000	  0	 24	 62	 63	  0	
07-May-2013	sub2337	2337	  2	  1	142	  3	  2	  3	  2	  6	  1	  1	  1	0.53463	  1	0.60000	  0	 23	 62	 63	  0	
07-May-2013	sub2337	2337	  2	  1	143	  3	  2	  6	  1	  1	  1	  2	  1	0.54271	  1	0.60000	  0	 26	 65	 66	  0	
07-May-2013	sub2337	2337	  2	  1	144	  3	  2	  6	  1	  1	  1	  2	  1	0.51879	  1	0.60000	  0	 26	 65	 66	  0	
07-May-2013	sub2337	2337	  2	  1	145	  3	  2	  1	  5	  4	  1	  1	  1	0.53305	  1	0.60000	  0	 21	 60	 61	  0	
07-May-2013	sub2337	2337	  2	  1	146	  3	  2	  4	  6	  5	  0	  2	  0	0.52390	  1	0.60000	  0	 24	 64	 89	  0	
07-May-2013	sub2337	2337	  2	  1	147	  3	  2	  4	  6	  5	  1	  2	  1	0.49349	  1	0.60000	  0	 24	 62	 63	  1	
07-May-2013	sub2337	2337	  2	  1	148	  3	  2	  4	  6	  5	  1	  2	  1	0.58553	  1	0.60000	  0	 24	 62	 63	  0	
07-May-2013	sub2337	2337	  2	  1	149	  3	  2	  1	  5	  4	  1	  1	  1	0.50235	  1	0.60000	  0	 21	 60	 61	  0	
07-May-2013	sub2337	2337	  2	  1	150	  3	  2	  1	  5	  4	  1	  1	  1	0.54368	  1	0.60000	  0	 21	 60	 61	  0	
07-May-2013	sub2337	2337	  2	  1	  1	  4	  1	  5	  4	  3	  1	  1	  1	0.69119	  1	0.60000	  1	 15	 35	 51	  0	
07-May-2013	sub2337	2337	  2	  1	  2	  4	  1	  4	  6	  3	  1	  2	  1	0.34698	  1	0.90000	  0	 14	 32	 33	  1	
07-May-2013	sub2337	2337	  2	  1	  3	  4	  1	  3	  1	  3	  1	  1	  1	0.63266	  1	0.90000	  0	 13	 32	 33	  0	
07-May-2013	sub2337	2337	  2	  1	  4	  4	  1	  6	  5	  1	  1	  2	  1	0.39994	  1	0.90000	  0	 16	 35	 36	  1	
07-May-2013	sub2337	2337	  2	  1	  5	  4	  1	  4	  6	  3	  1	  2	  1	0.69290	  1	0.90000	  0	 14	 32	 33	  0	
07-May-2013	sub2337	2337	  2	  1	  6	  4	  1	  4	  6	  3	  1	  2	  1	0.48054	  1	0.90000	  0	 14	 32	 33	  1	
07-May-2013	sub2337	2337	  2	  1	  7	  4	  1	  1	  2	  5	  1	  1	  1	0.62050	  1	0.90000	  0	 11	 30	 31	  0	
07-May-2013	sub2337	2337	  2	  1	  8	  4	  1	  1	  2	  5	  1	  1	  1	0.47192	  1	0.90000	  0	 11	 30	 31	  1	
07-May-2013	sub2337	2337	  2	  1	  9	  4	  1	  5	  4	  3	  0	  2	  1	0.52669	  0	0.90000	  0	 15	 47	 38	  0	
07-May-2013	sub2337	2337	  2	  1	 10	  4	  1	  2	  3	  3	  1	  2	  1	0.57138	  1	0.90000	  0	 12	 30	 31	  0	
07-May-2013	sub2337	2337	  2	  1	 11	  4	  1	  4	  6	  3	  1	  2	  1	0.55644	  1	0.90000	  0	 14	 32	 33	  0	
07-May-2013	sub2337	2337	  2	  1	 12	  4	  1	  1	  2	  5	  1	  1	  1	0.57251	  1	0.90000	  0	 11	 30	 31	  0	
07-May-2013	sub2337	2337	  2	  1	 13	  4	  1	  5	  4	  3	  0	  2	  1	0.53277	  0	0.90000	  0	 15	 47	 38	  0	
07-May-2013	sub2337	2337	  2	  1	 14	  4	  1	  3	  1	  3	  1	  1	  1	0.64237	  1	0.90000	  0	 13	 32	 33	  0	
07-May-2013	sub2337	2337	  2	  1	 15	  4	  1	  5	  4	  3	  1	  2	  0	0.57913	  0	0.90000	  0	 15	 45	 46	  0	
07-May-2013	sub2337	2337	  2	  1	 16	  4	  1	  5	  4	  3	  1	  2	  0	0.49857	  0	0.80000	  0	 15	 45	 46	  1	
07-May-2013	sub2337	2337	  2	  1	 17	  4	  1	  5	  4	  3	  0	  1	  0	0.48022	  1	0.80000	  0	 15	 37	 48	  1	
07-May-2013	sub2337	2337	  2	  1	 18	  4	  1	  2	  3	  3	  1	  2	  1	0.67001	  1	0.70000	  0	 12	 30	 31	  0	
07-May-2013	sub2337	2337	  2	  1	 19	  4	  1	  2	  3	  3	  1	  2	  1	0.52121	  1	0.70000	  0	 12	 30	 31	  0	
07-May-2013	sub2337	2337	  2	  1	 20	  4	  1	  3	  1	  3	  1	  1	  1	0.60590	  1	0.70000	  0	 13	 32	 33	  0	
07-May-2013	sub2337	2337	  2	  1	 21	  4	  1	  3	  1	  3	  0	  1	  0	0.47062	  1	0.60000	  0	 13	 34	 49	  1	
07-May-2013	sub2337	2337	  2	  1	 22	  4	  1	  2	  3	  3	  1	  2	  1	0.53853	  1	0.60000	  0	 12	 30	 31	  0	
07-May-2013	sub2337	2337	  2	  1	 23	  4	  1	  3	  1	  3	  1	  1	  1	0.61955	  1	0.60000	  1	 13	 32	 51	  0	
07-May-2013	sub2337	2337	  2	  1	 24	  4	  1	  6	  5	  1	  1	  2	  1	0.57988	  1	0.90000	  0	 16	 35	 36	  0	
07-May-2013	sub2337	2337	  2	  1	 25	  4	  1	  1	  2	  5	  1	  1	  1	0.51374	  1	0.90000	  0	 11	 30	 31	  0	
07-May-2013	sub2337	2337	  2	  1	 26	  4	  1	  2	  3	  3	  1	  2	  1	0.42358	  1	0.90000	  0	 12	 30	 31	  1	
07-May-2013	sub2337	2337	  2	  1	 27	  4	  1	  2	  3	  3	  1	  2	  1	0.51393	  1	0.90000	  0	 12	 30	 31	  0	
07-May-2013	sub2337	2337	  2	  1	 28	  4	  1	  6	  5	  1	  0	  2	  0	0.47446	  1	0.90000	  0	 16	 37	 48	  1	
07-May-2013	sub2337	2337	  2	  1	 29	  4	  1	  6	  5	  1	  1	  1	  0	0.45019	  0	0.90000	  0	 16	 45	 46	  1	
07-May-2013	sub2337	2337	  2	  1	 30	  4	  1	  3	  1	  3	  1	  1	  1	0.46303	  1	0.80000	  0	 13	 32	 33	  1	
07-May-2013	sub2337	2337	  2	  1	 31	  4	  1	  6	  5	  1	  1	  2	  1	0.65950	  1	0.80000	  0	 16	 35	 36	  0	
07-May-2013	sub2337	2337	  2	  1	 32	  4	  1	  6	  5	  1	  1	  2	  1	0.57663	  1	0.80000	  0	 16	 35	 36	  0	
07-May-2013	sub2337	2337	  2	  1	 33	  4	  1	  4	  6	  3	  1	  2	  1	0.53092	  1	0.80000	  0	 14	 32	 33	  0	
07-May-2013	sub2337	2337	  2	  1	 34	  4	  1	  1	  2	  5	  1	  2	  0	0.50781	  0	0.80000	  0	 11	 40	 41	  0	
07-May-2013	sub2337	2337	  2	  1	 35	  4	  1	  1	  2	  5	  1	  1	  1	0.43968	  1	0.70000	  0	 11	 30	 31	  1	
07-May-2013	sub2337	2337	  2	  1	 36	  4	  1	  5	  4	  3	  0	  2	  1	0.74399	  0	0.70000	  1	 15	 47	 51	  0	
07-May-2013	sub2337	2337	  2	  1	 37	  4	  1	  2	  3	  3	  1	  2	  1	0.66202	  1	0.90000	  0	 12	 30	 31	  0	
07-May-2013	sub2337	2337	  2	  1	 38	  4	  1	  3	  1	  3	  1	  1	  1	0.52851	  1	0.90000	  0	 13	 32	 33	  0	
07-May-2013	sub2337	2337	  2	  1	 39	  4	  1	  2	  3	  3	  1	  2	  1	0.43872	  1	0.90000	  0	 12	 30	 31	  1	
07-May-2013	sub2337	2337	  2	  1	 40	  4	  1	  5	  4	  3	  0	  2	  1	0.55486	  0	0.90000	  0	 15	 47	 38	  0	
07-May-2013	sub2337	2337	  2	  1	 41	  4	  1	  5	  4	  3	  1	  2	  0	0.72676	  0	0.90000	  0	 15	 45	 46	  0	
07-May-2013	sub2337	2337	  2	  1	 42	  4	  1	  5	  4	  3	  1	  2	  0	0.39688	  0	0.90000	  0	 15	 45	 46	  1	
07-May-2013	sub2337	2337	  2	  1	 43	  4	  1	  3	  1	  3	  1	  1	  1	0.54454	  1	0.90000	  0	 13	 32	 33	  0	
07-May-2013	sub2337	2337	  2	  1	 44	  4	  1	  1	  2	  5	  1	  1	  1	0.81709	  1	0.80000	  1	 11	 30	 51	  0	
07-May-2013	sub2337	2337	  2	  1	 45	  4	  1	  6	  5	  1	  1	  2	  1	0.64949	  1	0.90000	  0	 16	 35	 36	  0	
07-May-2013	sub2337	2337	  2	  1	 46	  4	  1	  2	  3	  3	  1	  2	  1	0.49330	  1	0.90000	  0	 12	 30	 31	  1	
07-May-2013	sub2337	2337	  2	  1	 47	  4	  1	  3	  1	  3	  1	  1	  1	0.39786	  1	0.90000	  0	 13	 32	 33	  1	
07-May-2013	sub2337	2337	  2	  1	 48	  4	  1	  4	  6	  3	  1	  2	  1	0.42392	  1	0.90000	  0	 14	 32	 33	  1	
07-May-2013	sub2337	2337	  2	  1	 49	  4	  1	  3	  1	  3	  0	  1	  0	0.53089	  1	0.90000	  0	 13	 34	 49	  0	
07-May-2013	sub2337	2337	  2	  1	 50	  4	  1	  4	  6	  3	  1	  2	  1	0.49978	  1	0.90000	  0	 14	 32	 33	  1	
07-May-2013	sub2337	2337	  2	  1	 51	  4	  1	  1	  2	  5	  1	  1	  1	0.67338	  1	0.90000	  0	 11	 30	 31	  0	
07-May-2013	sub2337	2337	  2	  1	 52	  4	  1	  2	  3	  3	  1	  2	  1	0.49954	  1	0.90000	  0	 12	 30	 31	  1	
07-May-2013	sub2337	2337	  2	  1	 53	  4	  1	  1	  2	  5	  1	  1	  1	0.44535	  1	0.90000	  0	 11	 30	 31	  1	
07-May-2013	sub2337	2337	  2	  1	 54	  4	  1	  5	  4	  3	  0	  2	  1	0.59515	  0	0.90000	  0	 15	 47	 38	  0	
07-May-2013	sub2337	2337	  2	  1	 55	  4	  1	  5	  4	  3	  1	  2	  0	0.48756	  0	0.90000	  0	 15	 45	 46	  1	
07-May-2013	sub2337	2337	  2	  1	 56	  4	  1	  3	  1	  3	  1	  1	  1	0.50249	  1	0.90000	  0	 13	 32	 33	  0	
07-May-2013	sub2337	2337	  2	  1	 57	  4	  1	  6	  5	  1	  1	  2	  1	0.56102	  1	0.90000	  0	 16	 35	 36	  0	
07-May-2013	sub2337	2337	  2	  1	 58	  4	  1	  6	  5	  1	  0	  2	  0	0.56490	  1	0.90000	  0	 16	 37	 48	  0	
07-May-2013	sub2337	2337	  2	  1	 59	  4	  1	  3	  1	  3	  0	  1	  0	0.46950	  1	0.80000	  0	 13	 34	 49	  1	
07-May-2013	sub2337	2337	  2	  1	 60	  4	  1	  3	  1	  3	  1	  1	  1	0.43741	  1	0.80000	  0	 13	 32	 33	  1	
07-May-2013	sub2337	2337	  2	  1	 61	  4	  1	  1	  2	  5	  1	  1	  1	0.41351	  1	0.80000	  0	 11	 30	 31	  1	
07-May-2013	sub2337	2337	  2	  1	 62	  4	  1	  1	  2	  5	  1	  1	  1	0.47526	  1	0.80000	  0	 11	 30	 31	  1	
07-May-2013	sub2337	2337	  2	  1	 63	  4	  1	  4	  6	  3	  1	  2	  1	0.59700	  1	0.80000	  0	 14	 32	 33	  0	
07-May-2013	sub2337	2337	  2	  1	 64	  4	  1	  6	  5	  1	  0	  2	  0	0.52070	  1	0.80000	  0	 16	 37	 48	  0	
07-May-2013	sub2337	2337	  2	  1	 65	  4	  1	  4	  6	  3	  1	  2	  1	1.00909	  1	0.80000	  1	 14	 32	 51	  0	
07-May-2013	sub2337	2337	  2	  1	 66	  4	  1	  2	  3	  3	  1	  2	  1	0.31978	  1	0.90000	  0	 12	 30	 31	  1	
07-May-2013	sub2337	2337	  2	  1	 67	  4	  1	  4	  6	  3	  0	  2	  0	0.48836	  1	0.90000	  0	 14	 34	 49	  1	
07-May-2013	sub2337	2337	  2	  1	 68	  4	  1	  2	  3	  3	  1	  2	  1	0.44588	  1	0.90000	  0	 12	 30	 31	  1	
07-May-2013	sub2337	2337	  2	  1	 69	  4	  1	  6	  5	  1	  0	  2	  0	0.46864	  1	0.90000	  0	 16	 37	 48	  1	
07-May-2013	sub2337	2337	  2	  1	 70	  4	  1	  4	  6	  3	  0	  2	  0	0.45884	  1	0.90000	  0	 14	 34	 49	  1	
07-May-2013	sub2337	2337	  2	  1	 71	  4	  1	  2	  3	  3	  1	  2	  1	0.43480	  1	0.90000	  0	 12	 30	 31	  1	
07-May-2013	sub2337	2337	  2	  1	 72	  4	  1	  6	  5	  1	  0	  2	  0	0.48552	  1	0.90000	  0	 16	 37	 48	  1	
07-May-2013	sub2337	2337	  2	  1	 73	  4	  1	  4	  6	  3	  1	  2	  1	0.48806	  1	0.80000	  0	 14	 32	 33	  1	
07-May-2013	sub2337	2337	  2	  1	 74	  4	  1	  6	  5	  1	  0	  2	  0	0.50838	  1	0.80000	  0	 16	 37	 48	  0	
07-May-2013	sub2337	2337	  2	  1	 75	  4	  1	  1	  2	  5	  1	  1	  1	0.63776	  1	0.80000	  0	 11	 30	 31	  0	
07-May-2013	sub2337	2337	  2	  1	 76	  4	  2	  5	  4	  3	  0	  2	  1	0.60027	  0	0.80000	  0	 25	 87	 68	  0	
07-May-2013	sub2337	2337	  2	  1	 77	  4	  2	  5	  4	  3	  0	  2	  1	0.59627	  0	0.80000	  0	 25	 87	 68	  0	
07-May-2013	sub2337	2337	  2	  1	 78	  4	  2	  3	  1	  3	  1	  1	  1	0.64120	  1	0.80000	  0	 23	 62	 63	  0	
07-May-2013	sub2337	2337	  2	  1	 79	  4	  2	  6	  5	  1	  0	  2	  0	0.52924	  1	0.80000	  0	 26	 67	 88	  0	
07-May-2013	sub2337	2337	  2	  1	 80	  4	  2	  4	  6	  3	  0	  2	  0	0.59037	  1	0.80000	  0	 24	 64	 89	  0	
07-May-2013	sub2337	2337	  2	  1	 81	  4	  2	  4	  6	  3	  1	  2	  1	0.51350	  1	0.80000	  0	 24	 62	 63	  0	
07-May-2013	sub2337	2337	  2	  1	 82	  4	  2	  4	  6	  3	  1	  2	  1	0.44684	  1	0.80000	  0	 24	 62	 63	  1	
07-May-2013	sub2337	2337	  2	  1	 83	  4	  2	  3	  1	  3	  1	  1	  1	0.56386	  1	0.80000	  0	 23	 62	 63	  0	
07-May-2013	sub2337	2337	  2	  1	 84	  4	  2	  2	  3	  3	  1	  2	  1	0.49513	  1	0.80000	  0	 22	 60	 61	  1	
07-May-2013	sub2337	2337	  2	  1	 85	  4	  2	  4	  6	  3	  1	  2	  1	0.52187	  1	0.70000	  0	 24	 62	 63	  0	
07-May-2013	sub2337	2337	  2	  1	 86	  4	  2	  2	  3	  3	  1	  2	  1	0.42448	  1	0.70000	  0	 22	 60	 61	  1	
07-May-2013	sub2337	2337	  2	  1	 87	  4	  2	  5	  4	  3	  0	  2	  1	0.59583	  0	0.70000	  0	 25	 87	 68	  0	
07-May-2013	sub2337	2337	  2	  1	 88	  4	  2	  3	  1	  3	  1	  1	  1	0.46172	  1	0.70000	  0	 23	 62	 63	  1	
07-May-2013	sub2337	2337	  2	  1	 89	  4	  2	  4	  6	  3	  0	  2	  0	0.50673	  1	0.70000	  0	 24	 64	 89	  0	
07-May-2013	sub2337	2337	  2	  1	 90	  4	  2	  3	  1	  3	  1	  1	  1	0.46245	  1	0.70000	  0	 23	 62	 63	  1	
07-May-2013	sub2337	2337	  2	  1	 91	  4	  2	  6	  5	  1	  0	  1	  1	0.47167	  0	0.70000	  0	 26	 87	 68	  1	
07-May-2013	sub2337	2337	  2	  1	 92	  4	  2	  3	  1	  3	  1	  1	  1	0.42568	  1	0.70000	  0	 23	 62	 63	  1	
07-May-2013	sub2337	2337	  2	  1	 93	  4	  2	  2	  3	  3	  1	  2	  1	0.46219	  1	0.70000	  0	 22	 60	 61	  1	
07-May-2013	sub2337	2337	  2	  1	 94	  4	  2	  6	  5	  1	  1	  2	  1	0.46616	  1	0.70000	  0	 26	 65	 66	  1	
07-May-2013	sub2337	2337	  2	  1	 95	  4	  2	  1	  2	  5	  1	  1	  1	0.43372	  1	0.70000	  0	 21	 60	 61	  1	
07-May-2013	sub2337	2337	  2	  1	 96	  4	  2	  1	  2	  5	  1	  1	  1	0.39778	  1	0.70000	  0	 21	 60	 61	  1	
07-May-2013	sub2337	2337	  2	  1	 97	  4	  2	  1	  2	  5	  1	  1	  1	0.40855	  1	0.70000	  0	 21	 60	 61	  1	
07-May-2013	sub2337	2337	  2	  1	 98	  4	  2	  5	  4	  3	  0	  1	  0	0.53765	  1	0.70000	  0	 25	 67	 88	  0	
07-May-2013	sub2337	2337	  2	  1	 99	  4	  2	  1	  2	  5	  1	  1	  1	0.58077	  1	0.70000	  0	 21	 60	 61	  0	
07-May-2013	sub2337	2337	  2	  1	100	  4	  2	  6	  5	  1	  1	  1	  0	0.54063	  0	0.70000	  0	 26	 85	 86	  0	
07-May-2013	sub2337	2337	  2	  1	101	  4	  2	  4	  6	  3	  1	  2	  1	0.53725	  1	0.60000	  0	 24	 62	 63	  0	
07-May-2013	sub2337	2337	  2	  1	102	  4	  2	  4	  6	  3	  0	  2	  0	0.51893	  1	0.60000	  0	 24	 64	 89	  0	
07-May-2013	sub2337	2337	  2	  1	103	  4	  2	  3	  1	  3	  1	  1	  1	0.46742	  1	0.60000	  0	 23	 62	 63	  1	
07-May-2013	sub2337	2337	  2	  1	104	  4	  2	  4	  6	  3	  1	  2	  1	0.54812	  1	0.60000	  0	 24	 62	 63	  0	
07-May-2013	sub2337	2337	  2	  1	105	  4	  2	  4	  6	  3	  1	  2	  1	0.36781	  1	0.60000	  0	 24	 62	 63	  1	
07-May-2013	sub2337	2337	  2	  1	106	  4	  2	  6	  5	  1	  0	  1	  1	0.57233	  0	0.60000	  0	 26	 87	 68	  0	
07-May-2013	sub2337	2337	  2	  1	107	  4	  2	  2	  3	  3	  1	  2	  1	0.43646	  1	0.60000	  0	 22	 60	 61	  1	
07-May-2013	sub2337	2337	  2	  1	108	  4	  2	  4	  6	  3	  1	  2	  1	0.56008	  1	0.60000	  0	 24	 62	 63	  0	
07-May-2013	sub2337	2337	  2	  1	109	  4	  2	  5	  4	  3	  0	  2	  1	0.58578	  0	0.60000	  0	 25	 87	 68	  0	
07-May-2013	sub2337	2337	  2	  1	110	  4	  2	  2	  3	  3	  1	  2	  1	0.40776	  1	0.60000	  0	 22	 60	 61	  1	
07-May-2013	sub2337	2337	  2	  1	111	  4	  2	  3	  1	  3	  0	  1	  0	0.51343	  1	0.60000	  0	 23	 64	 89	  0	
07-May-2013	sub2337	2337	  2	  1	112	  4	  2	  4	  6	  3	  1	  2	  1	0.70434	  1	0.60000	  1	 24	 62	 51	  0	
07-May-2013	sub2337	2337	  2	  1	113	  4	  2	  3	  1	  3	  1	  1	  1	0.51941	  1	0.70000	  0	 23	 62	 63	  0	
07-May-2013	sub2337	2337	  2	  1	114	  4	  2	  3	  1	  3	  1	  1	  1	0.41853	  1	0.70000	  0	 23	 62	 63	  1	
07-May-2013	sub2337	2337	  2	  1	115	  4	  2	  2	  3	  3	  1	  2	  1	0.48848	  1	0.70000	  0	 22	 60	 61	  1	
07-May-2013	sub2337	2337	  2	  1	116	  4	  2	  6	  5	  1	  1	  2	  1	0.39484	  1	0.70000	  0	 26	 65	 66	  1	
07-May-2013	sub2337	2337	  2	  1	117	  4	  2	  1	  2	  5	  1	  1	  1	0.52644	  1	0.70000	  0	 21	 60	 61	  0	
07-May-2013	sub2337	2337	  2	  1	118	  4	  2	  2	  3	  3	  1	  2	  1	0.48506	  1	0.70000	  0	 22	 60	 61	  1	
07-May-2013	sub2337	2337	  2	  1	119	  4	  2	  5	  4	  3	  0	  2	  1	0.55496	  0	0.70000	  0	 25	 87	 68	  0	
07-May-2013	sub2337	2337	  2	  1	120	  4	  2	  1	  2	  5	  1	  1	  1	0.59120	  1	0.70000	  0	 21	 60	 61	  0	
07-May-2013	sub2337	2337	  2	  1	121	  4	  2	  4	  6	  3	  1	  2	  1	0.53667	  1	0.60000	  0	 24	 62	 63	  0	
07-May-2013	sub2337	2337	  2	  1	122	  4	  2	  6	  5	  1	  0	  1	  1	0.55685	  0	0.60000	  0	 26	 87	 68	  0	
07-May-2013	sub2337	2337	  2	  1	123	  4	  2	  4	  6	  3	  1	  2	  1	0.53703	  1	0.60000	  0	 24	 62	 63	  0	
07-May-2013	sub2337	2337	  2	  1	124	  4	  2	  1	  2	  5	  1	  1	  1	0.60991	  1	0.60000	  1	 21	 60	 51	  0	
07-May-2013	sub2337	2337	  2	  1	125	  4	  2	  2	  3	  3	  1	  2	  1	0.45372	  1	0.70000	  0	 22	 60	 61	  1	
07-May-2013	sub2337	2337	  2	  1	126	  4	  2	  1	  2	  5	  1	  1	  1	0.40959	  1	0.70000	  0	 21	 60	 61	  1	
07-May-2013	sub2337	2337	  2	  1	127	  4	  2	  5	  4	  3	  0	  2	  1	0.65755	  0	0.70000	  0	 25	 87	 68	  0	
07-May-2013	sub2337	2337	  2	  1	128	  4	  2	  3	  1	  3	  1	  1	  1	0.50486	  1	0.70000	  0	 23	 62	 63	  0	
07-May-2013	sub2337	2337	  2	  1	129	  4	  2	  1	  2	  5	  1	  1	  1	0.45728	  1	0.70000	  0	 21	 60	 61	  1	
07-May-2013	sub2337	2337	  2	  1	130	  4	  2	  5	  4	  3	  0	  2	  1	0.52401	  0	0.70000	  0	 25	 87	 68	  0	
07-May-2013	sub2337	2337	  2	  1	131	  4	  2	  6	  5	  1	  0	  1	  1	0.66491	  0	0.70000	  0	 26	 87	 68	  0	
07-May-2013	sub2337	2337	  2	  1	132	  4	  2	  5	  4	  3	  0	  2	  1	0.52239	  0	0.70000	  0	 25	 87	 68	  0	
07-May-2013	sub2337	2337	  2	  1	133	  4	  2	  2	  3	  3	  1	  2	  1	0.52729	  1	0.70000	  0	 22	 60	 61	  0	
07-May-2013	sub2337	2337	  2	  1	134	  4	  2	  1	  2	  5	  1	  1	  1	0.48752	  1	0.70000	  0	 21	 60	 61	  1	
07-May-2013	sub2337	2337	  2	  1	135	  4	  2	  5	  4	  3	  0	  2	  1	0.49612	  0	0.70000	  0	 25	 87	 68	  1	
07-May-2013	sub2337	2337	  2	  1	136	  4	  2	  2	  3	  3	  1	  2	  1	0.50693	  1	0.70000	  0	 22	 60	 61	  0	
07-May-2013	sub2337	2337	  2	  1	137	  4	  2	  6	  5	  1	  1	  2	  1	0.64278	  1	0.70000	  0	 26	 65	 66	  0	
07-May-2013	sub2337	2337	  2	  1	138	  4	  2	  6	  5	  1	  0	  1	  1	0.59438	  0	0.70000	  0	 26	 87	 68	  0	
07-May-2013	sub2337	2337	  2	  1	139	  4	  2	  3	  1	  3	  0	  1	  0	0.53116	  1	0.70000	  0	 23	 64	 89	  0	
07-May-2013	sub2337	2337	  2	  1	140	  4	  2	  1	  2	  5	  1	  1	  1	0.52406	  1	0.70000	  0	 21	 60	 61	  0	
07-May-2013	sub2337	2337	  2	  1	141	  4	  2	  2	  3	  3	  1	  2	  1	0.61519	  1	0.60000	  1	 22	 60	 51	  0	
07-May-2013	sub2337	2337	  2	  1	142	  4	  2	  1	  2	  5	  1	  1	  1	0.48346	  1	0.70000	  0	 21	 60	 61	  1	
07-May-2013	sub2337	2337	  2	  1	143	  4	  2	  6	  5	  1	  1	  1	  0	0.44334	  0	0.70000	  0	 26	 85	 86	  1	
07-May-2013	sub2337	2337	  2	  1	144	  4	  2	  5	  4	  3	  0	  2	  1	0.48781	  0	0.70000	  0	 25	 87	 68	  1	
07-May-2013	sub2337	2337	  2	  1	145	  4	  2	  6	  5	  1	  1	  1	  0	0.55112	  0	0.70000	  0	 26	 85	 86	  0	
07-May-2013	sub2337	2337	  2	  1	146	  4	  2	  3	  1	  3	  1	  1	  1	0.52493	  1	0.70000	  0	 23	 62	 63	  0	
07-May-2013	sub2337	2337	  2	  1	147	  4	  2	  2	  3	  3	  1	  2	  1	0.49099	  1	0.70000	  0	 22	 60	 61	  1	
07-May-2013	sub2337	2337	  2	  1	148	  4	  2	  5	  4	  3	  0	  1	  0	0.52793	  1	0.70000	  0	 25	 67	 88	  0	
07-May-2013	sub2337	2337	  2	  1	149	  4	  2	  5	  4	  3	  0	  2	  1	0.53049	  0	0.70000	  0	 25	 87	 68	  0	
07-May-2013	sub2337	2337	  2	  1	150	  4	  2	  1	  2	  5	  1	  1	  1	0.47692	  1	0.70000	  0	 21	 60	 61	  1	
07-May-2013	sub2337	2337	  2	  1	  1	  5	  1	  4	  3	  4	  1	  1	  0	0.57323	  0	0.60000	  0	 14	 42	 43	  0	
07-May-2013	sub2337	2337	  2	  1	  2	  5	  1	  6	  5	  2	  0	  1	  1	0.43808	  0	0.30000	  1	 16	 47	 51	  1	
07-May-2013	sub2337	2337	  2	  1	  3	  5	  1	  2	  2	  2	  1	  1	  0	0.37227	  0	0.90000	  0	 12	 40	 41	  1	
07-May-2013	sub2337	2337	  2	  1	  4	  5	  1	  1	  6	  4	  1	  1	  1	0.51695	  1	0.90000	  0	 11	 30	 31	  0	
07-May-2013	sub2337	2337	  2	  1	  5	  5	  1	  1	  6	  4	  1	  1	  1	0.46623	  1	0.90000	  0	 11	 30	 31	  1	
07-May-2013	sub2337	2337	  2	  1	  6	  5	  1	  3	  4	  4	  1	  1	  1	0.30727	  1	0.90000	  0	 13	 32	 33	  1	
07-May-2013	sub2337	2337	  2	  1	  7	  5	  1	  1	  6	  4	  1	  1	  1	0.57157	  1	0.90000	  0	 11	 30	 31	  0	
07-May-2013	sub2337	2337	  2	  1	  8	  5	  1	  4	  3	  4	  1	  2	  1	0.47352	  1	0.90000	  0	 14	 32	 33	  1	
07-May-2013	sub2337	2337	  2	  1	  9	  5	  1	  3	  4	  4	  1	  1	  1	0.71256	  1	0.90000	  0	 13	 32	 33	  0	
07-May-2013	sub2337	2337	  2	  1	 10	  5	  1	  3	  4	  4	  1	  1	  1	0.51664	  1	0.90000	  0	 13	 32	 33	  0	
07-May-2013	sub2337	2337	  2	  1	 11	  5	  1	  6	  5	  2	  1	  2	  1	0.45203	  1	0.90000	  0	 16	 35	 36	  1	
07-May-2013	sub2337	2337	  2	  1	 12	  5	  1	  3	  4	  4	  0	  1	  0	0.53288	  1	0.90000	  0	 13	 34	 49	  0	
07-May-2013	sub2337	2337	  2	  1	 13	  5	  1	  2	  2	  2	  1	  2	  1	0.68878	  1	0.90000	  0	 12	 30	 31	  0	
07-May-2013	sub2337	2337	  2	  1	 14	  5	  1	  6	  5	  2	  0	  2	  0	0.76171	  1	0.90000	  0	 16	 37	 48	  0	
07-May-2013	sub2337	2337	  2	  1	 15	  5	  1	  2	  2	  2	  1	  2	  1	0.88085	  1	0.90000	  0	 12	 30	 31	  0	
07-May-2013	sub2337	2337	  2	  1	 16	  5	  1	  5	  1	  4	  0	  2	  1	0.53335	  0	0.80000	  0	 15	 47	 38	  0	
07-May-2013	sub2337	2337	  2	  1	 17	  5	  1	  4	  3	  4	  1	  2	  1	0.51487	  1	0.80000	  0	 14	 32	 33	  0	
07-May-2013	sub2337	2337	  2	  1	 18	  5	  1	  6	  5	  2	  1	  2	  1	0.54423	  1	0.70000	  0	 16	 35	 36	  0	
07-May-2013	sub2337	2337	  2	  1	 19	  5	  1	  6	  5	  2	  1	  2	  1	0.60566	  1	0.70000	  0	 16	 35	 36	  0	
07-May-2013	sub2337	2337	  2	  1	 20	  5	  1	  4	  3	  4	  1	  2	  1	0.86180	  1	0.70000	  1	 14	 32	 51	  0	
07-May-2013	sub2337	2337	  2	  1	 21	  5	  1	  4	  3	  4	  1	  2	  1	0.42798	  1	0.90000	  0	 14	 32	 33	  1	
07-May-2013	sub2337	2337	  2	  1	 22	  5	  1	  1	  6	  4	  1	  1	  1	0.50440	  1	0.90000	  0	 11	 30	 31	  0	
07-May-2013	sub2337	2337	  2	  1	 23	  5	  1	  4	  3	  4	  1	  2	  1	0.41474	  1	0.90000	  0	 14	 32	 33	  1	
07-May-2013	sub2337	2337	  2	  1	 24	  5	  1	  5	  1	  4	  1	  1	  1	0.64232	  1	0.90000	  0	 15	 35	 36	  0	
07-May-2013	sub2337	2337	  2	  1	 25	  5	  1	  3	  4	  4	  0	  1	  0	0.52349	  1	0.90000	  0	 13	 34	 49	  0	
07-May-2013	sub2337	2337	  2	  1	 26	  5	  1	  6	  5	  2	  0	  2	  0	0.78933	  1	0.90000	  0	 16	 37	 48	  0	
07-May-2013	sub2337	2337	  2	  1	 27	  5	  1	  3	  4	  4	  1	  1	  1	0.58349	  1	0.90000	  0	 13	 32	 33	  0	
07-May-2013	sub2337	2337	  2	  1	 28	  5	  1	  4	  3	  4	  0	  2	  0	0.60407	  1	0.90000	  0	 14	 34	 49	  0	
07-May-2013	sub2337	2337	  2	  1	 29	  5	  1	  2	  2	  2	  1	  2	  1	0.58615	  1	0.90000	  0	 12	 30	 31	  0	
07-May-2013	sub2337	2337	  2	  1	 30	  5	  1	  3	  4	  4	  1	  2	  0	0.47164	  0	0.80000	  0	 13	 42	 43	  1	
07-May-2013	sub2337	2337	  2	  1	 31	  5	  1	  1	  6	  4	  1	  1	  1	0.59048	  1	0.80000	  0	 11	 30	 31	  0	
07-May-2013	sub2337	2337	  2	  1	 32	  5	  1	  1	  6	  4	  1	  1	  1	0.40433	  1	0.80000	  0	 11	 30	 31	  1	
07-May-2013	sub2337	2337	  2	  1	 33	  5	  1	  3	  4	  4	  1	  2	  0	0.42898	  0	0.80000	  0	 13	 42	 43	  1	
07-May-2013	sub2337	2337	  2	  1	 34	  5	  1	  2	  2	  2	  1	  2	  1	0.62129	  1	0.80000	  0	 12	 30	 31	  0	
07-May-2013	sub2337	2337	  2	  1	 35	  5	  1	  1	  6	  4	  1	  1	  1	0.61022	  1	0.70000	  0	 11	 30	 31	  0	
07-May-2013	sub2337	2337	  2	  1	 36	  5	  1	  4	  3	  4	  1	  2	  1	0.48128	  1	0.70000	  0	 14	 32	 33	  1	
07-May-2013	sub2337	2337	  2	  1	 37	  5	  1	  5	  1	  4	  1	  2	  0	0.53717	  0	0.70000	  0	 15	 45	 46	  0	
07-May-2013	sub2337	2337	  2	  1	 38	  5	  1	  2	  2	  2	  1	  2	  1	0.63920	  1	0.70000	  0	 12	 30	 31	  0	
07-May-2013	sub2337	2337	  2	  1	 39	  5	  1	  1	  6	  4	  1	  1	  1	0.54223	  1	0.70000	  0	 11	 30	 31	  0	
07-May-2013	sub2337	2337	  2	  1	 40	  5	  1	  6	  5	  2	  1	  2	  1	0.49827	  1	0.70000	  0	 16	 35	 36	  1	
07-May-2013	sub2337	2337	  2	  1	 41	  5	  1	  1	  6	  4	  1	  1	  1	0.50966	  1	0.60000	  0	 11	 30	 31	  0	
07-May-2013	sub2337	2337	  2	  1	 42	  5	  1	  2	  2	  2	  1	  2	  1	0.50804	  1	0.60000	  0	 12	 30	 31	  0	
07-May-2013	sub2337	2337	  2	  1	 43	  5	  1	  2	  2	  2	  1	  2	  1	0.48105	  1	0.60000	  0	 12	 30	 31	  1	
07-May-2013	sub2337	2337	  2	  1	 44	  5	  1	  6	  5	  2	  1	  2	  1	0.55111	  1	0.60000	  0	 16	 35	 36	  0	
07-May-2013	sub2337	2337	  2	  1	 45	  5	  1	  2	  2	  2	  1	  2	  1	0.56568	  1	0.60000	  0	 12	 30	 31	  0	
07-May-2013	sub2337	2337	  2	  1	 46	  5	  1	  5	  1	  4	  0	  2	  1	0.62630	  0	0.60000	  1	 15	 47	 51	  0	
07-May-2013	sub2337	2337	  2	  1	 47	  5	  1	  5	  1	  4	  0	  2	  1	0.43781	  0	0.80000	  0	 15	 47	 38	  1	
07-May-2013	sub2337	2337	  2	  1	 48	  5	  1	  4	  3	  4	  1	  2	  1	0.42707	  1	0.80000	  0	 14	 32	 33	  1	
07-May-2013	sub2337	2337	  2	  1	 49	  5	  1	  6	  5	  2	  0	  2	  0	0.37621	  1	0.80000	  0	 16	 37	 48	  1	
07-May-2013	sub2337	2337	  2	  1	 50	  5	  1	  5	  1	  4	  1	  2	  0	0.54807	  0	0.80000	  0	 15	 45	 46	  0	
07-May-2013	sub2337	2337	  2	  1	 51	  5	  1	  6	  5	  2	  0	  2	  0	0.40367	  1	0.70000	  0	 16	 37	 48	  1	
07-May-2013	sub2337	2337	  2	  1	 52	  5	  1	  5	  1	  4	  1	  2	  0	0.59752	  0	0.70000	  0	 15	 45	 46	  0	
07-May-2013	sub2337	2337	  2	  1	 53	  5	  1	  5	  1	  4	  1	  2	  0	0.45538	  0	0.70000	  0	 15	 45	 46	  1	
07-May-2013	sub2337	2337	  2	  1	 54	  5	  1	  5	  1	  4	  1	  1	  1	0.43932	  1	0.70000	  0	 15	 35	 36	  1	
07-May-2013	sub2337	2337	  2	  1	 55	  5	  1	  6	  5	  2	  0	  2	  0	0.48203	  1	0.70000	  0	 16	 37	 48	  1	
07-May-2013	sub2337	2337	  2	  1	 56	  5	  1	  4	  3	  4	  1	  2	  1	0.39240	  1	0.70000	  0	 14	 32	 33	  1	
07-May-2013	sub2337	2337	  2	  1	 57	  5	  1	  3	  4	  4	  0	  1	  0	0.72445	  1	0.70000	  1	 13	 34	 51	  0	
07-May-2013	sub2337	2337	  2	  1	 58	  5	  1	  2	  2	  2	  1	  2	  1	0.50977	  1	0.90000	  0	 12	 30	 31	  0	
07-May-2013	sub2337	2337	  2	  1	 59	  5	  1	  4	  3	  4	  0	  2	  0	0.50699	  1	0.80000	  0	 14	 34	 49	  0	
07-May-2013	sub2337	2337	  2	  1	 60	  5	  1	  3	  4	  4	  1	  1	  1	0.54918	  1	0.80000	  0	 13	 32	 33	  0	
07-May-2013	sub2337	2337	  2	  1	 61	  5	  1	  1	  6	  4	  1	  1	  1	0.51072	  1	0.80000	  0	 11	 30	 31	  0	
07-May-2013	sub2337	2337	  2	  1	 62	  5	  1	  5	  1	  4	  0	  2	  1	0.47906	  0	0.80000	  0	 15	 47	 38	  1	
07-May-2013	sub2337	2337	  2	  1	 63	  5	  1	  3	  4	  4	  1	  1	  1	0.51537	  1	0.80000	  0	 13	 32	 33	  0	
07-May-2013	sub2337	2337	  2	  1	 64	  5	  1	  1	  6	  4	  1	  1	  1	0.48473	  1	0.80000	  0	 11	 30	 31	  1	
07-May-2013	sub2337	2337	  2	  1	 65	  5	  1	  5	  1	  4	  1	  2	  0	0.46387	  0	0.80000	  0	 15	 45	 46	  1	
07-May-2013	sub2337	2337	  2	  1	 66	  5	  1	  1	  6	  4	  1	  1	  1	0.49543	  1	0.80000	  0	 11	 30	 31	  1	
07-May-2013	sub2337	2337	  2	  1	 67	  5	  1	  6	  5	  2	  0	  2	  0	0.51414	  1	0.80000	  0	 16	 37	 48	  0	
07-May-2013	sub2337	2337	  2	  1	 68	  5	  1	  4	  3	  4	  1	  2	  1	0.58937	  1	0.70000	  0	 14	 32	 33	  0	
07-May-2013	sub2337	2337	  2	  1	 69	  5	  1	  2	  2	  2	  1	  2	  1	0.45403	  1	0.70000	  0	 12	 30	 31	  1	
07-May-2013	sub2337	2337	  2	  1	 70	  5	  1	  2	  2	  2	  1	  2	  1	0.41312	  1	0.70000	  0	 12	 30	 31	  1	
07-May-2013	sub2337	2337	  2	  1	 71	  5	  1	  3	  4	  4	  1	  2	  0	0.36177	  0	0.70000	  0	 13	 42	 43	  1	
07-May-2013	sub2337	2337	  2	  1	 72	  5	  1	  5	  1	  4	  0	  2	  1	0.47718	  0	0.70000	  0	 15	 47	 38	  1	
07-May-2013	sub2337	2337	  2	  1	 73	  5	  1	  3	  4	  4	  1	  1	  1	0.54290	  1	0.70000	  0	 13	 32	 33	  0	
07-May-2013	sub2337	2337	  2	  1	 74	  5	  1	  6	  5	  2	  1	  2	  1	0.51901	  1	0.70000	  0	 16	 35	 36	  0	
07-May-2013	sub2337	2337	  2	  1	 75	  5	  1	  2	  2	  2	  1	  2	  1	0.55502	  1	0.70000	  0	 12	 30	 31	  0	
07-May-2013	sub2337	2337	  2	  1	 76	  5	  2	  2	  2	  2	  1	  2	  1	0.44979	  1	0.70000	  0	 22	 60	 61	  1	
07-May-2013	sub2337	2337	  2	  1	 77	  5	  2	  5	  1	  4	  0	  1	  0	0.65917	  1	0.70000	  0	 25	 67	 88	  0	
07-May-2013	sub2337	2337	  2	  1	 78	  5	  2	  5	  1	  4	  0	  2	  1	0.48351	  0	0.70000	  0	 25	 87	 68	  1	
07-May-2013	sub2337	2337	  2	  1	 79	  5	  2	  1	  6	  4	  1	  1	  1	0.47718	  1	0.70000	  0	 21	 60	 61	  1	
07-May-2013	sub2337	2337	  2	  1	 80	  5	  2	  4	  3	  4	  0	  2	  0	0.42812	  1	0.70000	  0	 24	 64	 89	  1	
07-May-2013	sub2337	2337	  2	  1	 81	  5	  2	  6	  5	  2	  1	  2	  1	0.48392	  1	0.60000	  0	 26	 65	 66	  1	
07-May-2013	sub2337	2337	  2	  1	 82	  5	  2	  2	  2	  2	  1	  2	  1	0.45469	  1	0.60000	  0	 22	 60	 61	  1	
07-May-2013	sub2337	2337	  2	  1	 83	  5	  2	  3	  4	  4	  0	  1	  0	0.52734	  1	0.60000	  0	 23	 64	 89	  0	
07-May-2013	sub2337	2337	  2	  1	 84	  5	  2	  1	  6	  4	  1	  1	  1	0.47058	  1	0.60000	  0	 21	 60	 61	  1	
07-May-2013	sub2337	2337	  2	  1	 85	  5	  2	  6	  5	  2	  1	  2	  1	0.44972	  1	0.60000	  0	 26	 65	 66	  1	
07-May-2013	sub2337	2337	  2	  1	 86	  5	  2	  4	  3	  4	  1	  2	  1	0.39834	  1	0.60000	  0	 24	 62	 63	  1	
07-May-2013	sub2337	2337	  2	  1	 87	  5	  2	  1	  6	  4	  1	  2	  0	0.44085	  0	0.60000	  0	 21	 80	 81	  1	
07-May-2013	sub2337	2337	  2	  1	 88	  5	  2	  6	  5	  2	  0	  2	  0	0.51092	  1	0.60000	  0	 26	 67	 88	  0	
07-May-2013	sub2337	2337	  2	  1	 89	  5	  2	  4	  3	  4	  1	  2	  1	0.43129	  1	0.60000	  0	 24	 62	 63	  1	
07-May-2013	sub2337	2337	  2	  1	 90	  5	  2	  6	  5	  2	  0	  2	  0	0.44124	  1	0.60000	  0	 26	 67	 88	  1	
07-May-2013	sub2337	2337	  2	  1	 91	  5	  2	  1	  6	  4	  1	  1	  1	0.48806	  1	0.60000	  0	 21	 60	 61	  1	
07-May-2013	sub2337	2337	  2	  1	 92	  5	  2	  3	  4	  4	  1	  1	  1	0.63956	  1	0.60000	  1	 23	 62	 51	  0	
07-May-2013	sub2337	2337	  2	  1	 93	  5	  2	  4	  3	  4	  0	  2	  0	0.41118	  1	0.70000	  0	 24	 64	 89	  1	
07-May-2013	sub2337	2337	  2	  1	 94	  5	  2	  1	  6	  4	  1	  1	  1	0.47842	  1	0.70000	  0	 21	 60	 61	  1	
07-May-2013	sub2337	2337	  2	  1	 95	  5	  2	  5	  1	  4	  0	  2	  1	0.56959	  0	0.70000	  0	 25	 87	 68	  0	
07-May-2013	sub2337	2337	  2	  1	 96	  5	  2	  3	  4	  4	  1	  1	  1	0.47652	  1	0.70000	  0	 23	 62	 63	  1	
07-May-2013	sub2337	2337	  2	  1	 97	  5	  2	  5	  1	  4	  0	  2	  1	0.46903	  0	0.70000	  0	 25	 87	 68	  1	
07-May-2013	sub2337	2337	  2	  1	 98	  5	  2	  1	  6	  4	  1	  1	  1	0.54496	  1	0.70000	  0	 21	 60	 61	  0	
07-May-2013	sub2337	2337	  2	  1	 99	  5	  2	  4	  3	  4	  1	  2	  1	0.51028	  1	0.70000	  0	 24	 62	 63	  0	
07-May-2013	sub2337	2337	  2	  1	100	  5	  2	  2	  2	  2	  1	  2	  1	0.50694	  1	0.70000	  0	 22	 60	 61	  0	
07-May-2013	sub2337	2337	  2	  1	101	  5	  2	  4	  3	  4	  1	  2	  1	0.38866	  1	0.60000	  0	 24	 62	 63	  1	
07-May-2013	sub2337	2337	  2	  1	102	  5	  2	  5	  1	  4	  0	  2	  1	0.39473	  0	0.60000	  0	 25	 87	 68	  1	
07-May-2013	sub2337	2337	  2	  1	103	  5	  2	  4	  3	  4	  1	  2	  1	0.41676	  1	0.60000	  0	 24	 62	 63	  1	
07-May-2013	sub2337	2337	  2	  1	104	  5	  2	  2	  2	  2	  1	  2	  1	0.43406	  1	0.60000	  0	 22	 60	 61	  1	
07-May-2013	sub2337	2337	  2	  1	105	  5	  2	  6	  5	  2	  0	  2	  0	0.45227	  1	0.60000	  0	 26	 67	 88	  1	
07-May-2013	sub2337	2337	  2	  1	106	  5	  2	  2	  2	  2	  1	  2	  1	0.51632	  1	0.60000	  0	 22	 60	 61	  0	
07-May-2013	sub2337	2337	  2	  1	107	  5	  2	  1	  6	  4	  1	  1	  1	0.51626	  1	0.60000	  0	 21	 60	 61	  0	
07-May-2013	sub2337	2337	  2	  1	108	  5	  2	  6	  5	  2	  1	  2	  1	0.49220	  1	0.60000	  0	 26	 65	 66	  1	
07-May-2013	sub2337	2337	  2	  1	109	  5	  2	  1	  6	  4	  1	  1	  1	0.44939	  1	0.60000	  0	 21	 60	 61	  1	
07-May-2013	sub2337	2337	  2	  1	110	  5	  2	  3	  4	  4	  1	  1	  1	0.55082	  1	0.60000	  0	 23	 62	 63	  0	
07-May-2013	sub2337	2337	  2	  1	111	  5	  2	  4	  3	  4	  0	  2	  0	0.43366	  1	0.60000	  0	 24	 64	 89	  1	
07-May-2013	sub2337	2337	  2	  1	112	  5	  2	  2	  2	  2	  1	  2	  1	0.56026	  1	0.60000	  0	 22	 60	 61	  0	
07-May-2013	sub2337	2337	  2	  1	113	  5	  2	  2	  2	  2	  1	  2	  1	0.48470	  1	0.60000	  0	 22	 60	 61	  1	
07-May-2013	sub2337	2337	  2	  1	114	  5	  2	  3	  4	  4	  0	  2	  1	0.41204	  0	0.60000	  0	 23	 84	 69	  1	
07-May-2013	sub2337	2337	  2	  1	115	  5	  2	  3	  4	  4	  1	  1	  1	0.39842	  1	0.60000	  0	 23	 62	 63	  1	
07-May-2013	sub2337	2337	  2	  1	116	  5	  2	  3	  4	  4	  1	  1	  1	0.46289	  1	0.60000	  0	 23	 62	 63	  1	
07-May-2013	sub2337	2337	  2	  1	117	  5	  2	  2	  2	  2	  1	  2	  1	0.55550	  1	0.60000	  0	 22	 60	 61	  0	
07-May-2013	sub2337	2337	  2	  1	118	  5	  2	  4	  3	  4	  1	  2	  1	0.48383	  1	0.60000	  0	 24	 62	 63	  1	
07-May-2013	sub2337	2337	  2	  1	119	  5	  2	  4	  3	  4	  1	  2	  1	0.40784	  1	0.60000	  0	 24	 62	 63	  1	
07-May-2013	sub2337	2337	  2	  1	120	  5	  2	  2	  2	  2	  1	  2	  1	0.54755	  1	0.60000	  0	 22	 60	 61	  0	
07-May-2013	sub2337	2337	  2	  1	121	  5	  2	  5	  1	  4	  0	  1	  0	0.71172	  1	0.60000	  1	 25	 67	 51	  0	
07-May-2013	sub2337	2337	  2	  1	122	  5	  2	  1	  6	  4	  1	  1	  1	0.63550	  1	0.60000	  1	 21	 60	 51	  0	
07-May-2013	sub2337	2337	  2	  1	123	  5	  2	  6	  5	  2	  0	  2	  0	0.44815	  1	0.70000	  0	 26	 67	 88	  1	
07-May-2013	sub2337	2337	  2	  1	124	  5	  2	  1	  6	  4	  1	  1	  1	0.51590	  1	0.70000	  0	 21	 60	 61	  0	
07-May-2013	sub2337	2337	  2	  1	125	  5	  2	  5	  1	  4	  0	  2	  1	0.49918	  0	0.70000	  0	 25	 87	 68	  1	
07-May-2013	sub2337	2337	  2	  1	126	  5	  2	  5	  1	  4	  0	  2	  1	0.44041	  0	0.70000	  0	 25	 87	 68	  1	
07-May-2013	sub2337	2337	  2	  1	127	  5	  2	  3	  4	  4	  1	  1	  1	0.51828	  1	0.70000	  0	 23	 62	 63	  0	
07-May-2013	sub2337	2337	  2	  1	128	  5	  2	  5	  1	  4	  0	  2	  1	0.46206	  0	0.70000	  0	 25	 87	 68	  1	
07-May-2013	sub2337	2337	  2	  1	129	  5	  2	  4	  3	  4	  1	  2	  1	0.49614	  1	0.70000	  0	 24	 62	 63	  1	
07-May-2013	sub2337	2337	  2	  1	130	  5	  2	  6	  5	  2	  1	  2	  1	0.41355	  1	0.70000	  0	 26	 65	 66	  1	
07-May-2013	sub2337	2337	  2	  1	131	  5	  2	  6	  5	  2	  0	  2	  0	0.42494	  1	0.70000	  0	 26	 67	 88	  1	
07-May-2013	sub2337	2337	  2	  1	132	  5	  2	  6	  5	  2	  1	  2	  1	0.33693	  1	0.70000	  0	 26	 65	 66	  1	
07-May-2013	sub2337	2337	  2	  1	133	  5	  2	  4	  3	  4	  1	  2	  1	0.37669	  1	0.70000	  0	 24	 62	 63	  1	
07-May-2013	sub2337	2337	  2	  1	134	  5	  2	  2	  2	  2	  1	  2	  1	0.57803	  1	0.70000	  0	 22	 60	 61	  0	
07-May-2013	sub2337	2337	  2	  1	135	  5	  2	  5	  1	  4	  0	  2	  1	0.72390	  0	0.70000	  1	 25	 87	 51	  0	
07-May-2013	sub2337	2337	  2	  1	136	  5	  2	  3	  4	  4	  1	  1	  1	0.49282	  1	0.70000	  0	 23	 62	 63	  1	
07-May-2013	sub2337	2337	  2	  1	137	  5	  2	  3	  4	  4	  1	  1	  1	0.48408	  1	0.70000	  0	 23	 62	 63	  1	
07-May-2013	sub2337	2337	  2	  1	138	  5	  2	  3	  4	  4	  1	  1	  1	0.42066	  1	0.70000	  0	 23	 62	 63	  1	
07-May-2013	sub2337	2337	  2	  1	139	  5	  2	  2	  2	  2	  1	  2	  1	0.56497	  1	0.70000	  0	 22	 60	 61	  0	
07-May-2013	sub2337	2337	  2	  1	140	  5	  2	  1	  6	  4	  1	  1	  1	0.46859	  1	0.70000	  0	 21	 60	 61	  1	
07-May-2013	sub2337	2337	  2	  1	141	  5	  2	  1	  6	  4	  1	  1	  1	0.40942	  1	0.70000	  0	 21	 60	 61	  1	
07-May-2013	sub2337	2337	  2	  1	142	  5	  2	  3	  4	  4	  1	  1	  1	0.66189	  1	0.70000	  0	 23	 62	 63	  0	
07-May-2013	sub2337	2337	  2	  1	143	  5	  2	  2	  2	  2	  1	  2	  1	0.50350	  1	0.70000	  0	 22	 60	 61	  0	
07-May-2013	sub2337	2337	  2	  1	144	  5	  2	  1	  6	  4	  1	  1	  1	0.53315	  1	0.70000	  0	 21	 60	 61	  0	
07-May-2013	sub2337	2337	  2	  1	145	  5	  2	  5	  1	  4	  0	  2	  1	0.48579	  0	0.70000	  0	 25	 87	 68	  1	
07-May-2013	sub2337	2337	  2	  1	146	  5	  2	  5	  1	  4	  0	  2	  1	0.73197	  0	0.70000	  1	 25	 87	 51	  0	
07-May-2013	sub2337	2337	  2	  1	147	  5	  2	  4	  3	  4	  1	  1	  0	0.43546	  0	0.80000	  0	 24	 82	 83	  1	
07-May-2013	sub2337	2337	  2	  1	148	  5	  2	  6	  5	  2	  1	  2	  1	0.50961	  1	0.80000	  0	 26	 65	 66	  0	
07-May-2013	sub2337	2337	  2	  1	149	  5	  2	  5	  1	  4	  0	  2	  1	0.51117	  0	0.80000	  0	 25	 87	 68	  0	
07-May-2013	sub2337	2337	  2	  1	150	  5	  2	  6	  5	  2	  0	  2	  0	0.49801	  1	0.80000	  0	 26	 67	 88	  1	
07-May-2013	sub2337	2337	  2	  1	  1	  6	  1	  3	  5	  6	  0	  1	  0	0.35905	  1	0.60000	  0	 13	 34	 49	  1	
07-May-2013	sub2337	2337	  2	  1	  2	  6	  1	  6	  3	  6	  0	  1	  1	0.44969	  0	0.30000	  1	 16	 47	 51	  1	
07-May-2013	sub2337	2337	  2	  1	  3	  6	  1	  6	  3	  6	  1	  1	  0	0.30573	  0	0.90000	  0	 16	 45	 46	  1	
07-May-2013	sub2337	2337	  2	  1	  4	  6	  1	  2	  2	  4	  1	  1	  0	0.45143	  0	0.90000	  0	 12	 40	 41	  1	
07-May-2013	sub2337	2337	  2	  1	  5	  6	  1	  2	  2	  4	  1	  1	  0	0.44359	  0	0.90000	  0	 12	 40	 41	  1	
07-May-2013	sub2337	2337	  2	  1	  6	  6	  1	  4	  4	  6	  0	  1	  1	0.46543	  0	0.90000	  0	 14	 44	 39	  1	
07-May-2013	sub2337	2337	  2	  1	  7	  6	  1	  3	  5	  6	  0	  2	  1	0.53210	  0	0.90000	  0	 13	 44	 39	  0	
07-May-2013	sub2337	2337	  2	  1	  8	  6	  1	  1	  1	  6	  1	  2	  0	0.55390	  0	0.90000	  0	 11	 40	 41	  0	
07-May-2013	sub2337	2337	  2	  1	  9	  6	  1	  5	  6	  2	  0	  2	  1	0.59280	  0	0.90000	  0	 15	 47	 38	  0	
07-May-2013	sub2337	2337	  2	  1	 10	  6	  1	  4	  4	  6	  1	  2	  1	0.59306	  1	0.90000	  0	 14	 32	 33	  0	
07-May-2013	sub2337	2337	  2	  1	 11	  6	  1	  2	  2	  4	  1	  1	  0	0.61800	  0	0.90000	  0	 12	 40	 41	  0	
07-May-2013	sub2337	2337	  2	  1	 12	  6	  1	  4	  4	  6	  1	  1	  0	0.42233	  0	0.90000	  0	 14	 42	 43	  1	
07-May-2013	sub2337	2337	  2	  1	 13	  6	  1	  1	  1	  6	  1	  1	  1	0.50759	  1	0.90000	  0	 11	 30	 31	  0	
07-May-2013	sub2337	2337	  2	  1	 14	  6	  1	  6	  3	  6	  1	  2	  1	0.57668	  1	0.90000	  0	 16	 35	 36	  0	
07-May-2013	sub2337	2337	  2	  1	 15	  6	  1	  3	  5	  6	  1	  2	  0	0.67271	  0	0.90000	  0	 13	 42	 43	  0	
07-May-2013	sub2337	2337	  2	  1	 16	  6	  1	  6	  3	  6	  0	  2	  0	0.69902	  1	0.80000	  0	 16	 37	 48	  0	
07-May-2013	sub2337	2337	  2	  1	 17	  6	  1	  6	  3	  6	  1	  1	  0	0.47209	  0	0.80000	  0	 16	 45	 46	  1	
07-May-2013	sub2337	2337	  2	  1	 18	  6	  1	  2	  2	  4	  1	  1	  0	0.57525	  0	0.70000	  0	 12	 40	 41	  0	
07-May-2013	sub2337	2337	  2	  1	 19	  6	  1	  1	  1	  6	  1	  1	  1	0.44915	  1	0.70000	  0	 11	 30	 31	  1	
07-May-2013	sub2337	2337	  2	  1	 20	  6	  1	  1	  1	  6	  1	  1	  1	0.49878	  1	0.70000	  0	 11	 30	 31	  1	
07-May-2013	sub2337	2337	  2	  1	 21	  6	  1	  6	  3	  6	  1	  2	  1	0.57008	  1	0.60000	  0	 16	 35	 36	  0	
07-May-2013	sub2337	2337	  2	  1	 22	  6	  1	  4	  4	  6	  1	  1	  0	0.56295	  0	0.60000	  0	 14	 42	 43	  0	
07-May-2013	sub2337	2337	  2	  1	 23	  6	  1	  3	  5	  6	  1	  2	  0	0.55566	  0	0.60000	  0	 13	 42	 43	  0	
07-May-2013	sub2337	2337	  2	  1	 24	  6	  1	  2	  2	  4	  1	  2	  1	0.55931	  1	0.60000	  0	 12	 30	 31	  0	
07-May-2013	sub2337	2337	  2	  1	 25	  6	  1	  1	  1	  6	  1	  1	  1	0.55713	  1	0.60000	  0	 11	 30	 31	  0	
07-May-2013	sub2337	2337	  2	  1	 26	  6	  1	  5	  6	  2	  1	  2	  0	0.46100	  0	0.50000	  0	 15	 45	 46	  1	
07-May-2013	sub2337	2337	  2	  1	 27	  6	  1	  6	  3	  6	  0	  2	  0	0.73005	  1	0.50000	  1	 16	 37	 51	  0	
07-May-2013	sub2337	2337	  2	  1	 28	  6	  1	  5	  6	  2	  0	  2	  1	0.55890	  0	0.90000	  0	 15	 47	 38	  0	
07-May-2013	sub2337	2337	  2	  1	 29	  6	  1	  4	  4	  6	  1	  2	  1	0.59098	  1	0.90000	  0	 14	 32	 33	  0	
07-May-2013	sub2337	2337	  2	  1	 30	  6	  1	  5	  6	  2	  1	  2	  0	0.64040	  0	0.80000	  0	 15	 45	 46	  0	
07-May-2013	sub2337	2337	  2	  1	 31	  6	  1	  6	  3	  6	  1	  2	  1	0.57759	  1	0.80000	  0	 16	 35	 36	  0	
07-May-2013	sub2337	2337	  2	  1	 32	  6	  1	  2	  2	  4	  1	  2	  1	0.60628	  1	0.80000	  0	 12	 30	 31	  0	
07-May-2013	sub2337	2337	  2	  1	 33	  6	  1	  4	  4	  6	  1	  2	  1	0.43499	  1	0.80000	  0	 14	 32	 33	  1	
07-May-2013	sub2337	2337	  2	  1	 34	  6	  1	  2	  2	  4	  1	  2	  1	0.49111	  1	0.80000	  0	 12	 30	 31	  1	
07-May-2013	sub2337	2337	  2	  1	 35	  6	  1	  5	  6	  2	  1	  2	  0	0.42656	  0	0.70000	  0	 15	 45	 46	  1	
07-May-2013	sub2337	2337	  2	  1	 36	  6	  1	  4	  4	  6	  1	  2	  1	0.48096	  1	0.70000	  0	 14	 32	 33	  1	
07-May-2013	sub2337	2337	  2	  1	 37	  6	  1	  2	  2	  4	  1	  2	  1	0.43121	  1	0.70000	  0	 12	 30	 31	  1	
07-May-2013	sub2337	2337	  2	  1	 38	  6	  1	  6	  3	  6	  0	  2	  0	0.39818	  1	0.70000	  0	 16	 37	 48	  1	
07-May-2013	sub2337	2337	  2	  1	 39	  6	  1	  5	  6	  2	  0	  2	  1	0.51630	  0	0.70000	  0	 15	 47	 38	  0	
07-May-2013	sub2337	2337	  2	  1	 40	  6	  1	  6	  3	  6	  0	  2	  0	0.36653	  1	0.70000	  0	 16	 37	 48	  1	
07-May-2013	sub2337	2337	  2	  1	 41	  6	  1	  1	  1	  6	  1	  1	  1	0.58493	  1	0.60000	  0	 11	 30	 31	  0	
07-May-2013	sub2337	2337	  2	  1	 42	  6	  1	  4	  4	  6	  1	  2	  1	0.36796	  1	0.60000	  0	 14	 32	 33	  1	
07-May-2013	sub2337	2337	  2	  1	 43	  6	  1	  1	  1	  6	  1	  1	  1	0.55228	  1	0.60000	  0	 11	 30	 31	  0	
07-May-2013	sub2337	2337	  2	  1	 44	  6	  1	  5	  6	  2	  1	  2	  0	0.39963	  0	0.60000	  0	 15	 45	 46	  1	
07-May-2013	sub2337	2337	  2	  1	 45	  6	  1	  3	  5	  6	  1	  1	  1	0.53660	  1	0.60000	  0	 13	 32	 33	  0	
07-May-2013	sub2337	2337	  2	  1	 46	  6	  1	  5	  6	  2	  1	  2	  0	0.37817	  0	0.60000	  0	 15	 45	 46	  1	
07-May-2013	sub2337	2337	  2	  1	 47	  6	  1	  4	  4	  6	  0	  2	  0	0.45020	  1	0.60000	  0	 14	 34	 49	  1	
07-May-2013	sub2337	2337	  2	  1	 48	  6	  1	  6	  3	  6	  0	  2	  0	0.40888	  1	0.60000	  0	 16	 37	 48	  1	
07-May-2013	sub2337	2337	  2	  1	 49	  6	  1	  6	  3	  6	  0	  2	  0	0.41174	  1	0.60000	  0	 16	 37	 48	  1	
07-May-2013	sub2337	2337	  2	  1	 50	  6	  1	  1	  1	  6	  1	  1	  1	0.62292	  1	0.60000	  1	 11	 30	 51	  0	
07-May-2013	sub2337	2337	  2	  1	 51	  6	  1	  3	  5	  6	  1	  2	  0	0.53216	  0	0.70000	  0	 13	 42	 43	  0	
07-May-2013	sub2337	2337	  2	  1	 52	  6	  1	  5	  6	  2	  0	  2	  1	0.39767	  0	0.70000	  0	 15	 47	 38	  1	
07-May-2013	sub2337	2337	  2	  1	 53	  6	  1	  2	  2	  4	  1	  2	  1	0.46636	  1	0.70000	  0	 12	 30	 31	  1	
07-May-2013	sub2337	2337	  2	  1	 54	  6	  1	  3	  5	  6	  1	  1	  1	0.54154	  1	0.70000	  0	 13	 32	 33	  0	
07-May-2013	sub2337	2337	  2	  1	 55	  6	  1	  4	  4	  6	  1	  2	  1	0.44890	  1	0.70000	  0	 14	 32	 33	  1	
07-May-2013	sub2337	2337	  2	  1	 56	  6	  1	  6	  3	  6	  1	  2	  1	0.45410	  1	0.70000	  0	 16	 35	 36	  1	
07-May-2013	sub2337	2337	  2	  1	 57	  6	  1	  4	  4	  6	  1	  2	  1	0.40095	  1	0.70000	  0	 14	 32	 33	  1	
07-May-2013	sub2337	2337	  2	  1	 58	  6	  1	  5	  6	  2	  0	  2	  1	0.47002	  0	0.70000	  0	 15	 47	 38	  1	
07-May-2013	sub2337	2337	  2	  1	 59	  6	  1	  1	  1	  6	  1	  1	  1	0.58913	  1	0.70000	  0	 11	 30	 31	  0	
07-May-2013	sub2337	2337	  2	  1	 60	  6	  1	  1	  1	  6	  1	  1	  1	0.52820	  1	0.70000	  0	 11	 30	 31	  0	
07-May-2013	sub2337	2337	  2	  1	 61	  6	  1	  2	  2	  4	  1	  2	  1	0.44504	  1	0.60000	  0	 12	 30	 31	  1	
07-May-2013	sub2337	2337	  2	  1	 62	  6	  1	  5	  6	  2	  1	  2	  0	0.44308	  0	0.60000	  0	 15	 45	 46	  1	
07-May-2013	sub2337	2337	  2	  1	 63	  6	  1	  4	  4	  6	  1	  2	  1	0.40757	  1	0.60000	  0	 14	 32	 33	  1	
07-May-2013	sub2337	2337	  2	  1	 64	  6	  1	  2	  2	  4	  1	  2	  1	0.43595	  1	0.60000	  0	 12	 30	 31	  1	
07-May-2013	sub2337	2337	  2	  1	 65	  6	  1	  5	  6	  2	  1	  2	  0	0.36972	  0	0.60000	  0	 15	 45	 46	  1	
07-May-2013	sub2337	2337	  2	  1	 66	  6	  1	  3	  5	  6	  1	  1	  1	0.49584	  1	0.60000	  0	 13	 32	 33	  1	
07-May-2013	sub2337	2337	  2	  1	 67	  6	  1	  2	  2	  4	  1	  2	  1	0.36768	  1	0.60000	  0	 12	 30	 31	  1	
07-May-2013	sub2337	2337	  2	  1	 68	  6	  1	  2	  2	  4	  1	  2	  1	0.36165	  1	0.60000	  0	 12	 30	 31	  1	
07-May-2013	sub2337	2337	  2	  1	 69	  6	  1	  3	  5	  6	  1	  2	  0	0.36727	  0	0.60000	  0	 13	 42	 43	  1	
07-May-2013	sub2337	2337	  2	  1	 70	  6	  1	  1	  1	  6	  1	  1	  1	0.41816	  1	0.60000	  0	 11	 30	 31	  1	
07-May-2013	sub2337	2337	  2	  1	 71	  6	  1	  3	  5	  6	  1	  1	  1	0.53385	  1	0.60000	  0	 13	 32	 33	  0	
07-May-2013	sub2337	2337	  2	  1	 72	  6	  1	  3	  5	  6	  1	  1	  1	0.45178	  1	0.60000	  0	 13	 32	 33	  1	
07-May-2013	sub2337	2337	  2	  1	 73	  6	  1	  3	  5	  6	  1	  1	  1	0.40763	  1	0.60000	  0	 13	 32	 33	  1	
07-May-2013	sub2337	2337	  2	  1	 74	  6	  1	  1	  1	  6	  1	  1	  1	0.51280	  1	0.60000	  0	 11	 30	 31	  0	
07-May-2013	sub2337	2337	  2	  1	 75	  6	  1	  3	  5	  6	  0	  1	  0	0.38405	  1	0.60000	  0	 13	 34	 49	  1	
07-May-2013	sub2337	2337	  2	  1	 76	  6	  2	  3	  5	  6	  0	  1	  0	0.40017	  1	0.50000	  0	 23	 64	 89	  1	
07-May-2013	sub2337	2337	  2	  1	 77	  6	  2	  4	  4	  6	  1	  2	  1	0.48165	  1	0.50000	  0	 24	 62	 63	  1	
07-May-2013	sub2337	2337	  2	  1	 78	  6	  2	  6	  3	  6	  1	  2	  1	0.65085	  1	0.50000	  1	 26	 65	 51	  0	
07-May-2013	sub2337	2337	  2	  1	 79	  6	  2	  1	  1	  6	  1	  1	  1	0.46859	  1	0.70000	  0	 21	 60	 61	  1	
07-May-2013	sub2337	2337	  2	  1	 80	  6	  2	  2	  2	  4	  1	  2	  1	0.54901	  1	0.70000	  0	 22	 60	 61	  0	
07-May-2013	sub2337	2337	  2	  1	 81	  6	  2	  2	  2	  4	  1	  2	  1	0.41077	  1	0.60000	  0	 22	 60	 61	  1	
07-May-2013	sub2337	2337	  2	  1	 82	  6	  2	  5	  6	  2	  0	  2	  1	0.40704	  0	0.60000	  0	 25	 87	 68	  1	
07-May-2013	sub2337	2337	  2	  1	 83	  6	  2	  1	  1	  6	  1	  1	  1	0.53793	  1	0.60000	  0	 21	 60	 61	  0	
07-May-2013	sub2337	2337	  2	  1	 84	  6	  2	  6	  3	  6	  1	  2	  1	0.49502	  1	0.60000	  0	 26	 65	 66	  1	
07-May-2013	sub2337	2337	  2	  1	 85	  6	  2	  3	  5	  6	  1	  1	  1	0.43489	  1	0.60000	  0	 23	 62	 63	  1	
07-May-2013	sub2337	2337	  2	  1	 86	  6	  2	  1	  1	  6	  1	  1	  1	0.54971	  1	0.60000	  0	 21	 60	 61	  0	
07-May-2013	sub2337	2337	  2	  1	 87	  6	  2	  1	  1	  6	  1	  1	  1	0.39920	  1	0.60000	  0	 21	 60	 61	  1	
07-May-2013	sub2337	2337	  2	  1	 88	  6	  2	  4	  4	  6	  0	  2	  0	0.53193	  1	0.60000	  0	 24	 64	 89	  0	
07-May-2013	sub2337	2337	  2	  1	 89	  6	  2	  5	  6	  2	  0	  2	  1	0.51507	  0	0.60000	  0	 25	 87	 68	  0	
07-May-2013	sub2337	2337	  2	  1	 90	  6	  2	  2	  2	  4	  1	  2	  1	0.45035	  1	0.60000	  0	 22	 60	 61	  1	
07-May-2013	sub2337	2337	  2	  1	 91	  6	  2	  1	  1	  6	  1	  1	  1	0.49901	  1	0.60000	  0	 21	 60	 61	  1	
07-May-2013	sub2337	2337	  2	  1	 92	  6	  2	  5	  6	  2	  0	  2	  1	0.48141	  0	0.60000	  0	 25	 87	 68	  1	
07-May-2013	sub2337	2337	  2	  1	 93	  6	  2	  1	  1	  6	  1	  1	  1	0.46322	  1	0.60000	  0	 21	 60	 61	  1	
07-May-2013	sub2337	2337	  2	  1	 94	  6	  2	  4	  4	  6	  1	  2	  1	0.37597	  1	0.60000	  0	 24	 62	 63	  1	
07-May-2013	sub2337	2337	  2	  1	 95	  6	  2	  4	  4	  6	  0	  2	  0	0.41819	  1	0.60000	  0	 24	 64	 89	  1	
07-May-2013	sub2337	2337	  2	  1	 96	  6	  2	  6	  3	  6	  0	  2	  0	0.60180	  1	0.60000	  1	 26	 67	 51	  0	
07-May-2013	sub2337	2337	  2	  1	 97	  6	  2	  1	  1	  6	  1	  2	  0	0.36790	  0	0.70000	  0	 21	 80	 81	  1	
07-May-2013	sub2337	2337	  2	  1	 98	  6	  2	  1	  1	  6	  1	  1	  1	0.36391	  1	0.70000	  0	 21	 60	 61	  1	
07-May-2013	sub2337	2337	  2	  1	 99	  6	  2	  5	  6	  2	  0	  2	  1	0.39786	  0	0.70000	  0	 25	 87	 68	  1	
07-May-2013	sub2337	2337	  2	  1	100	  6	  2	  3	  5	  6	  1	  1	  1	0.45030	  1	0.70000	  0	 23	 62	 63	  1	
07-May-2013	sub2337	2337	  2	  1	101	  6	  2	  2	  2	  4	  1	  2	  1	0.37960	  1	0.60000	  0	 22	 60	 61	  1	
07-May-2013	sub2337	2337	  2	  1	102	  6	  2	  1	  1	  6	  1	  1	  1	0.45428	  1	0.60000	  0	 21	 60	 61	  1	
07-May-2013	sub2337	2337	  2	  1	103	  6	  2	  3	  5	  6	  1	  1	  1	0.43215	  1	0.60000	  0	 23	 62	 63	  1	
07-May-2013	sub2337	2337	  2	  1	104	  6	  2	  5	  6	  2	  0	  2	  1	0.40418	  0	0.60000	  0	 25	 87	 68	  1	
07-May-2013	sub2337	2337	  2	  1	105	  6	  2	  1	  1	  6	  1	  1	  1	0.42816	  1	0.60000	  0	 21	 60	 61	  1	
07-May-2013	sub2337	2337	  2	  1	106	  6	  2	  5	  6	  2	  0	  2	  1	0.44223	  0	0.60000	  0	 25	 87	 68	  1	
07-May-2013	sub2337	2337	  2	  1	107	  6	  2	  3	  5	  6	  0	  1	  0	0.44351	  1	0.60000	  0	 23	 64	 89	  1	
07-May-2013	sub2337	2337	  2	  1	108	  6	  2	  5	  6	  2	  0	  2	  1	0.41846	  0	0.60000	  0	 25	 87	 68	  1	
07-May-2013	sub2337	2337	  2	  1	109	  6	  2	  4	  4	  6	  1	  2	  1	0.46844	  1	0.60000	  0	 24	 62	 63	  1	
07-May-2013	sub2337	2337	  2	  1	110	  6	  2	  6	  3	  6	  1	  2	  1	0.39719	  1	0.60000	  0	 26	 65	 66	  1	
07-May-2013	sub2337	2337	  2	  1	111	  6	  2	  2	  2	  4	  1	  2	  1	0.39245	  1	0.60000	  0	 22	 60	 61	  1	
07-May-2013	sub2337	2337	  2	  1	112	  6	  2	  1	  1	  6	  1	  1	  1	0.44264	  1	0.60000	  0	 21	 60	 61	  1	
07-May-2013	sub2337	2337	  2	  1	113	  6	  2	  4	  4	  6	  1	  2	  1	0.41882	  1	0.60000	  0	 24	 62	 63	  1	
07-May-2013	sub2337	2337	  2	  1	114	  6	  2	  3	  5	  6	  1	  1	  1	0.47885	  1	0.60000	  0	 23	 62	 63	  1	
07-May-2013	sub2337	2337	  2	  1	115	  6	  2	  1	  1	  6	  1	  2	  0	0.38606	  0	0.60000	  0	 21	 80	 81	  1	
07-May-2013	sub2337	2337	  2	  1	116	  6	  2	  3	  5	  6	  1	  1	  1	0.44137	  1	0.60000	  0	 23	 62	 63	  1	
07-May-2013	sub2337	2337	  2	  1	117	  6	  2	  2	  2	  4	  1	  2	  1	0.42454	  1	0.60000	  0	 22	 60	 61	  1	
07-May-2013	sub2337	2337	  2	  1	118	  6	  2	  2	  2	  4	  1	  2	  1	0.37396	  1	0.60000	  0	 22	 60	 61	  1	
07-May-2013	sub2337	2337	  2	  1	119	  6	  2	  5	  6	  2	  0	  2	  1	0.38694	  0	0.60000	  0	 25	 87	 68	  1	
07-May-2013	sub2337	2337	  2	  1	120	  6	  2	  5	  6	  2	  0	  2	  1	0.39397	  0	0.60000	  0	 25	 87	 68	  1	
07-May-2013	sub2337	2337	  2	  1	121	  6	  2	  1	  1	  6	  1	  1	  1	0.45933	  1	0.60000	  0	 21	 60	 61	  1	
07-May-2013	sub2337	2337	  2	  1	122	  6	  2	  4	  4	  6	  1	  2	  1	0.51708	  1	0.60000	  0	 24	 62	 63	  0	
07-May-2013	sub2337	2337	  2	  1	123	  6	  2	  2	  2	  4	  1	  2	  1	0.45454	  1	0.60000	  0	 22	 60	 61	  1	
07-May-2013	sub2337	2337	  2	  1	124	  6	  2	  5	  6	  2	  0	  2	  1	0.36563	  0	0.60000	  0	 25	 87	 68	  1	
07-May-2013	sub2337	2337	  2	  1	125	  6	  2	  6	  3	  6	  0	  2	  0	0.42909	  1	0.60000	  0	 26	 67	 88	  1	
07-May-2013	sub2337	2337	  2	  1	126	  6	  2	  6	  3	  6	  1	  2	  1	0.35171	  1	0.50000	  0	 26	 65	 66	  1	
07-May-2013	sub2337	2337	  2	  1	127	  6	  2	  2	  2	  4	  1	  2	  1	0.45222	  1	0.50000	  0	 22	 60	 61	  1	
07-May-2013	sub2337	2337	  2	  1	128	  6	  2	  3	  5	  6	  1	  1	  1	0.47542	  1	0.50000	  0	 23	 62	 63	  1	
07-May-2013	sub2337	2337	  2	  1	129	  6	  2	  4	  4	  6	  0	  2	  0	0.39807	  1	0.50000	  0	 24	 64	 89	  1	
07-May-2013	sub2337	2337	  2	  1	130	  6	  2	  6	  3	  6	  0	  1	  1	0.45651	  0	0.50000	  0	 26	 87	 68	  1	
07-May-2013	sub2337	2337	  2	  1	131	  6	  2	  6	  3	  6	  1	  2	  1	0.46998	  1	0.50000	  0	 26	 65	 66	  1	
07-May-2013	sub2337	2337	  2	  1	132	  6	  2	  2	  2	  4	  1	  2	  1	0.47132	  1	0.50000	  0	 22	 60	 61	  1	
07-May-2013	sub2337	2337	  2	  1	133	  6	  2	  6	  3	  6	  0	  2	  0	0.38024	  1	0.50000	  0	 26	 67	 88	  1	
07-May-2013	sub2337	2337	  2	  1	134	  6	  2	  3	  5	  6	  1	  1	  1	0.44133	  1	0.50000	  0	 23	 62	 63	  1	
07-May-2013	sub2337	2337	  2	  1	135	  6	  2	  6	  3	  6	  0	  2	  0	0.40150	  1	0.50000	  0	 26	 67	 88	  1	
07-May-2013	sub2337	2337	  2	  1	136	  6	  2	  5	  6	  2	  0	  2	  1	0.50496	  0	0.50000	  1	 25	 87	 51	  0	
07-May-2013	sub2337	2337	  2	  1	137	  6	  2	  3	  5	  6	  1	  1	  1	0.51326	  1	0.60000	  0	 23	 62	 63	  0	
07-May-2013	sub2337	2337	  2	  1	138	  6	  2	  2	  2	  4	  1	  2	  1	0.48512	  1	0.60000	  0	 22	 60	 61	  1	
07-May-2013	sub2337	2337	  2	  1	139	  6	  2	  4	  4	  6	  1	  2	  1	0.45619	  1	0.60000	  0	 24	 62	 63	  1	
07-May-2013	sub2337	2337	  2	  1	140	  6	  2	  4	  4	  6	  1	  2	  1	0.43144	  1	0.60000	  0	 24	 62	 63	  1	
07-May-2013	sub2337	2337	  2	  1	141	  6	  2	  6	  3	  6	  1	  1	  0	0.41781	  0	0.60000	  0	 26	 85	 86	  1	
07-May-2013	sub2337	2337	  2	  1	142	  6	  2	  6	  3	  6	  0	  2	  0	0.38825	  1	0.60000	  0	 26	 67	 88	  1	
07-May-2013	sub2337	2337	  2	  1	143	  6	  2	  3	  5	  6	  1	  1	  1	0.46493	  1	0.60000	  0	 23	 62	 63	  1	
07-May-2013	sub2337	2337	  2	  1	144	  6	  2	  4	  4	  6	  1	  2	  1	0.55319	  1	0.60000	  0	 24	 62	 63	  0	
07-May-2013	sub2337	2337	  2	  1	145	  6	  2	  4	  4	  6	  1	  2	  1	0.47945	  1	0.60000	  0	 24	 62	 63	  1	
07-May-2013	sub2337	2337	  2	  1	146	  6	  2	  5	  6	  2	  0	  2	  1	0.41003	  0	0.60000	  0	 25	 87	 68	  1	
07-May-2013	sub2337	2337	  2	  1	147	  6	  2	  5	  6	  2	  0	  2	  1	0.41377	  0	0.60000	  0	 25	 87	 68	  1	
07-May-2013	sub2337	2337	  2	  1	148	  6	  2	  2	  2	  4	  1	  2	  1	0.36553	  1	0.60000	  0	 22	 60	 61	  1	
07-May-2013	sub2337	2337	  2	  1	149	  6	  2	  3	  5	  6	  1	  1	  1	0.51723	  1	0.60000	  0	 23	 62	 63	  0	
07-May-2013	sub2337	2337	  2	  1	150	  6	  2	  4	  4	  6	  1	  2	  1	0.35185	  1	0.60000	  0	 24	 62	 63	  1	
