Date 	 Name 	 ID 	 Gender 	 Appearance 	 Trial 	 Block 	 Bin 	 Condition 	 Category 	 Number 	 Valid 	 Keypress 	 Correct 	 RT 	 Realcorrect 	 Deadline 	 Timeout 	 Stimtrigger 	 Resptrigger 	 Fedtrigger 	 WithinTime 	 
07-May-2013	sub2338	2338	  1	  0	  1	  1	  1	  6	  3	  2	  1	  1	  0	0.97390	  0	0.60000	  1	 16	 45	 51	  0	
07-May-2013	sub2338	2338	  1	  0	  2	  1	  1	  5	  1	  3	  1	  1	  1	0.03869	  1	0.90000	  0	 15	 35	 36	  1	
07-May-2013	sub2338	2338	  1	  0	  3	  1	  1	  3	  6	  2	  1	  2	  0	0.49128	  0	0.90000	  0	 13	 42	 43	  1	
07-May-2013	sub2338	2338	  1	  0	  4	  1	  1	  4	  2	  3	  1	  1	  0	0.38649	  0	0.90000	  0	 14	 42	 43	  1	
07-May-2013	sub2338	2338	  1	  0	  5	  1	  1	  3	  6	  2	  1	  1	  1	1.13750	  1	0.90000	  1	 13	 32	 51	  0	
07-May-2013	sub2338	2338	  1	  0	  6	  1	  1	  1	  4	  3	  1	  2	  0	0.73364	  0	0.90000	  0	 11	 40	 41	  0	
07-May-2013	sub2338	2338	  1	  0	  7	  1	  1	  3	  6	  2	  1	  1	  1	0.86870	  1	0.90000	  0	 13	 32	 33	  0	
07-May-2013	sub2338	2338	  1	  0	  8	  1	  1	  2	  5	  3	  1	  2	  1	0.73605	  1	0.90000	  0	 12	 30	 31	  0	
07-May-2013	sub2338	2338	  1	  0	  9	  1	  1	  4	  2	  3	  0	  1	  1	0.71870	  0	0.90000	  0	 14	 44	 39	  0	
07-May-2013	sub2338	2338	  1	  0	 10	  1	  1	  2	  5	  3	  1	  2	  1	0.70088	  1	0.90000	  0	 12	 30	 31	  0	
07-May-2013	sub2338	2338	  1	  0	 11	  1	  1	  6	  3	  2	  1	  1	  0	0.60837	  0	0.90000	  0	 16	 45	 46	  0	
07-May-2013	sub2338	2338	  1	  0	 12	  1	  1	  1	  4	  3	  1	  2	  0	0.52973	  0	0.90000	  0	 11	 40	 41	  0	
07-May-2013	sub2338	2338	  1	  0	 13	  1	  1	  5	  1	  3	  0	  1	  0	0.86342	  1	0.90000	  0	 15	 37	 48	  0	
07-May-2013	sub2338	2338	  1	  0	 14	  1	  1	  5	  1	  3	  0	  1	  0	0.65359	  1	0.90000	  0	 15	 37	 48	  0	
07-May-2013	sub2338	2338	  1	  0	 15	  1	  1	  3	  6	  2	  1	  2	  0	0.50904	  0	0.90000	  0	 13	 42	 43	  0	
07-May-2013	sub2338	2338	  1	  0	 16	  1	  1	  4	  2	  3	  0	  1	  1	0.71349	  0	0.90000	  0	 14	 44	 39	  0	
07-May-2013	sub2338	2338	  1	  0	 17	  1	  1	  4	  2	  3	  1	  1	  0	0.59413	  0	0.90000	  0	 14	 42	 43	  0	
07-May-2013	sub2338	2338	  1	  0	 18	  1	  1	  2	  5	  3	  1	  1	  0	0.71851	  0	0.90000	  0	 12	 40	 41	  0	
07-May-2013	sub2338	2338	  1	  0	 19	  1	  1	  4	  2	  3	  1	  1	  0	0.72769	  0	0.90000	  0	 14	 42	 43	  0	
07-May-2013	sub2338	2338	  1	  0	 20	  1	  1	  2	  5	  3	  1	  2	  1	0.45693	  1	0.90000	  0	 12	 30	 31	  1	
07-May-2013	sub2338	2338	  1	  0	 21	  1	  1	  5	  1	  3	  1	  2	  0	0.70174	  0	0.90000	  0	 15	 45	 46	  0	
07-May-2013	sub2338	2338	  1	  0	 22	  1	  1	  5	  1	  3	  1	  2	  0	0.49838	  0	0.90000	  0	 15	 45	 46	  1	
07-May-2013	sub2338	2338	  1	  0	 23	  1	  1	  6	  3	  2	  0	  1	  1	0.45477	  0	0.90000	  0	 16	 47	 38	  1	
07-May-2013	sub2338	2338	  1	  0	 24	  1	  1	  6	  3	  2	  0	  1	  1	0.45220	  0	0.90000	  0	 16	 47	 38	  1	
07-May-2013	sub2338	2338	  1	  0	 25	  1	  1	  6	  3	  2	  0	  1	  1	0.98522	  0	0.90000	  1	 16	 47	 51	  0	
07-May-2013	sub2338	2338	  1	  0	 26	  1	  1	  1	  4	  3	  1	  2	  0	0.56224	  0	0.90000	  0	 11	 40	 41	  0	
07-May-2013	sub2338	2338	  1	  0	 27	  1	  1	  1	  4	  3	  1	  1	  1	0.61846	  1	0.90000	  0	 11	 30	 31	  0	
07-May-2013	sub2338	2338	  1	  0	 28	  1	  1	  2	  5	  3	  1	  1	  0	0.46787	  0	0.90000	  0	 12	 40	 41	  1	
07-May-2013	sub2338	2338	  1	  0	 29	  1	  1	  2	  5	  3	  1	  2	  1	0.57691	  1	0.90000	  0	 12	 30	 31	  0	
07-May-2013	sub2338	2338	  1	  0	 30	  1	  1	  6	  3	  2	  0	  1	  1	0.49149	  0	0.90000	  0	 16	 47	 38	  1	
07-May-2013	sub2338	2338	  1	  0	 31	  1	  1	  2	  5	  3	  1	  2	  1	0.53346	  1	0.90000	  0	 12	 30	 31	  0	
07-May-2013	sub2338	2338	  1	  0	 32	  1	  1	  5	  1	  3	  0	  1	  0	0.63912	  1	0.90000	  0	 15	 37	 48	  0	
07-May-2013	sub2338	2338	  1	  0	 33	  1	  1	  6	  3	  2	  1	  1	  0	0.48082	  0	0.90000	  0	 16	 45	 46	  1	
07-May-2013	sub2338	2338	  1	  0	 34	  1	  1	  5	  1	  3	  0	  2	  1	0.58618	  0	0.90000	  0	 15	 47	 38	  0	
07-May-2013	sub2338	2338	  1	  0	 35	  1	  1	  1	  4	  3	  1	  2	  0	0.65783	  0	0.90000	  0	 11	 40	 41	  0	
07-May-2013	sub2338	2338	  1	  0	 36	  1	  1	  5	  1	  3	  0	  1	  0	0.59594	  1	0.90000	  0	 15	 37	 48	  0	
07-May-2013	sub2338	2338	  1	  0	 37	  1	  1	  2	  5	  3	  1	  2	  1	0.49844	  1	0.90000	  0	 12	 30	 31	  1	
07-May-2013	sub2338	2338	  1	  0	 38	  1	  1	  1	  4	  3	  1	  1	  1	0.66308	  1	0.90000	  0	 11	 30	 31	  0	
07-May-2013	sub2338	2338	  1	  0	 39	  1	  1	  5	  1	  3	  1	  1	  1	0.57915	  1	0.90000	  0	 15	 35	 36	  0	
07-May-2013	sub2338	2338	  1	  0	 40	  1	  1	  3	  6	  2	  0	  2	  1	0.59145	  0	0.90000	  0	 13	 44	 39	  0	
07-May-2013	sub2338	2338	  1	  0	 41	  1	  1	  6	  3	  2	  1	  1	  0	0.61585	  0	0.90000	  0	 16	 45	 46	  0	
07-May-2013	sub2338	2338	  1	  0	 42	  1	  1	  6	  3	  2	  1	  1	  0	0.40760	  0	0.90000	  0	 16	 45	 46	  1	
07-May-2013	sub2338	2338	  1	  0	 43	  1	  1	  4	  2	  3	  1	  1	  0	0.69810	  0	0.90000	  0	 14	 42	 43	  0	
07-May-2013	sub2338	2338	  1	  0	 44	  1	  1	  3	  6	  2	  0	  1	  0	0.73397	  1	0.80000	  0	 13	 34	 49	  0	
07-May-2013	sub2338	2338	  1	  0	 45	  1	  1	  6	  3	  2	  1	  2	  1	0.66391	  1	0.80000	  0	 16	 35	 36	  0	
07-May-2013	sub2338	2338	  1	  0	 46	  1	  1	  4	  2	  3	  1	  2	  1	0.71310	  1	0.80000	  0	 14	 32	 33	  0	
07-May-2013	sub2338	2338	  1	  0	 47	  1	  1	  4	  2	  3	  1	  2	  1	0.44443	  1	0.80000	  0	 14	 32	 33	  1	
07-May-2013	sub2338	2338	  1	  0	 48	  1	  1	  4	  2	  3	  1	  2	  1	0.43227	  1	0.80000	  0	 14	 32	 33	  1	
07-May-2013	sub2338	2338	  1	  0	 49	  1	  1	  3	  6	  2	  1	  2	  0	0.58515	  0	0.80000	  0	 13	 42	 43	  0	
07-May-2013	sub2338	2338	  1	  0	 50	  1	  1	  3	  6	  2	  1	  1	  1	0.45755	  1	0.80000	  0	 13	 32	 33	  1	
07-May-2013	sub2338	2338	  1	  0	 51	  1	  1	  6	  3	  2	  0	  1	  1	0.65401	  0	0.70000	  0	 16	 47	 38	  0	
07-May-2013	sub2338	2338	  1	  0	 52	  1	  1	  1	  4	  3	  1	  2	  0	0.79767	  0	0.70000	  1	 11	 40	 51	  0	
07-May-2013	sub2338	2338	  1	  0	 53	  1	  1	  5	  1	  3	  0	  2	  1	0.79232	  0	0.90000	  0	 15	 47	 38	  0	
07-May-2013	sub2338	2338	  1	  0	 54	  1	  1	  1	  4	  3	  1	  1	  1	0.69422	  1	0.90000	  0	 11	 30	 31	  0	
07-May-2013	sub2338	2338	  1	  0	 55	  1	  1	  4	  2	  3	  1	  1	  0	0.72568	  0	0.90000	  0	 14	 42	 43	  0	
07-May-2013	sub2338	2338	  1	  0	 56	  1	  1	  6	  3	  2	  0	  2	  0	0.58064	  1	0.90000	  0	 16	 37	 48	  0	
07-May-2013	sub2338	2338	  1	  0	 57	  1	  1	  1	  4	  3	  1	  1	  1	0.65015	  1	0.90000	  0	 11	 30	 31	  0	
07-May-2013	sub2338	2338	  1	  0	 58	  1	  1	  1	  4	  3	  1	  1	  1	0.51322	  1	0.90000	  0	 11	 30	 31	  0	
07-May-2013	sub2338	2338	  1	  0	 59	  1	  1	  5	  1	  3	  1	  2	  0	0.76780	  0	0.80000	  0	 15	 45	 46	  0	
07-May-2013	sub2338	2338	  1	  0	 60	  1	  1	  4	  2	  3	  1	  1	  0	0.35584	  0	0.80000	  0	 14	 42	 43	  1	
07-May-2013	sub2338	2338	  1	  0	 61	  1	  1	  6	  3	  2	  0	  1	  1	0.48607	  0	0.80000	  0	 16	 47	 38	  1	
07-May-2013	sub2338	2338	  1	  0	 62	  1	  1	  3	  6	  2	  1	  2	  0	0.57219	  0	0.80000	  0	 13	 42	 43	  0	
07-May-2013	sub2338	2338	  1	  0	 63	  1	  1	  4	  2	  3	  1	  1	  0	0.73021	  0	0.80000	  0	 14	 42	 43	  0	
07-May-2013	sub2338	2338	  1	  0	 64	  1	  1	  5	  1	  3	  1	  1	  1	0.51941	  1	0.80000	  0	 15	 35	 36	  0	
07-May-2013	sub2338	2338	  1	  0	 65	  1	  1	  3	  6	  2	  1	  2	  0	0.54803	  0	0.80000	  0	 13	 42	 43	  0	
07-May-2013	sub2338	2338	  1	  0	 66	  1	  1	  1	  4	  3	  1	  1	  1	0.57922	  1	0.80000	  0	 11	 30	 31	  0	
07-May-2013	sub2338	2338	  1	  0	 67	  1	  1	  1	  4	  3	  1	  1	  1	0.55086	  1	0.80000	  0	 11	 30	 31	  0	
07-May-2013	sub2338	2338	  1	  0	 68	  1	  1	  2	  5	  3	  1	  1	  0	0.56680	  0	0.70000	  0	 12	 40	 41	  0	
07-May-2013	sub2338	2338	  1	  0	 69	  1	  1	  3	  6	  2	  0	  2	  1	0.60941	  0	0.70000	  0	 13	 44	 39	  0	
07-May-2013	sub2338	2338	  1	  0	 70	  1	  1	  2	  5	  3	  1	  1	  0	0.59647	  0	0.70000	  0	 12	 40	 41	  0	
07-May-2013	sub2338	2338	  1	  0	 71	  1	  1	  2	  5	  3	  1	  1	  0	0.55728	  0	0.70000	  0	 12	 40	 41	  0	
07-May-2013	sub2338	2338	  1	  0	 72	  1	  1	  2	  5	  3	  1	  2	  1	0.39208	  1	0.70000	  0	 12	 30	 31	  1	
07-May-2013	sub2338	2338	  1	  0	 73	  1	  1	  2	  5	  3	  1	  2	  1	0.36862	  1	0.70000	  0	 12	 30	 31	  1	
07-May-2013	sub2338	2338	  1	  0	 74	  1	  1	  3	  6	  2	  1	  1	  1	0.63835	  1	0.70000	  0	 13	 32	 33	  0	
07-May-2013	sub2338	2338	  1	  0	 75	  1	  1	  3	  6	  2	  1	  1	  1	0.48857	  1	0.70000	  0	 13	 32	 33	  1	
07-May-2013	sub2338	2338	  1	  0	  1	  2	  1	  1	  5	  4	  1	  1	  1	1.16372	  1	0.60000	  1	 11	 30	 51	  0	
07-May-2013	sub2338	2338	  1	  0	  2	  2	  1	  1	  5	  4	  1	  1	  1	0.55399	  1	0.90000	  0	 11	 30	 31	  0	
07-May-2013	sub2338	2338	  1	  0	  3	  2	  1	  2	  4	  4	  1	  2	  1	0.47328	  1	0.90000	  0	 12	 30	 31	  1	
07-May-2013	sub2338	2338	  1	  0	  4	  2	  1	  3	  2	  6	  1	  1	  1	0.62307	  1	0.90000	  0	 13	 32	 33	  0	
07-May-2013	sub2338	2338	  1	  0	  5	  2	  1	  1	  5	  4	  1	  1	  1	0.74148	  1	0.90000	  0	 11	 30	 31	  0	
07-May-2013	sub2338	2338	  1	  0	  6	  2	  1	  2	  4	  4	  1	  2	  1	0.59891	  1	0.90000	  0	 12	 30	 31	  0	
07-May-2013	sub2338	2338	  1	  0	  7	  2	  1	  2	  4	  4	  1	  2	  1	0.62223	  1	0.90000	  0	 12	 30	 31	  0	
07-May-2013	sub2338	2338	  1	  0	  8	  2	  1	  6	  3	  5	  1	  1	  0	0.89351	  0	0.90000	  0	 16	 45	 46	  0	
07-May-2013	sub2338	2338	  1	  0	  9	  2	  1	  5	  6	  5	  0	  1	  0	0.67693	  1	0.90000	  0	 15	 37	 48	  0	
07-May-2013	sub2338	2338	  1	  0	 10	  2	  1	  3	  2	  6	  0	  1	  0	0.53773	  1	0.90000	  0	 13	 34	 49	  0	
07-May-2013	sub2338	2338	  1	  0	 11	  2	  1	  4	  1	  6	  1	  2	  1	0.89633	  1	0.90000	  0	 14	 32	 33	  0	
07-May-2013	sub2338	2338	  1	  0	 12	  2	  1	  6	  3	  5	  1	  2	  1	0.53687	  1	0.90000	  0	 16	 35	 36	  0	
07-May-2013	sub2338	2338	  1	  0	 13	  2	  1	  6	  3	  5	  0	  2	  0	0.48658	  1	0.90000	  0	 16	 37	 48	  1	
07-May-2013	sub2338	2338	  1	  0	 14	  2	  1	  1	  5	  4	  1	  2	  0	0.61962	  0	0.90000	  0	 11	 40	 41	  0	
07-May-2013	sub2338	2338	  1	  0	 15	  2	  1	  6	  3	  5	  1	  2	  1	0.54334	  1	0.90000	  0	 16	 35	 36	  0	
07-May-2013	sub2338	2338	  1	  0	 16	  2	  1	  3	  2	  6	  0	  2	  1	0.67495	  0	0.80000	  0	 13	 44	 39	  0	
07-May-2013	sub2338	2338	  1	  0	 17	  2	  1	  1	  5	  4	  1	  1	  1	0.81043	  1	0.80000	  1	 11	 30	 51	  0	
07-May-2013	sub2338	2338	  1	  0	 18	  2	  1	  4	  1	  6	  1	  2	  1	0.58742	  1	0.90000	  0	 14	 32	 33	  0	
07-May-2013	sub2338	2338	  1	  0	 19	  2	  1	  5	  6	  5	  1	  2	  0	0.63861	  0	0.90000	  0	 15	 45	 46	  0	
07-May-2013	sub2338	2338	  1	  0	 20	  2	  1	  6	  3	  5	  1	  2	  1	0.57977	  1	0.90000	  0	 16	 35	 36	  0	
07-May-2013	sub2338	2338	  1	  0	 21	  2	  1	  6	  3	  5	  0	  2	  0	0.50631	  1	0.90000	  0	 16	 37	 48	  0	
07-May-2013	sub2338	2338	  1	  0	 22	  2	  1	  3	  2	  6	  1	  1	  1	0.88682	  1	0.90000	  0	 13	 32	 33	  0	
07-May-2013	sub2338	2338	  1	  0	 23	  2	  1	  2	  4	  4	  1	  2	  1	0.48405	  1	0.90000	  0	 12	 30	 31	  1	
07-May-2013	sub2338	2338	  1	  0	 24	  2	  1	  6	  3	  5	  0	  2	  0	0.59113	  1	0.90000	  0	 16	 37	 48	  0	
07-May-2013	sub2338	2338	  1	  0	 25	  2	  1	  3	  2	  6	  0	  2	  1	0.51578	  0	0.90000	  0	 13	 44	 39	  0	
07-May-2013	sub2338	2338	  1	  0	 26	  2	  1	  4	  1	  6	  0	  2	  0	0.65559	  1	0.90000	  0	 14	 34	 49	  0	
07-May-2013	sub2338	2338	  1	  0	 27	  2	  1	  1	  5	  4	  1	  1	  1	0.88263	  1	0.90000	  0	 11	 30	 31	  0	
07-May-2013	sub2338	2338	  1	  0	 28	  2	  1	  4	  1	  6	  1	  1	  0	0.43103	  0	0.90000	  0	 14	 42	 43	  1	
07-May-2013	sub2338	2338	  1	  0	 29	  2	  1	  3	  2	  6	  1	  2	  0	0.79302	  0	0.90000	  0	 13	 42	 43	  0	
07-May-2013	sub2338	2338	  1	  0	 30	  2	  1	  4	  1	  6	  0	  1	  1	0.39548	  0	0.80000	  0	 14	 44	 39	  1	
07-May-2013	sub2338	2338	  1	  0	 31	  2	  1	  2	  4	  4	  1	  1	  0	0.72747	  0	0.80000	  0	 12	 40	 41	  0	
07-May-2013	sub2338	2338	  1	  0	 32	  2	  1	  2	  4	  4	  1	  1	  0	0.47520	  0	0.80000	  0	 12	 40	 41	  1	
07-May-2013	sub2338	2338	  1	  0	 33	  2	  1	  2	  4	  4	  1	  2	  1	0.36927	  1	0.80000	  0	 12	 30	 31	  1	
07-May-2013	sub2338	2338	  1	  0	 34	  2	  1	  3	  2	  6	  1	  1	  1	0.66722	  1	0.80000	  0	 13	 32	 33	  0	
07-May-2013	sub2338	2338	  1	  0	 35	  2	  1	  1	  5	  4	  1	  2	  0	0.52720	  0	0.70000	  0	 11	 40	 41	  0	
07-May-2013	sub2338	2338	  1	  0	 36	  2	  1	  4	  1	  6	  1	  1	  0	0.54180	  0	0.70000	  0	 14	 42	 43	  0	
07-May-2013	sub2338	2338	  1	  0	 37	  2	  1	  4	  1	  6	  1	  1	  0	0.55641	  0	0.70000	  0	 14	 42	 43	  0	
07-May-2013	sub2338	2338	  1	  0	 38	  2	  1	  4	  1	  6	  1	  2	  1	0.44363	  1	0.70000	  0	 14	 32	 33	  1	
07-May-2013	sub2338	2338	  1	  0	 39	  2	  1	  1	  5	  4	  1	  1	  1	0.73765	  1	0.70000	  1	 11	 30	 51	  0	
07-May-2013	sub2338	2338	  1	  0	 40	  2	  1	  5	  6	  5	  1	  2	  0	0.55082	  0	0.90000	  0	 15	 45	 46	  0	
07-May-2013	sub2338	2338	  1	  0	 41	  2	  1	  1	  5	  4	  1	  1	  1	0.36035	  1	0.90000	  0	 11	 30	 31	  1	
07-May-2013	sub2338	2338	  1	  0	 42	  2	  1	  3	  2	  6	  1	  1	  1	0.39958	  1	0.90000	  0	 13	 32	 33	  1	
07-May-2013	sub2338	2338	  1	  0	 43	  2	  1	  5	  6	  5	  0	  1	  0	0.56236	  1	0.90000	  0	 15	 37	 48	  0	
07-May-2013	sub2338	2338	  1	  0	 44	  2	  1	  6	  3	  5	  0	  2	  0	0.56674	  1	0.80000	  0	 16	 37	 48	  0	
07-May-2013	sub2338	2338	  1	  0	 45	  2	  1	  4	  1	  6	  1	  1	  0	0.61984	  0	0.80000	  0	 14	 42	 43	  0	
07-May-2013	sub2338	2338	  1	  0	 46	  2	  1	  4	  1	  6	  1	  2	  1	0.58048	  1	0.80000	  0	 14	 32	 33	  0	
07-May-2013	sub2338	2338	  1	  0	 47	  2	  1	  1	  5	  4	  1	  1	  1	0.46805	  1	0.80000	  0	 11	 30	 31	  1	
07-May-2013	sub2338	2338	  1	  0	 48	  2	  1	  6	  3	  5	  0	  2	  0	0.59082	  1	0.80000	  0	 16	 37	 48	  0	
07-May-2013	sub2338	2338	  1	  0	 49	  2	  1	  2	  4	  4	  1	  1	  0	0.73497	  0	0.80000	  0	 12	 40	 41	  0	
07-May-2013	sub2338	2338	  1	  0	 50	  2	  1	  2	  4	  4	  1	  2	  1	0.46751	  1	0.80000	  0	 12	 30	 31	  1	
07-May-2013	sub2338	2338	  1	  0	 51	  2	  1	  4	  1	  6	  1	  1	  0	0.46426	  0	0.70000	  0	 14	 42	 43	  1	
07-May-2013	sub2338	2338	  1	  0	 52	  2	  1	  3	  2	  6	  1	  2	  0	0.57380	  0	0.70000	  0	 13	 42	 43	  0	
07-May-2013	sub2338	2338	  1	  0	 53	  2	  1	  5	  6	  5	  1	  1	  1	0.52087	  1	0.70000	  0	 15	 35	 36	  0	
07-May-2013	sub2338	2338	  1	  0	 54	  2	  1	  6	  3	  5	  0	  1	  1	0.48739	  0	0.70000	  0	 16	 47	 38	  1	
07-May-2013	sub2338	2338	  1	  0	 55	  2	  1	  1	  5	  4	  1	  1	  1	0.57954	  1	0.70000	  0	 11	 30	 31	  0	
07-May-2013	sub2338	2338	  1	  0	 56	  2	  1	  3	  2	  6	  1	  1	  1	0.73438	  1	0.70000	  1	 13	 32	 51	  0	
07-May-2013	sub2338	2338	  1	  0	 57	  2	  1	  6	  3	  5	  0	  2	  0	0.56089	  1	0.90000	  0	 16	 37	 48	  0	
07-May-2013	sub2338	2338	  1	  0	 58	  2	  1	  5	  6	  5	  1	  1	  1	0.65558	  1	0.90000	  0	 15	 35	 36	  0	
07-May-2013	sub2338	2338	  1	  0	 59	  2	  1	  3	  2	  6	  1	  2	  0	0.44126	  0	0.80000	  0	 13	 42	 43	  1	
07-May-2013	sub2338	2338	  1	  0	 60	  2	  1	  1	  5	  4	  1	  1	  1	0.51630	  1	0.80000	  0	 11	 30	 31	  0	
07-May-2013	sub2338	2338	  1	  0	 61	  2	  1	  2	  4	  4	  1	  2	  1	0.64821	  1	0.80000	  0	 12	 30	 31	  0	
07-May-2013	sub2338	2338	  1	  0	 62	  2	  1	  6	  3	  5	  1	  2	  1	0.53835	  1	0.80000	  0	 16	 35	 36	  0	
07-May-2013	sub2338	2338	  1	  0	 63	  2	  1	  5	  6	  5	  0	  1	  0	0.58997	  1	0.80000	  0	 15	 37	 48	  0	
07-May-2013	sub2338	2338	  1	  0	 64	  2	  1	  4	  1	  6	  1	  1	  0	0.48194	  0	0.80000	  0	 14	 42	 43	  1	
07-May-2013	sub2338	2338	  1	  0	 65	  2	  1	  6	  3	  5	  0	  2	  0	0.50141	  1	0.80000	  0	 16	 37	 48	  0	
07-May-2013	sub2338	2338	  1	  0	 66	  2	  1	  2	  4	  4	  1	  1	  0	0.54039	  0	0.80000	  0	 12	 40	 41	  0	
07-May-2013	sub2338	2338	  1	  0	 67	  2	  1	  5	  6	  5	  1	  2	  0	0.51120	  0	0.80000	  0	 15	 45	 46	  0	
07-May-2013	sub2338	2338	  1	  0	 68	  2	  1	  3	  2	  6	  1	  1	  1	0.50868	  1	0.70000	  0	 13	 32	 33	  0	
07-May-2013	sub2338	2338	  1	  0	 69	  2	  1	  5	  6	  5	  0	  1	  0	0.40029	  1	0.70000	  0	 15	 37	 48	  1	
07-May-2013	sub2338	2338	  1	  0	 70	  2	  1	  5	  6	  5	  1	  2	  0	0.65956	  0	0.70000	  0	 15	 45	 46	  0	
07-May-2013	sub2338	2338	  1	  0	 71	  2	  1	  3	  2	  6	  1	  1	  1	0.37941	  1	0.70000	  0	 13	 32	 33	  1	
07-May-2013	sub2338	2338	  1	  0	 72	  2	  1	  2	  4	  4	  1	  1	  0	0.42849	  0	0.70000	  0	 12	 40	 41	  1	
07-May-2013	sub2338	2338	  1	  0	 73	  2	  1	  5	  6	  5	  1	  2	  0	0.48048	  0	0.70000	  0	 15	 45	 46	  1	
07-May-2013	sub2338	2338	  1	  0	 74	  2	  1	  2	  4	  4	  1	  1	  0	0.47708	  0	0.70000	  0	 12	 40	 41	  1	
07-May-2013	sub2338	2338	  1	  0	 75	  2	  1	  5	  6	  5	  0	  2	  1	0.52233	  0	0.70000	  0	 15	 47	 38	  0	
07-May-2013	sub2338	2338	  1	  0	 76	  2	  2	  1	  5	  4	  1	  1	  1	0.58858	  1	0.70000	  0	 21	 60	 61	  0	
07-May-2013	sub2338	2338	  1	  0	 77	  2	  2	  5	  6	  5	  0	  1	  0	0.37770	  1	0.70000	  0	 25	 67	 88	  1	
07-May-2013	sub2338	2338	  1	  0	 78	  2	  2	  4	  1	  6	  1	  2	  1	0.58448	  1	0.70000	  0	 24	 62	 63	  0	
07-May-2013	sub2338	2338	  1	  0	 79	  2	  2	  2	  4	  4	  1	  2	  1	0.47426	  1	0.70000	  0	 22	 60	 61	  1	
07-May-2013	sub2338	2338	  1	  0	 80	  2	  2	  4	  1	  6	  0	  2	  0	0.45632	  1	0.70000	  0	 24	 64	 89	  1	
07-May-2013	sub2338	2338	  1	  0	 81	  2	  2	  4	  1	  6	  0	  1	  1	0.44327	  0	0.60000	  0	 24	 84	 69	  1	
07-May-2013	sub2338	2338	  1	  0	 82	  2	  2	  3	  2	  6	  1	  1	  1	0.75225	  1	0.60000	  1	 23	 62	 51	  0	
07-May-2013	sub2338	2338	  1	  0	 83	  2	  2	  4	  1	  6	  1	  1	  0	0.42263	  0	0.80000	  0	 24	 82	 83	  1	
07-May-2013	sub2338	2338	  1	  0	 84	  2	  2	  6	  3	  5	  1	  2	  1	0.43792	  1	0.80000	  0	 26	 65	 66	  1	
07-May-2013	sub2338	2338	  1	  0	 85	  2	  2	  4	  1	  6	  1	  1	  0	0.53985	  0	0.70000	  0	 24	 82	 83	  0	
07-May-2013	sub2338	2338	  1	  0	 86	  2	  2	  2	  4	  4	  1	  2	  1	0.53437	  1	0.70000	  0	 22	 60	 61	  0	
07-May-2013	sub2338	2338	  1	  0	 87	  2	  2	  3	  2	  6	  1	  2	  0	0.62277	  0	0.70000	  0	 23	 82	 83	  0	
07-May-2013	sub2338	2338	  1	  0	 88	  2	  2	  3	  2	  6	  1	  1	  1	0.46163	  1	0.70000	  0	 23	 62	 63	  1	
07-May-2013	sub2338	2338	  1	  0	 89	  2	  2	  5	  6	  5	  0	  1	  0	0.36292	  1	0.70000	  0	 25	 67	 88	  1	
07-May-2013	sub2338	2338	  1	  0	 90	  2	  2	  3	  2	  6	  1	  2	  0	0.42282	  0	0.70000	  0	 23	 82	 83	  1	
07-May-2013	sub2338	2338	  1	  0	 91	  2	  2	  3	  2	  6	  1	  1	  1	0.28481	  1	0.70000	  0	 23	 62	 63	  1	
07-May-2013	sub2338	2338	  1	  0	 92	  2	  2	  6	  3	  5	  1	  1	  0	0.51147	  0	0.70000	  0	 26	 85	 86	  0	
07-May-2013	sub2338	2338	  1	  0	 93	  2	  2	  1	  5	  4	  1	  2	  0	0.53452	  0	0.70000	  0	 21	 80	 81	  0	
07-May-2013	sub2338	2338	  1	  0	 94	  2	  2	  6	  3	  5	  1	  1	  0	0.30978	  0	0.70000	  0	 26	 85	 86	  1	
07-May-2013	sub2338	2338	  1	  0	 95	  2	  2	  6	  3	  5	  1	  2	  1	0.38734	  1	0.70000	  0	 26	 65	 66	  1	
07-May-2013	sub2338	2338	  1	  0	 96	  2	  2	  2	  4	  4	  1	  1	  0	0.63261	  0	0.70000	  0	 22	 80	 81	  0	
07-May-2013	sub2338	2338	  1	  0	 97	  2	  2	  4	  1	  6	  1	  2	  1	0.39094	  1	0.70000	  0	 24	 62	 63	  1	
07-May-2013	sub2338	2338	  1	  0	 98	  2	  2	  5	  6	  5	  0	  1	  0	0.51082	  1	0.70000	  0	 25	 67	 88	  0	
07-May-2013	sub2338	2338	  1	  0	 99	  2	  2	  6	  3	  5	  0	  2	  0	0.46828	  1	0.70000	  0	 26	 67	 88	  1	
07-May-2013	sub2338	2338	  1	  0	100	  2	  2	  4	  1	  6	  1	  2	  1	0.49080	  1	0.70000	  0	 24	 62	 63	  1	
07-May-2013	sub2338	2338	  1	  0	101	  2	  2	  3	  2	  6	  1	  2	  0	0.71728	  0	0.60000	  1	 23	 82	 51	  0	
07-May-2013	sub2338	2338	  1	  0	102	  2	  2	  4	  1	  6	  1	  1	  0	0.32215	  0	0.70000	  0	 24	 82	 83	  1	
07-May-2013	sub2338	2338	  1	  0	103	  2	  2	  3	  2	  6	  1	  2	  0	0.61938	  0	0.70000	  0	 23	 82	 83	  0	
07-May-2013	sub2338	2338	  1	  0	104	  2	  2	  2	  4	  4	  1	  1	  0	0.29687	  0	0.70000	  0	 22	 80	 81	  1	
07-May-2013	sub2338	2338	  1	  0	105	  2	  2	  2	  4	  4	  1	  1	  0	0.00018	  0	0.70000	  0	 22	 80	 81	  1	
07-May-2013	sub2338	2338	  1	  0	106	  2	  2	  6	  3	  5	  0	  2	  0	0.51211	  1	0.70000	  0	 26	 67	 88	  0	
07-May-2013	sub2338	2338	  1	  0	107	  2	  2	  3	  2	  6	  0	  1	  0	0.50710	  1	0.70000	  0	 23	 64	 89	  0	
07-May-2013	sub2338	2338	  1	  0	108	  2	  2	  5	  6	  5	  0	  2	  1	0.32894	  0	0.70000	  0	 25	 87	 68	  1	
07-May-2013	sub2338	2338	  1	  0	109	  2	  2	  5	  6	  5	  0	  2	  1	0.33612	  0	0.70000	  0	 25	 87	 68	  1	
07-May-2013	sub2338	2338	  1	  0	110	  2	  2	  4	  1	  6	  1	  2	  1	0.32491	  1	0.70000	  0	 24	 62	 63	  1	
07-May-2013	sub2338	2338	  1	  0	111	  2	  2	  4	  1	  6	  0	  2	  0	0.18710	  1	0.70000	  0	 24	 64	 89	  1	
07-May-2013	sub2338	2338	  1	  0	112	  2	  2	  2	  4	  4	  1	  2	  1	1.60930	  1	0.70000	  1	 22	 60	 51	  0	
07-May-2013	sub2338	2338	  1	  0	113	  2	  2	  1	  5	  4	  1	  2	  0	0.24591	  0	0.80000	  0	 21	 80	 81	  1	
07-May-2013	sub2338	2338	  1	  0	114	  2	  2	  5	  6	  5	  0	  2	  1	0.00009	  0	0.80000	  0	 25	 87	 68	  1	
07-May-2013	sub2338	2338	  1	  0	115	  2	  2	  3	  2	  6	  1	  1	  1	8.61574	  1	0.80000	  1	 23	 62	 51	  0	
07-May-2013	sub2338	2338	  1	  0	116	  2	  2	  6	  3	  5	  0	  1	  1	0.16198	  0	0.80000	  0	 26	 87	 68	  1	
07-May-2013	sub2338	2338	  1	  0	117	  2	  2	  1	  5	  4	  1	  2	  0	0.56294	  0	0.80000	  0	 21	 80	 81	  0	
07-May-2013	sub2338	2338	  1	  0	118	  2	  2	  1	  5	  4	  1	  2	  0	0.48491	  0	0.80000	  0	 21	 80	 81	  1	
07-May-2013	sub2338	2338	  1	  0	119	  2	  2	  5	  6	  5	  0	  1	  0	0.45466	  1	0.80000	  0	 25	 67	 88	  1	
07-May-2013	sub2338	2338	  1	  0	120	  2	  2	  1	  5	  4	  1	  2	  0	0.53684	  0	0.80000	  0	 21	 80	 81	  0	
07-May-2013	sub2338	2338	  1	  0	121	  2	  2	  6	  3	  5	  0	  1	  1	0.30643	  0	0.80000	  0	 26	 87	 68	  1	
07-May-2013	sub2338	2338	  1	  0	122	  2	  2	  3	  2	  6	  1	  1	  1	0.53957	  1	0.80000	  0	 23	 62	 63	  0	
07-May-2013	sub2338	2338	  1	  0	123	  2	  2	  2	  4	  4	  1	  1	  0	0.50143	  0	0.80000	  0	 22	 80	 81	  0	
07-May-2013	sub2338	2338	  1	  0	124	  2	  2	  2	  4	  4	  1	  1	  0	0.53257	  0	0.80000	  0	 22	 80	 81	  0	
07-May-2013	sub2338	2338	  1	  0	125	  2	  2	  4	  1	  6	  1	  2	  1	0.46849	  1	0.80000	  0	 24	 62	 63	  1	
07-May-2013	sub2338	2338	  1	  0	126	  2	  2	  1	  5	  4	  1	  1	  1	0.50522	  1	0.80000	  0	 21	 60	 61	  0	
07-May-2013	sub2338	2338	  1	  0	127	  2	  2	  1	  5	  4	  1	  1	  1	0.44615	  1	0.80000	  0	 21	 60	 61	  1	
07-May-2013	sub2338	2338	  1	  0	128	  2	  2	  2	  4	  4	  1	  1	  0	0.54554	  0	0.80000	  0	 22	 80	 81	  0	
07-May-2013	sub2338	2338	  1	  0	129	  2	  2	  1	  5	  4	  1	  2	  0	0.55237	  0	0.80000	  0	 21	 80	 81	  0	
07-May-2013	sub2338	2338	  1	  0	130	  2	  2	  1	  5	  4	  1	  1	  1	0.49131	  1	0.80000	  0	 21	 60	 61	  1	
07-May-2013	sub2338	2338	  1	  0	131	  2	  2	  5	  6	  5	  0	  2	  1	0.60329	  0	0.80000	  0	 25	 87	 68	  0	
07-May-2013	sub2338	2338	  1	  0	132	  2	  2	  5	  6	  5	  0	  2	  1	0.60584	  0	0.80000	  0	 25	 87	 68	  0	
07-May-2013	sub2338	2338	  1	  0	133	  2	  2	  1	  5	  4	  1	  1	  1	0.68516	  1	0.80000	  0	 21	 60	 61	  0	
07-May-2013	sub2338	2338	  1	  0	134	  2	  2	  2	  4	  4	  1	  2	  1	0.58492	  1	0.80000	  0	 22	 60	 61	  0	
07-May-2013	sub2338	2338	  1	  0	135	  2	  2	  5	  6	  5	  0	  2	  1	0.62223	  0	0.70000	  0	 25	 87	 68	  0	
07-May-2013	sub2338	2338	  1	  0	136	  2	  2	  2	  4	  4	  1	  1	  0	0.59889	  0	0.70000	  0	 22	 80	 81	  0	
07-May-2013	sub2338	2338	  1	  0	137	  2	  2	  2	  4	  4	  1	  2	  1	0.48423	  1	0.70000	  0	 22	 60	 61	  1	
07-May-2013	sub2338	2338	  1	  0	138	  2	  2	  1	  5	  4	  1	  1	  1	0.55065	  1	0.70000	  0	 21	 60	 61	  0	
07-May-2013	sub2338	2338	  1	  0	139	  2	  2	  5	  6	  5	  0	  2	  1	0.49456	  0	0.70000	  0	 25	 87	 68	  1	
07-May-2013	sub2338	2338	  1	  0	140	  2	  2	  5	  6	  5	  0	  2	  1	0.66247	  0	0.70000	  0	 25	 87	 68	  0	
07-May-2013	sub2338	2338	  1	  0	141	  2	  2	  6	  3	  5	  1	  2	  1	0.56182	  1	0.70000	  0	 26	 65	 66	  0	
07-May-2013	sub2338	2338	  1	  0	142	  2	  2	  3	  2	  6	  1	  1	  1	0.74160	  1	0.70000	  1	 23	 62	 51	  0	
07-May-2013	sub2338	2338	  1	  0	143	  2	  2	  4	  1	  6	  1	  2	  1	0.52317	  1	0.80000	  0	 24	 62	 63	  0	
07-May-2013	sub2338	2338	  1	  0	144	  2	  2	  5	  6	  5	  0	  2	  1	0.49780	  0	0.80000	  0	 25	 87	 68	  1	
07-May-2013	sub2338	2338	  1	  0	145	  2	  2	  6	  3	  5	  1	  2	  1	0.42914	  1	0.80000	  0	 26	 65	 66	  1	
07-May-2013	sub2338	2338	  1	  0	146	  2	  2	  6	  3	  5	  0	  2	  0	0.40836	  1	0.80000	  0	 26	 67	 88	  1	
07-May-2013	sub2338	2338	  1	  0	147	  2	  2	  4	  1	  6	  1	  1	  0	0.57541	  0	0.80000	  0	 24	 82	 83	  0	
07-May-2013	sub2338	2338	  1	  0	148	  2	  2	  1	  5	  4	  1	  1	  1	0.66541	  1	0.80000	  0	 21	 60	 61	  0	
07-May-2013	sub2338	2338	  1	  0	149	  2	  2	  6	  3	  5	  0	  2	  0	0.51082	  1	0.80000	  0	 26	 67	 88	  0	
07-May-2013	sub2338	2338	  1	  0	150	  2	  2	  3	  2	  6	  0	  2	  1	0.64744	  0	0.80000	  0	 23	 84	 69	  0	
07-May-2013	sub2338	2338	  1	  0	  1	  3	  1	  5	  6	  1	  0	  1	  0	0.49985	  1	0.60000	  0	 15	 37	 48	  1	
07-May-2013	sub2338	2338	  1	  0	  2	  3	  1	  5	  6	  1	  0	  2	  1	0.48789	  0	0.30000	  1	 15	 47	 51	  1	
07-May-2013	sub2338	2338	  1	  0	  3	  3	  1	  1	  1	  1	  1	  2	  0	0.52829	  0	0.90000	  0	 11	 40	 41	  0	
07-May-2013	sub2338	2338	  1	  0	  4	  3	  1	  2	  2	  1	  1	  1	  0	0.52737	  0	0.90000	  0	 12	 40	 41	  0	
07-May-2013	sub2338	2338	  1	  0	  5	  3	  1	  4	  3	  3	  1	  2	  1	0.52729	  1	0.90000	  0	 14	 32	 33	  0	
07-May-2013	sub2338	2338	  1	  0	  6	  3	  1	  3	  4	  2	  1	  2	  0	0.53468	  0	0.90000	  0	 13	 42	 43	  0	
07-May-2013	sub2338	2338	  1	  0	  7	  3	  1	  2	  2	  1	  1	  1	  0	0.28996	  0	0.90000	  0	 12	 40	 41	  1	
07-May-2013	sub2338	2338	  1	  0	  8	  3	  1	  3	  4	  2	  1	  2	  0	0.45053	  0	0.90000	  0	 13	 42	 43	  1	
07-May-2013	sub2338	2338	  1	  0	  9	  3	  1	  6	  5	  2	  0	  1	  1	0.41072	  0	0.90000	  0	 16	 47	 38	  1	
07-May-2013	sub2338	2338	  1	  0	 10	  3	  1	  5	  6	  1	  1	  1	  1	0.35313	  1	0.90000	  0	 15	 35	 36	  1	
07-May-2013	sub2338	2338	  1	  0	 11	  3	  1	  5	  6	  1	  1	  1	  1	0.37439	  1	0.90000	  0	 15	 35	 36	  1	
07-May-2013	sub2338	2338	  1	  0	 12	  3	  1	  4	  3	  3	  0	  2	  0	0.55513	  1	0.90000	  0	 14	 34	 49	  0	
07-May-2013	sub2338	2338	  1	  0	 13	  3	  1	  1	  1	  1	  1	  1	  1	0.45864	  1	0.90000	  0	 11	 30	 31	  1	
07-May-2013	sub2338	2338	  1	  0	 14	  3	  1	  3	  4	  2	  1	  2	  0	0.46390	  0	0.90000	  0	 13	 42	 43	  1	
07-May-2013	sub2338	2338	  1	  0	 15	  3	  1	  5	  6	  1	  1	  1	  1	0.46759	  1	0.90000	  0	 15	 35	 36	  1	
07-May-2013	sub2338	2338	  1	  0	 16	  3	  1	  3	  4	  2	  1	  1	  1	0.38832	  1	0.80000	  0	 13	 32	 33	  1	
07-May-2013	sub2338	2338	  1	  0	 17	  3	  1	  2	  2	  1	  1	  1	  0	0.45416	  0	0.80000	  0	 12	 40	 41	  1	
07-May-2013	sub2338	2338	  1	  0	 18	  3	  1	  4	  3	  3	  1	  2	  1	0.44936	  1	0.70000	  0	 14	 32	 33	  1	
07-May-2013	sub2338	2338	  1	  0	 19	  3	  1	  1	  1	  1	  1	  1	  1	0.25882	  1	0.70000	  0	 11	 30	 31	  1	
07-May-2013	sub2338	2338	  1	  0	 20	  3	  1	  2	  2	  1	  1	  2	  1	0.59331	  1	0.70000	  0	 12	 30	 31	  0	
07-May-2013	sub2338	2338	  1	  0	 21	  3	  1	  6	  5	  2	  0	  1	  1	0.28587	  0	0.60000	  0	 16	 47	 38	  1	
07-May-2013	sub2338	2338	  1	  0	 22	  3	  1	  5	  6	  1	  0	  1	  0	0.26364	  1	0.60000	  0	 15	 37	 48	  1	
07-May-2013	sub2338	2338	  1	  0	 23	  3	  1	  5	  6	  1	  1	  1	  1	0.43653	  1	0.60000	  0	 15	 35	 36	  1	
07-May-2013	sub2338	2338	  1	  0	 24	  3	  1	  3	  4	  2	  1	  2	  0	0.45902	  0	0.60000	  0	 13	 42	 43	  1	
07-May-2013	sub2338	2338	  1	  0	 25	  3	  1	  3	  4	  2	  1	  1	  1	0.57019	  1	0.60000	  0	 13	 32	 33	  0	
07-May-2013	sub2338	2338	  1	  0	 26	  3	  1	  6	  5	  2	  1	  1	  0	0.56943	  0	0.50000	  1	 16	 45	 51	  0	
07-May-2013	sub2338	2338	  1	  0	 27	  3	  1	  4	  3	  3	  1	  2	  1	0.53298	  1	0.90000	  0	 14	 32	 33	  0	
07-May-2013	sub2338	2338	  1	  0	 28	  3	  1	  6	  5	  2	  1	  2	  1	0.48172	  1	0.90000	  0	 16	 35	 36	  1	
07-May-2013	sub2338	2338	  1	  0	 29	  3	  1	  1	  1	  1	  1	  2	  0	0.61291	  0	0.90000	  0	 11	 40	 41	  0	
07-May-2013	sub2338	2338	  1	  0	 30	  3	  1	  3	  4	  2	  1	  1	  1	0.45038	  1	0.80000	  0	 13	 32	 33	  1	
07-May-2013	sub2338	2338	  1	  0	 31	  3	  1	  1	  1	  1	  1	  1	  1	0.44137	  1	0.80000	  0	 11	 30	 31	  1	
07-May-2013	sub2338	2338	  1	  0	 32	  3	  1	  4	  3	  3	  1	  1	  0	0.40269	  0	0.80000	  0	 14	 42	 43	  1	
07-May-2013	sub2338	2338	  1	  0	 33	  3	  1	  1	  1	  1	  1	  2	  0	0.32168	  0	0.80000	  0	 11	 40	 41	  1	
07-May-2013	sub2338	2338	  1	  0	 34	  3	  1	  4	  3	  3	  1	  1	  0	1.77214	  0	0.80000	  1	 14	 42	 51	  0	
07-May-2013	sub2338	2338	  1	  0	 35	  3	  1	  4	  3	  3	  1	  2	  1	0.45601	  1	0.90000	  0	 14	 32	 33	  1	
07-May-2013	sub2338	2338	  1	  0	 36	  3	  1	  2	  2	  1	  1	  1	  0	0.52779	  0	0.90000	  0	 12	 40	 41	  0	
07-May-2013	sub2338	2338	  1	  0	 37	  3	  1	  6	  5	  2	  1	  2	  1	0.75669	  1	0.90000	  0	 16	 35	 36	  0	
07-May-2013	sub2338	2338	  1	  0	 38	  3	  1	  6	  5	  2	  1	  2	  1	0.51032	  1	0.90000	  0	 16	 35	 36	  0	
07-May-2013	sub2338	2338	  1	  0	 39	  3	  1	  5	  6	  1	  0	  1	  0	0.48159	  1	0.90000	  0	 15	 37	 48	  1	
07-May-2013	sub2338	2338	  1	  0	 40	  3	  1	  6	  5	  2	  0	  2	  0	0.70235	  1	0.90000	  0	 16	 37	 48	  0	
07-May-2013	sub2338	2338	  1	  0	 41	  3	  1	  3	  4	  2	  1	  1	  1	0.52894	  1	0.90000	  0	 13	 32	 33	  0	
07-May-2013	sub2338	2338	  1	  0	 42	  3	  1	  2	  2	  1	  1	  2	  1	0.52897	  1	0.90000	  0	 12	 30	 31	  0	
07-May-2013	sub2338	2338	  1	  0	 43	  3	  1	  1	  1	  1	  1	  2	  0	0.55738	  0	0.90000	  0	 11	 40	 41	  0	
07-May-2013	sub2338	2338	  1	  0	 44	  3	  1	  4	  3	  3	  1	  1	  0	0.47307	  0	0.80000	  0	 14	 42	 43	  1	
07-May-2013	sub2338	2338	  1	  0	 45	  3	  1	  5	  6	  1	  0	  1	  0	0.54441	  1	0.80000	  0	 15	 37	 48	  0	
07-May-2013	sub2338	2338	  1	  0	 46	  3	  1	  4	  3	  3	  1	  2	  1	0.54792	  1	0.80000	  0	 14	 32	 33	  0	
07-May-2013	sub2338	2338	  1	  0	 47	  3	  1	  2	  2	  1	  1	  2	  1	0.69839	  1	0.80000	  0	 12	 30	 31	  0	
07-May-2013	sub2338	2338	  1	  0	 48	  3	  1	  5	  6	  1	  1	  2	  0	0.35272	  0	0.80000	  0	 15	 45	 46	  1	
07-May-2013	sub2338	2338	  1	  0	 49	  3	  1	  2	  2	  1	  1	  2	  1	0.45397	  1	0.80000	  0	 12	 30	 31	  1	
07-May-2013	sub2338	2338	  1	  0	 50	  3	  1	  2	  2	  1	  1	  2	  1	0.40849	  1	0.80000	  0	 12	 30	 31	  1	
07-May-2013	sub2338	2338	  1	  0	 51	  3	  1	  6	  5	  2	  0	  2	  0	0.67612	  1	0.70000	  0	 16	 37	 48	  0	
07-May-2013	sub2338	2338	  1	  0	 52	  3	  1	  2	  2	  1	  1	  2	  1	0.56877	  1	0.70000	  0	 12	 30	 31	  0	
07-May-2013	sub2338	2338	  1	  0	 53	  3	  1	  6	  5	  2	  1	  2	  1	0.38544	  1	0.70000	  0	 16	 35	 36	  1	
07-May-2013	sub2338	2338	  1	  0	 54	  3	  1	  6	  5	  2	  0	  2	  0	0.42020	  1	0.70000	  0	 16	 37	 48	  1	
07-May-2013	sub2338	2338	  1	  0	 55	  3	  1	  1	  1	  1	  1	  2	  0	0.38838	  0	0.70000	  0	 11	 40	 41	  1	
07-May-2013	sub2338	2338	  1	  0	 56	  3	  1	  6	  5	  2	  0	  2	  0	0.67170	  1	0.70000	  0	 16	 37	 48	  0	
07-May-2013	sub2338	2338	  1	  0	 57	  3	  1	  5	  6	  1	  0	  2	  1	0.20912	  0	0.70000	  0	 15	 47	 38	  1	
07-May-2013	sub2338	2338	  1	  0	 58	  3	  1	  4	  3	  3	  0	  2	  0	0.42887	  1	0.70000	  0	 14	 34	 49	  1	
07-May-2013	sub2338	2338	  1	  0	 59	  3	  1	  3	  4	  2	  0	  2	  1	0.28866	  0	0.70000	  0	 13	 44	 39	  1	
07-May-2013	sub2338	2338	  1	  0	 60	  3	  1	  1	  1	  1	  1	  1	  1	0.22443	  1	0.70000	  0	 11	 30	 31	  1	
07-May-2013	sub2338	2338	  1	  0	 61	  3	  1	  3	  4	  2	  1	  2	  0	0.39627	  0	0.60000	  0	 13	 42	 43	  1	
07-May-2013	sub2338	2338	  1	  0	 62	  3	  1	  3	  4	  2	  0	  2	  1	2.93419	  0	0.60000	  1	 13	 44	 51	  0	
07-May-2013	sub2338	2338	  1	  0	 63	  3	  1	  4	  3	  3	  1	  1	  0	0.39181	  0	0.80000	  0	 14	 42	 43	  1	
07-May-2013	sub2338	2338	  1	  0	 64	  3	  1	  1	  1	  1	  1	  2	  0	0.23979	  0	0.80000	  0	 11	 40	 41	  1	
07-May-2013	sub2338	2338	  1	  0	 65	  3	  1	  6	  5	  2	  1	  2	  1	0.00827	  1	0.80000	  0	 16	 35	 36	  1	
07-May-2013	sub2338	2338	  1	  0	 66	  3	  1	  2	  2	  1	  1	  2	  1	0.59777	  1	0.80000	  0	 12	 30	 31	  0	
07-May-2013	sub2338	2338	  1	  0	 67	  3	  1	  2	  2	  1	  1	  2	  1	0.57101	  1	0.80000	  0	 12	 30	 31	  0	
07-May-2013	sub2338	2338	  1	  0	 68	  3	  1	  6	  5	  2	  0	  2	  0	0.49504	  1	0.70000	  0	 16	 37	 48	  1	
07-May-2013	sub2338	2338	  1	  0	 69	  3	  1	  1	  1	  1	  1	  2	  0	1.12464	  0	0.70000	  1	 11	 40	 51	  0	
07-May-2013	sub2338	2338	  1	  0	 70	  3	  1	  4	  3	  3	  1	  2	  1	0.58804	  1	0.90000	  0	 14	 32	 33	  0	
07-May-2013	sub2338	2338	  1	  0	 71	  3	  1	  2	  2	  1	  1	  2	  1	5.52274	  1	0.90000	  1	 12	 30	 51	  0	
07-May-2013	sub2338	2338	  1	  0	 72	  3	  1	  3	  4	  2	  1	  2	  0	0.18918	  0	0.90000	  0	 13	 42	 43	  1	
07-May-2013	sub2338	2338	  1	  0	 73	  3	  1	  3	  4	  2	  0	  1	  0	0.14089	  1	0.90000	  0	 13	 34	 49	  1	
07-May-2013	sub2338	2338	  1	  0	 74	  3	  1	  1	  1	  1	  1	  2	  0	0.43336	  0	0.90000	  0	 11	 40	 41	  1	
07-May-2013	sub2338	2338	  1	  0	 75	  3	  1	  5	  6	  1	  1	  2	  0	0.01464	  0	0.90000	  0	 15	 45	 46	  1	
07-May-2013	sub2338	2338	  1	  0	 76	  3	  2	  4	  3	  3	  0	  2	  0	0.48521	  1	0.90000	  0	 24	 64	 89	  1	
07-May-2013	sub2338	2338	  1	  0	 77	  3	  2	  5	  6	  1	  0	  1	  0	0.26495	  1	0.90000	  0	 25	 67	 88	  1	
07-May-2013	sub2338	2338	  1	  0	 78	  3	  2	  3	  4	  2	  1	  2	  0	0.00009	  0	0.90000	  0	 23	 82	 83	  1	
07-May-2013	sub2338	2338	  1	  0	 79	  3	  2	  5	  6	  1	  0	  1	  0	0.64417	  1	0.90000	  0	 25	 67	 88	  0	
07-May-2013	sub2338	2338	  1	  0	 80	  3	  2	  3	  4	  2	  1	  2	  0	1.26613	  0	0.90000	  1	 23	 82	 51	  0	
07-May-2013	sub2338	2338	  1	  0	 81	  3	  2	  2	  2	  1	  1	  2	  1	0.37397	  1	0.90000	  0	 22	 60	 61	  1	
07-May-2013	sub2338	2338	  1	  0	 82	  3	  2	  1	  1	  1	  1	  1	  1	0.44336	  1	0.90000	  0	 21	 60	 61	  1	
07-May-2013	sub2338	2338	  1	  0	 83	  3	  2	  4	  3	  3	  0	  1	  1	0.32697	  0	0.90000	  0	 24	 84	 69	  1	
07-May-2013	sub2338	2338	  1	  0	 84	  3	  2	  5	  6	  1	  0	  1	  0	0.60412	  1	0.90000	  0	 25	 67	 88	  0	
07-May-2013	sub2338	2338	  1	  0	 85	  3	  2	  6	  5	  2	  1	  2	  1	0.59427	  1	0.90000	  0	 26	 65	 66	  0	
07-May-2013	sub2338	2338	  1	  0	 86	  3	  2	  2	  2	  1	  1	  1	  0	0.23924	  0	0.90000	  0	 22	 80	 81	  1	
07-May-2013	sub2338	2338	  1	  0	 87	  3	  2	  3	  4	  2	  0	  2	  1	1.19009	  0	0.90000	  1	 23	 84	 51	  0	
07-May-2013	sub2338	2338	  1	  0	 88	  3	  2	  4	  3	  3	  1	  2	  1	1.63172	  1	0.90000	  1	 24	 62	 51	  0	
07-May-2013	sub2338	2338	  1	  0	 89	  3	  2	  6	  5	  2	  1	  2	  1	0.34466	  1	0.90000	  0	 26	 65	 66	  1	
07-May-2013	sub2338	2338	  1	  0	 90	  3	  2	  5	  6	  1	  0	  1	  0	0.42606	  1	0.90000	  0	 25	 67	 88	  1	
07-May-2013	sub2338	2338	  1	  0	 91	  3	  2	  4	  3	  3	  1	  2	  1	0.51244	  1	0.90000	  0	 24	 62	 63	  0	
07-May-2013	sub2338	2338	  1	  0	 92	  3	  2	  2	  2	  1	  1	  1	  0	0.61015	  0	0.90000	  0	 22	 80	 81	  0	
07-May-2013	sub2338	2338	  1	  0	 93	  3	  2	  5	  6	  1	  0	  1	  0	0.55369	  1	0.90000	  0	 25	 67	 88	  0	
07-May-2013	sub2338	2338	  1	  0	 94	  3	  2	  3	  4	  2	  0	  2	  1	0.56099	  0	0.90000	  0	 23	 84	 69	  0	
07-May-2013	sub2338	2338	  1	  0	 95	  3	  2	  6	  5	  2	  0	  1	  1	0.48941	  0	0.90000	  0	 26	 87	 68	  1	
07-May-2013	sub2338	2338	  1	  0	 96	  3	  2	  4	  3	  3	  0	  2	  0	0.52871	  1	0.90000	  0	 24	 64	 89	  0	
07-May-2013	sub2338	2338	  1	  0	 97	  3	  2	  2	  2	  1	  1	  2	  1	0.50740	  1	0.90000	  0	 22	 60	 61	  0	
07-May-2013	sub2338	2338	  1	  0	 98	  3	  2	  2	  2	  1	  1	  2	  1	0.54946	  1	0.90000	  0	 22	 60	 61	  0	
07-May-2013	sub2338	2338	  1	  0	 99	  3	  2	  5	  6	  1	  0	  1	  0	0.45082	  1	0.90000	  0	 25	 67	 88	  1	
07-May-2013	sub2338	2338	  1	  0	100	  3	  2	  1	  1	  1	  1	  2	  0	0.48312	  0	0.90000	  0	 21	 80	 81	  1	
07-May-2013	sub2338	2338	  1	  0	101	  3	  2	  3	  4	  2	  1	  1	  1	0.06600	  1	0.90000	  0	 23	 62	 63	  1	
07-May-2013	sub2338	2338	  1	  0	102	  3	  2	  4	  3	  3	  1	  2	  1	0.00015	  1	0.90000	  0	 24	 62	 63	  1	
07-May-2013	sub2338	2338	  1	  0	103	  3	  2	  1	  1	  1	  1	  1	  1	0.51042	  1	0.90000	  0	 21	 60	 61	  0	
07-May-2013	sub2338	2338	  1	  0	104	  3	  2	  1	  1	  1	  1	  2	  0	0.57756	  0	0.90000	  0	 21	 80	 81	  0	
07-May-2013	sub2338	2338	  1	  0	105	  3	  2	  6	  5	  2	  1	  2	  1	0.60376	  1	0.90000	  0	 26	 65	 66	  0	
07-May-2013	sub2338	2338	  1	  0	106	  3	  2	  3	  4	  2	  1	  1	  1	0.65064	  1	0.90000	  0	 23	 62	 63	  0	
07-May-2013	sub2338	2338	  1	  0	107	  3	  2	  1	  1	  1	  1	  2	  0	0.52085	  0	0.90000	  0	 21	 80	 81	  0	
07-May-2013	sub2338	2338	  1	  0	108	  3	  2	  4	  3	  3	  1	  2	  1	0.42738	  1	0.90000	  0	 24	 62	 63	  1	
07-May-2013	sub2338	2338	  1	  0	109	  3	  2	  1	  1	  1	  1	  1	  1	0.66988	  1	0.90000	  0	 21	 60	 61	  0	
07-May-2013	sub2338	2338	  1	  0	110	  3	  2	  3	  4	  2	  1	  2	  0	0.52604	  0	0.90000	  0	 23	 82	 83	  0	
07-May-2013	sub2338	2338	  1	  0	111	  3	  2	  6	  5	  2	  0	  1	  1	0.46066	  0	0.90000	  0	 26	 87	 68	  1	
07-May-2013	sub2338	2338	  1	  0	112	  3	  2	  3	  4	  2	  1	  2	  0	0.50142	  0	0.90000	  0	 23	 82	 83	  0	
07-May-2013	sub2338	2338	  1	  0	113	  3	  2	  5	  6	  1	  0	  1	  0	0.44385	  1	0.90000	  0	 25	 67	 88	  1	
07-May-2013	sub2338	2338	  1	  0	114	  3	  2	  1	  1	  1	  1	  2	  0	0.62164	  0	0.90000	  0	 21	 80	 81	  0	
07-May-2013	sub2338	2338	  1	  0	115	  3	  2	  3	  4	  2	  1	  2	  0	0.33701	  0	0.90000	  0	 23	 82	 83	  1	
07-May-2013	sub2338	2338	  1	  0	116	  3	  2	  1	  1	  1	  1	  1	  1	0.18896	  1	0.90000	  0	 21	 60	 61	  1	
07-May-2013	sub2338	2338	  1	  0	117	  3	  2	  4	  3	  3	  1	  1	  0	0.49514	  0	0.90000	  0	 24	 82	 83	  1	
07-May-2013	sub2338	2338	  1	  0	118	  3	  2	  2	  2	  1	  1	  2	  1	0.51267	  1	0.90000	  0	 22	 60	 61	  0	
07-May-2013	sub2338	2338	  1	  0	119	  3	  2	  6	  5	  2	  1	  1	  0	0.69034	  0	0.90000	  0	 26	 85	 86	  0	
07-May-2013	sub2338	2338	  1	  0	120	  3	  2	  5	  6	  1	  0	  2	  1	0.40110	  0	0.90000	  0	 25	 87	 68	  1	
07-May-2013	sub2338	2338	  1	  0	121	  3	  2	  4	  3	  3	  1	  2	  1	1.82360	  1	0.90000	  1	 24	 62	 51	  0	
07-May-2013	sub2338	2338	  1	  0	122	  3	  2	  6	  5	  2	  0	  2	  0	0.31642	  1	0.90000	  0	 26	 67	 88	  1	
07-May-2013	sub2338	2338	  1	  0	123	  3	  2	  5	  6	  1	  0	  2	  1	1.40934	  0	0.90000	  1	 25	 87	 51	  0	
07-May-2013	sub2338	2338	  1	  0	124	  3	  2	  2	  2	  1	  1	  2	  1	0.60839	  1	0.90000	  0	 22	 60	 61	  0	
07-May-2013	sub2338	2338	  1	  0	125	  3	  2	  6	  5	  2	  1	  1	  0	0.56224	  0	0.90000	  0	 26	 85	 86	  0	
07-May-2013	sub2338	2338	  1	  0	126	  3	  2	  2	  2	  1	  1	  2	  1	0.41700	  1	0.90000	  0	 22	 60	 61	  1	
07-May-2013	sub2338	2338	  1	  0	127	  3	  2	  5	  6	  1	  0	  1	  0	0.59679	  1	0.90000	  0	 25	 67	 88	  0	
07-May-2013	sub2338	2338	  1	  0	128	  3	  2	  2	  2	  1	  1	  1	  0	2.46212	  0	0.90000	  1	 22	 80	 51	  0	
07-May-2013	sub2338	2338	  1	  0	129	  3	  2	  5	  6	  1	  0	  1	  0	0.44870	  1	0.90000	  0	 25	 67	 88	  1	
07-May-2013	sub2338	2338	  1	  0	130	  3	  2	  4	  3	  3	  1	  2	  1	0.64334	  1	0.90000	  0	 24	 62	 63	  0	
07-May-2013	sub2338	2338	  1	  0	131	  3	  2	  6	  5	  2	  1	  1	  0	0.07773	  0	0.90000	  0	 26	 85	 86	  1	
07-May-2013	sub2338	2338	  1	  0	132	  3	  2	  3	  4	  2	  1	  2	  0	0.60001	  0	0.90000	  0	 23	 82	 83	  0	
07-May-2013	sub2338	2338	  1	  0	133	  3	  2	  4	  3	  3	  1	  2	  1	0.27477	  1	0.90000	  0	 24	 62	 63	  1	
07-May-2013	sub2338	2338	  1	  0	134	  3	  2	  1	  1	  1	  1	  1	  1	0.66958	  1	0.90000	  0	 21	 60	 61	  0	
07-May-2013	sub2338	2338	  1	  0	135	  3	  2	  6	  5	  2	  0	  1	  1	0.59494	  0	0.90000	  0	 26	 87	 68	  0	
07-May-2013	sub2338	2338	  1	  0	136	  3	  2	  2	  2	  1	  1	  2	  1	4.93860	  1	0.90000	  1	 22	 60	 51	  0	
07-May-2013	sub2338	2338	  1	  0	137	  3	  2	  5	  6	  1	  0	  1	  0	0.46871	  1	0.90000	  0	 25	 67	 88	  1	
07-May-2013	sub2338	2338	  1	  0	138	  3	  2	  3	  4	  2	  1	  1	  1	0.37823	  1	0.90000	  0	 23	 62	 63	  1	
07-May-2013	sub2338	2338	  1	  0	139	  3	  2	  6	  5	  2	  0	  2	  0	0.29926	  1	0.90000	  0	 26	 67	 88	  1	
07-May-2013	sub2338	2338	  1	  0	140	  3	  2	  1	  1	  1	  1	  1	  1	0.50365	  1	0.90000	  0	 21	 60	 61	  0	
07-May-2013	sub2338	2338	  1	  0	141	  3	  2	  2	  2	  1	  1	  1	  0	0.60990	  0	0.90000	  0	 22	 80	 81	  0	
07-May-2013	sub2338	2338	  1	  0	142	  3	  2	  1	  1	  1	  1	  2	  0	0.74667	  0	0.90000	  0	 21	 80	 81	  0	
07-May-2013	sub2338	2338	  1	  0	143	  3	  2	  1	  1	  1	  1	  2	  0	0.45428	  0	0.90000	  0	 21	 80	 81	  1	
07-May-2013	sub2338	2338	  1	  0	144	  3	  2	  6	  5	  2	  0	  1	  1	0.48928	  0	0.90000	  0	 26	 87	 68	  1	
07-May-2013	sub2338	2338	  1	  0	145	  3	  2	  2	  2	  1	  1	  1	  0	0.56068	  0	0.90000	  0	 22	 80	 81	  0	
07-May-2013	sub2338	2338	  1	  0	146	  3	  2	  4	  3	  3	  1	  2	  1	1.83856	  1	0.90000	  1	 24	 62	 51	  0	
07-May-2013	sub2338	2338	  1	  0	147	  3	  2	  3	  4	  2	  1	  2	  0	0.53786	  0	0.90000	  0	 23	 82	 83	  0	
07-May-2013	sub2338	2338	  1	  0	148	  3	  2	  4	  3	  3	  1	  2	  1	0.23354	  1	0.90000	  0	 24	 62	 63	  1	
07-May-2013	sub2338	2338	  1	  0	149	  3	  2	  1	  1	  1	  1	  2	  0	0.45945	  0	0.90000	  0	 21	 80	 81	  1	
07-May-2013	sub2338	2338	  1	  0	150	  3	  2	  5	  6	  1	  0	  2	  1	1.05175	  0	0.90000	  1	 25	 87	 51	  0	
07-May-2013	sub2338	2338	  1	  0	  1	  4	  1	  4	  6	  4	  1	  1	  0	0.34614	  0	0.60000	  0	 14	 42	 43	  1	
07-May-2013	sub2338	2338	  1	  0	  2	  4	  1	  3	  1	  5	  1	  2	  0	0.53120	  0	0.30000	  1	 13	 42	 51	  0	
07-May-2013	sub2338	2338	  1	  0	  3	  4	  1	  3	  1	  5	  0	  2	  1	0.43543	  0	0.90000	  0	 13	 44	 39	  1	
07-May-2013	sub2338	2338	  1	  0	  4	  4	  1	  1	  2	  5	  1	  1	  1	0.55449	  1	0.90000	  0	 11	 30	 31	  0	
07-May-2013	sub2338	2338	  1	  0	  5	  4	  1	  4	  6	  4	  1	  1	  0	0.52726	  0	0.90000	  0	 14	 42	 43	  0	
07-May-2013	sub2338	2338	  1	  0	  6	  4	  1	  4	  6	  4	  1	  2	  1	0.52053	  1	0.90000	  0	 14	 32	 33	  0	
07-May-2013	sub2338	2338	  1	  0	  7	  4	  1	  5	  5	  5	  1	  2	  0	0.62801	  0	0.90000	  0	 15	 45	 46	  0	
07-May-2013	sub2338	2338	  1	  0	  8	  4	  1	  6	  4	  5	  0	  1	  1	0.46211	  0	0.90000	  0	 16	 47	 38	  1	
07-May-2013	sub2338	2338	  1	  0	  9	  4	  1	  3	  1	  5	  1	  2	  0	0.73612	  0	0.90000	  0	 13	 42	 43	  0	
07-May-2013	sub2338	2338	  1	  0	 10	  4	  1	  1	  2	  5	  1	  1	  1	0.58222	  1	0.90000	  0	 11	 30	 31	  0	
07-May-2013	sub2338	2338	  1	  0	 11	  4	  1	  2	  3	  4	  1	  1	  0	0.43508	  0	0.90000	  0	 12	 40	 41	  1	
07-May-2013	sub2338	2338	  1	  0	 12	  4	  1	  2	  3	  4	  1	  2	  1	0.00009	  1	0.90000	  0	 12	 30	 31	  1	
07-May-2013	sub2338	2338	  1	  0	 13	  4	  1	  6	  4	  5	  1	  1	  0	0.48201	  0	0.90000	  0	 16	 45	 46	  1	
07-May-2013	sub2338	2338	  1	  0	 14	  4	  1	  3	  1	  5	  1	  2	  0	0.31510	  0	0.90000	  0	 13	 42	 43	  1	
07-May-2013	sub2338	2338	  1	  0	 15	  4	  1	  1	  2	  5	  1	  2	  0	0.00009	  0	0.90000	  0	 11	 40	 41	  1	
07-May-2013	sub2338	2338	  1	  0	 16	  4	  1	  6	  4	  5	  0	  1	  1	2.87848	  0	0.80000	  1	 16	 47	 51	  0	
07-May-2013	sub2338	2338	  1	  0	 17	  4	  1	  5	  5	  5	  0	  1	  0	1.05170	  1	0.90000	  1	 15	 37	 51	  0	
07-May-2013	sub2338	2338	  1	  0	 18	  4	  1	  3	  1	  5	  0	  2	  1	2.30751	  0	0.90000	  1	 13	 44	 51	  0	
07-May-2013	sub2338	2338	  1	  0	 19	  4	  1	  4	  6	  4	  1	  1	  0	0.59812	  0	0.90000	  0	 14	 42	 43	  0	
07-May-2013	sub2338	2338	  1	  0	 20	  4	  1	  5	  5	  5	  1	  2	  0	0.41398	  0	0.90000	  0	 15	 45	 46	  1	
07-May-2013	sub2338	2338	  1	  0	 21	  4	  1	  1	  2	  5	  1	  2	  0	0.41660	  0	0.90000	  0	 11	 40	 41	  1	
07-May-2013	sub2338	2338	  1	  0	 22	  4	  1	  6	  4	  5	  0	  1	  1	0.43143	  0	0.90000	  0	 16	 47	 38	  1	
07-May-2013	sub2338	2338	  1	  0	 23	  4	  1	  6	  4	  5	  1	  1	  0	0.43751	  0	0.90000	  0	 16	 45	 46	  1	
07-May-2013	sub2338	2338	  1	  0	 24	  4	  1	  4	  6	  4	  1	  2	  1	0.60016	  1	0.90000	  0	 14	 32	 33	  0	
07-May-2013	sub2338	2338	  1	  0	 25	  4	  1	  5	  5	  5	  0	  2	  1	0.65389	  0	0.90000	  0	 15	 47	 38	  0	
07-May-2013	sub2338	2338	  1	  0	 26	  4	  1	  5	  5	  5	  0	  2	  1	0.48471	  0	0.90000	  0	 15	 47	 38	  1	
07-May-2013	sub2338	2338	  1	  0	 27	  4	  1	  2	  3	  4	  1	  1	  0	0.61128	  0	0.90000	  0	 12	 40	 41	  0	
07-May-2013	sub2338	2338	  1	  0	 28	  4	  1	  3	  1	  5	  0	  2	  1	0.48541	  0	0.90000	  0	 13	 44	 39	  1	
07-May-2013	sub2338	2338	  1	  0	 29	  4	  1	  6	  4	  5	  0	  2	  0	0.71480	  1	0.90000	  0	 16	 37	 48	  0	
07-May-2013	sub2338	2338	  1	  0	 30	  4	  1	  2	  3	  4	  1	  2	  1	0.50736	  1	0.90000	  0	 12	 30	 31	  0	
07-May-2013	sub2338	2338	  1	  0	 31	  4	  1	  4	  6	  4	  1	  2	  1	0.60129	  1	0.90000	  0	 14	 32	 33	  0	
07-May-2013	sub2338	2338	  1	  0	 32	  4	  1	  1	  2	  5	  1	  2	  0	0.57633	  0	0.90000	  0	 11	 40	 41	  0	
07-May-2013	sub2338	2338	  1	  0	 33	  4	  1	  1	  2	  5	  1	  1	  1	0.58218	  1	0.90000	  0	 11	 30	 31	  0	
07-May-2013	sub2338	2338	  1	  0	 34	  4	  1	  3	  1	  5	  1	  2	  0	0.52361	  0	0.90000	  0	 13	 42	 43	  0	
07-May-2013	sub2338	2338	  1	  0	 35	  4	  1	  6	  4	  5	  1	  1	  0	0.51528	  0	0.90000	  0	 16	 45	 46	  0	
07-May-2013	sub2338	2338	  1	  0	 36	  4	  1	  4	  6	  4	  1	  1	  0	0.47851	  0	0.90000	  0	 14	 42	 43	  1	
07-May-2013	sub2338	2338	  1	  0	 37	  4	  1	  2	  3	  4	  1	  2	  1	0.60881	  1	0.90000	  0	 12	 30	 31	  0	
07-May-2013	sub2338	2338	  1	  0	 38	  4	  1	  6	  4	  5	  1	  2	  1	0.78736	  1	0.90000	  0	 16	 35	 36	  0	
07-May-2013	sub2338	2338	  1	  0	 39	  4	  1	  6	  4	  5	  1	  2	  1	0.40166	  1	0.90000	  0	 16	 35	 36	  1	
07-May-2013	sub2338	2338	  1	  0	 40	  4	  1	  6	  4	  5	  0	  2	  0	0.39989	  1	0.90000	  0	 16	 37	 48	  1	
07-May-2013	sub2338	2338	  1	  0	 41	  4	  1	  4	  6	  4	  1	  2	  1	0.67333	  1	0.90000	  0	 14	 32	 33	  0	
07-May-2013	sub2338	2338	  1	  0	 42	  4	  1	  4	  6	  4	  1	  2	  1	0.65710	  1	0.90000	  0	 14	 32	 33	  0	
07-May-2013	sub2338	2338	  1	  0	 43	  4	  1	  4	  6	  4	  0	  2	  0	0.41972	  1	0.90000	  0	 14	 34	 49	  1	
07-May-2013	sub2338	2338	  1	  0	 44	  4	  1	  2	  3	  4	  1	  1	  0	0.66061	  0	0.90000	  0	 12	 40	 41	  0	
07-May-2013	sub2338	2338	  1	  0	 45	  4	  1	  1	  2	  5	  1	  2	  0	0.32685	  0	0.90000	  0	 11	 40	 41	  1	
07-May-2013	sub2338	2338	  1	  0	 46	  4	  1	  2	  3	  4	  1	  1	  0	0.61523	  0	0.90000	  0	 12	 40	 41	  0	
07-May-2013	sub2338	2338	  1	  0	 47	  4	  1	  2	  3	  4	  1	  2	  1	0.55031	  1	0.90000	  0	 12	 30	 31	  0	
07-May-2013	sub2338	2338	  1	  0	 48	  4	  1	  6	  4	  5	  0	  2	  0	0.56370	  1	0.90000	  0	 16	 37	 48	  0	
07-May-2013	sub2338	2338	  1	  0	 49	  4	  1	  5	  5	  5	  0	  1	  0	0.56531	  1	0.90000	  0	 15	 37	 48	  0	
07-May-2013	sub2338	2338	  1	  0	 50	  4	  1	  3	  1	  5	  1	  1	  1	0.48511	  1	0.90000	  0	 13	 32	 33	  1	
07-May-2013	sub2338	2338	  1	  0	 51	  4	  1	  5	  5	  5	  0	  1	  0	0.48687	  1	0.90000	  0	 15	 37	 48	  1	
07-May-2013	sub2338	2338	  1	  0	 52	  4	  1	  3	  1	  5	  1	  2	  0	0.33842	  0	0.90000	  0	 13	 42	 43	  1	
07-May-2013	sub2338	2338	  1	  0	 53	  4	  1	  1	  2	  5	  1	  2	  0	0.24424	  0	0.90000	  0	 11	 40	 41	  1	
07-May-2013	sub2338	2338	  1	  0	 54	  4	  1	  6	  4	  5	  1	  2	  1	0.02790	  1	0.90000	  0	 16	 35	 36	  1	
07-May-2013	sub2338	2338	  1	  0	 55	  4	  1	  4	  6	  4	  1	  2	  1	0.34455	  1	0.90000	  0	 14	 32	 33	  1	
07-May-2013	sub2338	2338	  1	  0	 56	  4	  1	  2	  3	  4	  1	  2	  1	0.52646	  1	0.90000	  0	 12	 30	 31	  0	
07-May-2013	sub2338	2338	  1	  0	 57	  4	  1	  2	  3	  4	  1	  2	  1	0.40131	  1	0.90000	  0	 12	 30	 31	  1	
07-May-2013	sub2338	2338	  1	  0	 58	  4	  1	  1	  2	  5	  1	  2	  0	0.00017	  0	0.90000	  0	 11	 40	 41	  1	
07-May-2013	sub2338	2338	  1	  0	 59	  4	  1	  2	  3	  4	  1	  1	  0	0.41059	  0	0.80000	  0	 12	 40	 41	  1	
07-May-2013	sub2338	2338	  1	  0	 60	  4	  1	  5	  5	  5	  1	  2	  0	0.32728	  0	0.80000	  0	 15	 45	 46	  1	
07-May-2013	sub2338	2338	  1	  0	 61	  4	  1	  5	  5	  5	  1	  1	  1	4.37275	  1	0.80000	  1	 15	 35	 51	  0	
07-May-2013	sub2338	2338	  1	  0	 62	  4	  1	  5	  5	  5	  1	  2	  0	0.42724	  0	0.90000	  0	 15	 45	 46	  1	
07-May-2013	sub2338	2338	  1	  0	 63	  4	  1	  4	  6	  4	  0	  2	  0	0.21642	  1	0.90000	  0	 14	 34	 49	  1	
07-May-2013	sub2338	2338	  1	  0	 64	  4	  1	  1	  2	  5	  1	  1	  1	0.63806	  1	0.90000	  0	 11	 30	 31	  0	
07-May-2013	sub2338	2338	  1	  0	 65	  4	  1	  5	  5	  5	  1	  2	  0	0.43154	  0	0.90000	  0	 15	 45	 46	  1	
07-May-2013	sub2338	2338	  1	  0	 66	  4	  1	  5	  5	  5	  0	  1	  0	0.60467	  1	0.90000	  0	 15	 37	 48	  0	
07-May-2013	sub2338	2338	  1	  0	 67	  4	  1	  3	  1	  5	  1	  2	  0	0.51940	  0	0.90000	  0	 13	 42	 43	  0	
07-May-2013	sub2338	2338	  1	  0	 68	  4	  1	  1	  2	  5	  1	  1	  1	0.62085	  1	0.90000	  0	 11	 30	 31	  0	
07-May-2013	sub2338	2338	  1	  0	 69	  4	  1	  3	  1	  5	  1	  2	  0	0.60910	  0	0.90000	  0	 13	 42	 43	  0	
07-May-2013	sub2338	2338	  1	  0	 70	  4	  1	  3	  1	  5	  1	  1	  1	0.41330	  1	0.90000	  0	 13	 32	 33	  1	
07-May-2013	sub2338	2338	  1	  0	 71	  4	  1	  2	  3	  4	  1	  1	  0	0.58609	  0	0.90000	  0	 12	 40	 41	  0	
07-May-2013	sub2338	2338	  1	  0	 72	  4	  1	  3	  1	  5	  1	  1	  1	0.73467	  1	0.90000	  0	 13	 32	 33	  0	
07-May-2013	sub2338	2338	  1	  0	 73	  4	  1	  2	  3	  4	  1	  1	  0	0.55301	  0	0.80000	  0	 12	 40	 41	  0	
07-May-2013	sub2338	2338	  1	  0	 74	  4	  1	  6	  4	  5	  1	  2	  1	0.41628	  1	0.80000	  0	 16	 35	 36	  1	
07-May-2013	sub2338	2338	  1	  0	 75	  4	  1	  1	  2	  5	  1	  1	  1	0.61966	  1	0.80000	  0	 11	 30	 31	  0	
07-May-2013	sub2338	2338	  1	  0	 76	  4	  2	  5	  5	  5	  0	  2	  1	0.77557	  0	0.80000	  0	 25	 87	 68	  0	
07-May-2013	sub2338	2338	  1	  0	 77	  4	  2	  4	  6	  4	  1	  2	  1	0.57216	  1	0.80000	  0	 24	 62	 63	  0	
07-May-2013	sub2338	2338	  1	  0	 78	  4	  2	  5	  5	  5	  0	  1	  0	0.58453	  1	0.80000	  0	 25	 67	 88	  0	
07-May-2013	sub2338	2338	  1	  0	 79	  4	  2	  4	  6	  4	  1	  1	  0	0.50179	  0	0.80000	  0	 24	 82	 83	  0	
07-May-2013	sub2338	2338	  1	  0	 80	  4	  2	  3	  1	  5	  1	  2	  0	0.58839	  0	0.80000	  0	 23	 82	 83	  0	
07-May-2013	sub2338	2338	  1	  0	 81	  4	  2	  4	  6	  4	  1	  2	  1	0.55827	  1	0.80000	  0	 24	 62	 63	  0	
07-May-2013	sub2338	2338	  1	  0	 82	  4	  2	  1	  2	  5	  1	  2	  0	0.59348	  0	0.80000	  0	 21	 80	 81	  0	
07-May-2013	sub2338	2338	  1	  0	 83	  4	  2	  2	  3	  4	  1	  2	  1	0.63513	  1	0.80000	  0	 22	 60	 61	  0	
07-May-2013	sub2338	2338	  1	  0	 84	  4	  2	  6	  4	  5	  0	  2	  0	0.72485	  1	0.80000	  0	 26	 67	 88	  0	
07-May-2013	sub2338	2338	  1	  0	 85	  4	  2	  2	  3	  4	  1	  2	  1	0.92168	  1	0.70000	  1	 22	 60	 51	  0	
07-May-2013	sub2338	2338	  1	  0	 86	  4	  2	  4	  6	  4	  1	  2	  1	0.59250	  1	0.90000	  0	 24	 62	 63	  0	
07-May-2013	sub2338	2338	  1	  0	 87	  4	  2	  5	  5	  5	  0	  1	  0	0.62640	  1	0.80000	  0	 25	 67	 88	  0	
07-May-2013	sub2338	2338	  1	  0	 88	  4	  2	  1	  2	  5	  1	  2	  0	0.62632	  0	0.80000	  0	 21	 80	 81	  0	
07-May-2013	sub2338	2338	  1	  0	 89	  4	  2	  5	  5	  5	  0	  2	  1	0.42138	  0	0.80000	  0	 25	 87	 68	  1	
07-May-2013	sub2338	2338	  1	  0	 90	  4	  2	  3	  1	  5	  1	  2	  0	0.39460	  0	0.80000	  0	 23	 82	 83	  1	
07-May-2013	sub2338	2338	  1	  0	 91	  4	  2	  6	  4	  5	  1	  1	  0	0.60006	  0	0.80000	  0	 26	 85	 86	  0	
07-May-2013	sub2338	2338	  1	  0	 92	  4	  2	  3	  1	  5	  0	  1	  0	0.51117	  1	0.80000	  0	 23	 64	 89	  0	
07-May-2013	sub2338	2338	  1	  0	 93	  4	  2	  4	  6	  4	  1	  2	  1	0.49169	  1	0.80000	  0	 24	 62	 63	  1	
07-May-2013	sub2338	2338	  1	  0	 94	  4	  2	  5	  5	  5	  0	  1	  0	0.76859	  1	0.80000	  0	 25	 67	 88	  0	
07-May-2013	sub2338	2338	  1	  0	 95	  4	  2	  5	  5	  5	  0	  1	  0	0.55803	  1	0.80000	  0	 25	 67	 88	  0	
07-May-2013	sub2338	2338	  1	  0	 96	  4	  2	  1	  2	  5	  1	  2	  0	0.50913	  0	0.80000	  0	 21	 80	 81	  0	
07-May-2013	sub2338	2338	  1	  0	 97	  4	  2	  3	  1	  5	  1	  2	  0	0.45278	  0	0.80000	  0	 23	 82	 83	  1	
07-May-2013	sub2338	2338	  1	  0	 98	  4	  2	  2	  3	  4	  1	  1	  0	0.62532	  0	0.80000	  0	 22	 80	 81	  0	
07-May-2013	sub2338	2338	  1	  0	 99	  4	  2	  6	  4	  5	  1	  2	  1	0.52311	  1	0.80000	  0	 26	 65	 66	  0	
07-May-2013	sub2338	2338	  1	  0	100	  4	  2	  1	  2	  5	  1	  2	  0	0.40058	  0	0.80000	  0	 21	 80	 81	  1	
07-May-2013	sub2338	2338	  1	  0	101	  4	  2	  3	  1	  5	  1	  2	  0	0.58793	  0	0.70000	  0	 23	 82	 83	  0	
07-May-2013	sub2338	2338	  1	  0	102	  4	  2	  1	  2	  5	  1	  1	  1	0.60045	  1	0.70000	  0	 21	 60	 61	  0	
07-May-2013	sub2338	2338	  1	  0	103	  4	  2	  1	  2	  5	  1	  1	  1	0.48224	  1	0.70000	  0	 21	 60	 61	  1	
07-May-2013	sub2338	2338	  1	  0	104	  4	  2	  2	  3	  4	  1	  1	  0	0.55897	  0	0.70000	  0	 22	 80	 81	  0	
07-May-2013	sub2338	2338	  1	  0	105	  4	  2	  1	  2	  5	  1	  2	  0	0.47182	  0	0.70000	  0	 21	 80	 81	  1	
07-May-2013	sub2338	2338	  1	  0	106	  4	  2	  6	  4	  5	  1	  1	  0	0.47314	  0	0.70000	  0	 26	 85	 86	  1	
07-May-2013	sub2338	2338	  1	  0	107	  4	  2	  5	  5	  5	  0	  1	  0	0.60738	  1	0.70000	  0	 25	 67	 88	  0	
07-May-2013	sub2338	2338	  1	  0	108	  4	  2	  4	  6	  4	  0	  2	  0	0.49623	  1	0.70000	  0	 24	 64	 89	  1	
07-May-2013	sub2338	2338	  1	  0	109	  4	  2	  5	  5	  5	  0	  1	  0	0.62513	  1	0.70000	  0	 25	 67	 88	  0	
07-May-2013	sub2338	2338	  1	  0	110	  4	  2	  1	  2	  5	  1	  2	  0	0.65527	  0	0.70000	  0	 21	 80	 81	  0	
07-May-2013	sub2338	2338	  1	  0	111	  4	  2	  6	  4	  5	  1	  1	  0	0.70079	  0	0.70000	  1	 26	 85	 51	  0	
07-May-2013	sub2338	2338	  1	  0	112	  4	  2	  5	  5	  5	  0	  2	  1	0.62438	  0	0.80000	  0	 25	 87	 68	  0	
07-May-2013	sub2338	2338	  1	  0	113	  4	  2	  5	  5	  5	  0	  2	  1	0.50873	  0	0.80000	  0	 25	 87	 68	  0	
07-May-2013	sub2338	2338	  1	  0	114	  4	  2	  2	  3	  4	  1	  2	  1	0.58243	  1	0.80000	  0	 22	 60	 61	  0	
07-May-2013	sub2338	2338	  1	  0	115	  4	  2	  3	  1	  5	  1	  2	  0	0.60437	  0	0.80000	  0	 23	 82	 83	  0	
07-May-2013	sub2338	2338	  1	  0	116	  4	  2	  3	  1	  5	  1	  1	  1	0.42924	  1	0.80000	  0	 23	 62	 63	  1	
07-May-2013	sub2338	2338	  1	  0	117	  4	  2	  4	  6	  4	  0	  2	  0	0.64250	  1	0.80000	  0	 24	 64	 89	  0	
07-May-2013	sub2338	2338	  1	  0	118	  4	  2	  4	  6	  4	  1	  2	  1	0.39246	  1	0.70000	  0	 24	 62	 63	  1	
07-May-2013	sub2338	2338	  1	  0	119	  4	  2	  2	  3	  4	  1	  1	  0	0.89443	  0	0.70000	  1	 22	 80	 51	  0	
07-May-2013	sub2338	2338	  1	  0	120	  4	  2	  3	  1	  5	  1	  2	  0	0.25146	  0	0.80000	  0	 23	 82	 83	  1	
07-May-2013	sub2338	2338	  1	  0	121	  4	  2	  2	  3	  4	  1	  1	  0	0.51580	  0	0.80000	  0	 22	 80	 81	  0	
07-May-2013	sub2338	2338	  1	  0	122	  4	  2	  3	  1	  5	  0	  1	  0	0.67378	  1	0.80000	  0	 23	 64	 89	  0	
07-May-2013	sub2338	2338	  1	  0	123	  4	  2	  2	  3	  4	  1	  2	  1	0.66917	  1	0.80000	  0	 22	 60	 61	  0	
07-May-2013	sub2338	2338	  1	  0	124	  4	  2	  4	  6	  4	  1	  1	  0	0.29469	  0	0.80000	  0	 24	 82	 83	  1	
07-May-2013	sub2338	2338	  1	  0	125	  4	  2	  6	  4	  5	  0	  2	  0	0.40661	  1	0.80000	  0	 26	 67	 88	  1	
07-May-2013	sub2338	2338	  1	  0	126	  4	  2	  2	  3	  4	  1	  2	  1	0.01892	  1	0.80000	  0	 22	 60	 61	  1	
07-May-2013	sub2338	2338	  1	  0	127	  4	  2	  3	  1	  5	  1	  1	  1	1.59890	  1	0.80000	  1	 23	 62	 51	  0	
07-May-2013	sub2338	2338	  1	  0	128	  4	  2	  3	  1	  5	  1	  2	  0	0.21745	  0	0.90000	  0	 23	 82	 83	  1	
07-May-2013	sub2338	2338	  1	  0	129	  4	  2	  4	  6	  4	  1	  1	  0	0.20293	  0	0.90000	  0	 24	 82	 83	  1	
07-May-2013	sub2338	2338	  1	  0	130	  4	  2	  2	  3	  4	  1	  2	  1	0.44900	  1	0.80000	  0	 22	 60	 61	  1	
07-May-2013	sub2338	2338	  1	  0	131	  4	  2	  2	  3	  4	  1	  2	  1	0.27743	  1	0.80000	  0	 22	 60	 61	  1	
07-May-2013	sub2338	2338	  1	  0	132	  4	  2	  1	  2	  5	  1	  2	  0	0.18461	  0	0.80000	  0	 21	 80	 81	  1	
07-May-2013	sub2338	2338	  1	  0	133	  4	  2	  6	  4	  5	  0	  1	  1	0.20813	  0	0.80000	  0	 26	 87	 68	  1	
07-May-2013	sub2338	2338	  1	  0	134	  4	  2	  6	  4	  5	  0	  2	  0	2.77841	  1	0.80000	  1	 26	 67	 51	  0	
07-May-2013	sub2338	2338	  1	  0	135	  4	  2	  6	  4	  5	  0	  2	  0	0.07014	  1	0.90000	  0	 26	 67	 88	  1	
07-May-2013	sub2338	2338	  1	  0	136	  4	  2	  6	  4	  5	  1	  1	  0	0.29921	  0	0.90000	  0	 26	 85	 86	  1	
07-May-2013	sub2338	2338	  1	  0	137	  4	  2	  1	  2	  5	  1	  2	  0	0.53644	  0	0.90000	  0	 21	 80	 81	  0	
07-May-2013	sub2338	2338	  1	  0	138	  4	  2	  5	  5	  5	  0	  1	  0	0.27199	  1	0.90000	  0	 25	 67	 88	  1	
07-May-2013	sub2338	2338	  1	  0	139	  4	  2	  1	  2	  5	  1	  2	  0	1.89541	  0	0.90000	  1	 21	 80	 51	  0	
07-May-2013	sub2338	2338	  1	  0	140	  4	  2	  1	  2	  5	  1	  2	  0	0.09313	  0	0.90000	  0	 21	 80	 81	  1	
07-May-2013	sub2338	2338	  1	  0	141	  4	  2	  6	  4	  5	  1	  1	  0	0.44360	  0	0.90000	  0	 26	 85	 86	  1	
07-May-2013	sub2338	2338	  1	  0	142	  4	  2	  4	  6	  4	  1	  2	  1	0.77145	  1	0.90000	  0	 24	 62	 63	  0	
07-May-2013	sub2338	2338	  1	  0	143	  4	  2	  4	  6	  4	  1	  2	  1	0.49549	  1	0.90000	  0	 24	 62	 63	  1	
07-May-2013	sub2338	2338	  1	  0	144	  4	  2	  5	  5	  5	  0	  2	  1	0.28603	  0	0.90000	  0	 25	 87	 68	  1	
07-May-2013	sub2338	2338	  1	  0	145	  4	  2	  2	  3	  4	  1	  2	  1	0.67111	  1	0.90000	  0	 22	 60	 61	  0	
07-May-2013	sub2338	2338	  1	  0	146	  4	  2	  6	  4	  5	  0	  1	  1	0.64407	  0	0.90000	  0	 26	 87	 68	  0	
07-May-2013	sub2338	2338	  1	  0	147	  4	  2	  5	  5	  5	  0	  2	  1	0.58575	  0	0.90000	  0	 25	 87	 68	  0	
07-May-2013	sub2338	2338	  1	  0	148	  4	  2	  4	  6	  4	  0	  2	  0	0.94106	  1	0.90000	  1	 24	 64	 51	  0	
07-May-2013	sub2338	2338	  1	  0	149	  4	  2	  1	  2	  5	  1	  2	  0	0.39185	  0	0.90000	  0	 21	 80	 81	  1	
07-May-2013	sub2338	2338	  1	  0	150	  4	  2	  3	  1	  5	  1	  2	  0	0.38251	  0	0.90000	  0	 23	 82	 83	  1	
07-May-2013	sub2338	2338	  1	  0	  1	  5	  1	  4	  1	  2	  1	  1	  0	0.51887	  0	0.60000	  0	 14	 42	 43	  0	
07-May-2013	sub2338	2338	  1	  0	  2	  5	  1	  1	  6	  3	  1	  2	  0	0.66440	  0	0.30000	  1	 11	 40	 51	  0	
07-May-2013	sub2338	2338	  1	  0	  3	  5	  1	  5	  4	  6	  1	  2	  0	0.50076	  0	0.90000	  0	 15	 45	 46	  0	
07-May-2013	sub2338	2338	  1	  0	  4	  5	  1	  5	  4	  6	  1	  1	  1	0.35445	  1	0.90000	  0	 15	 35	 36	  1	
07-May-2013	sub2338	2338	  1	  0	  5	  5	  1	  5	  4	  6	  0	  1	  0	0.61156	  1	0.90000	  0	 15	 37	 48	  0	
07-May-2013	sub2338	2338	  1	  0	  6	  5	  1	  3	  3	  1	  1	  2	  0	0.42690	  0	0.90000	  0	 13	 42	 43	  1	
07-May-2013	sub2338	2338	  1	  0	  7	  5	  1	  5	  4	  6	  0	  1	  0	0.48235	  1	0.90000	  0	 15	 37	 48	  1	
07-May-2013	sub2338	2338	  1	  0	  8	  5	  1	  5	  4	  6	  0	  2	  1	0.43956	  0	0.90000	  0	 15	 47	 38	  1	
07-May-2013	sub2338	2338	  1	  0	  9	  5	  1	  6	  2	  2	  0	  2	  0	0.55790	  1	0.90000	  0	 16	 37	 48	  0	
07-May-2013	sub2338	2338	  1	  0	 10	  5	  1	  4	  1	  2	  1	  1	  0	0.42809	  0	0.90000	  0	 14	 42	 43	  1	
07-May-2013	sub2338	2338	  1	  0	 11	  5	  1	  1	  6	  3	  1	  2	  0	0.47125	  0	0.90000	  0	 11	 40	 41	  1	
07-May-2013	sub2338	2338	  1	  0	 12	  5	  1	  6	  2	  2	  0	  2	  0	0.58414	  1	0.90000	  0	 16	 37	 48	  0	
07-May-2013	sub2338	2338	  1	  0	 13	  5	  1	  4	  1	  2	  1	  2	  1	0.46188	  1	0.90000	  0	 14	 32	 33	  1	
07-May-2013	sub2338	2338	  1	  0	 14	  5	  1	  3	  3	  1	  1	  1	  1	0.56427	  1	0.90000	  0	 13	 32	 33	  0	
07-May-2013	sub2338	2338	  1	  0	 15	  5	  1	  6	  2	  2	  1	  1	  0	0.48510	  0	0.90000	  0	 16	 45	 46	  1	
07-May-2013	sub2338	2338	  1	  0	 16	  5	  1	  3	  3	  1	  1	  1	  1	0.59202	  1	0.80000	  0	 13	 32	 33	  0	
07-May-2013	sub2338	2338	  1	  0	 17	  5	  1	  3	  3	  1	  1	  1	  1	0.43732	  1	0.80000	  0	 13	 32	 33	  1	
07-May-2013	sub2338	2338	  1	  0	 18	  5	  1	  4	  1	  2	  0	  2	  0	0.47098	  1	0.70000	  0	 14	 34	 49	  1	
07-May-2013	sub2338	2338	  1	  0	 19	  5	  1	  5	  4	  6	  1	  1	  1	0.50006	  1	0.70000	  0	 15	 35	 36	  1	
07-May-2013	sub2338	2338	  1	  0	 20	  5	  1	  4	  1	  2	  1	  1	  0	0.46945	  0	0.70000	  0	 14	 42	 43	  1	
07-May-2013	sub2338	2338	  1	  0	 21	  5	  1	  6	  2	  2	  0	  2	  0	0.55754	  1	0.60000	  0	 16	 37	 48	  0	
07-May-2013	sub2338	2338	  1	  0	 22	  5	  1	  2	  5	  6	  1	  2	  1	0.53416	  1	0.60000	  0	 12	 30	 31	  0	
07-May-2013	sub2338	2338	  1	  0	 23	  5	  1	  3	  3	  1	  1	  1	  1	0.33582	  1	0.60000	  0	 13	 32	 33	  1	
07-May-2013	sub2338	2338	  1	  0	 24	  5	  1	  3	  3	  1	  1	  1	  1	0.54480	  1	0.60000	  0	 13	 32	 33	  0	
07-May-2013	sub2338	2338	  1	  0	 25	  5	  1	  4	  1	  2	  1	  2	  1	0.40922	  1	0.60000	  0	 14	 32	 33	  1	
07-May-2013	sub2338	2338	  1	  0	 26	  5	  1	  2	  5	  6	  1	  2	  1	0.53404	  1	0.50000	  1	 12	 30	 51	  0	
07-May-2013	sub2338	2338	  1	  0	 27	  5	  1	  4	  1	  2	  1	  1	  0	0.49221	  0	0.90000	  0	 14	 42	 43	  1	
07-May-2013	sub2338	2338	  1	  0	 28	  5	  1	  4	  1	  2	  0	  2	  0	0.42157	  1	0.90000	  0	 14	 34	 49	  1	
07-May-2013	sub2338	2338	  1	  0	 29	  5	  1	  2	  5	  6	  1	  1	  0	0.62859	  0	0.90000	  0	 12	 40	 41	  0	
07-May-2013	sub2338	2338	  1	  0	 30	  5	  1	  2	  5	  6	  1	  1	  0	0.38587	  0	0.80000	  0	 12	 40	 41	  1	
07-May-2013	sub2338	2338	  1	  0	 31	  5	  1	  6	  2	  2	  0	  2	  0	0.50232	  1	0.80000	  0	 16	 37	 48	  0	
07-May-2013	sub2338	2338	  1	  0	 32	  5	  1	  6	  2	  2	  1	  1	  0	0.51765	  0	0.80000	  0	 16	 45	 46	  0	
07-May-2013	sub2338	2338	  1	  0	 33	  5	  1	  1	  6	  3	  1	  1	  1	0.47798	  1	0.80000	  0	 11	 30	 31	  1	
07-May-2013	sub2338	2338	  1	  0	 34	  5	  1	  2	  5	  6	  1	  1	  0	0.83948	  0	0.80000	  1	 12	 40	 51	  0	
07-May-2013	sub2338	2338	  1	  0	 35	  5	  1	  3	  3	  1	  0	  1	  0	0.46468	  1	0.90000	  0	 13	 34	 49	  1	
07-May-2013	sub2338	2338	  1	  0	 36	  5	  1	  5	  4	  6	  0	  2	  1	0.46409	  0	0.90000	  0	 15	 47	 38	  1	
07-May-2013	sub2338	2338	  1	  0	 37	  5	  1	  6	  2	  2	  1	  2	  1	0.65337	  1	0.90000	  0	 16	 35	 36	  0	
07-May-2013	sub2338	2338	  1	  0	 38	  5	  1	  5	  4	  6	  1	  1	  1	0.40450	  1	0.90000	  0	 15	 35	 36	  1	
07-May-2013	sub2338	2338	  1	  0	 39	  5	  1	  5	  4	  6	  1	  1	  1	0.41611	  1	0.90000	  0	 15	 35	 36	  1	
07-May-2013	sub2338	2338	  1	  0	 40	  5	  1	  1	  6	  3	  1	  2	  0	0.45218	  0	0.90000	  0	 11	 40	 41	  1	
07-May-2013	sub2338	2338	  1	  0	 41	  5	  1	  6	  2	  2	  0	  1	  1	0.42965	  0	0.90000	  0	 16	 47	 38	  1	
07-May-2013	sub2338	2338	  1	  0	 42	  5	  1	  2	  5	  6	  1	  1	  0	0.00017	  0	0.90000	  0	 12	 40	 41	  1	
07-May-2013	sub2338	2338	  1	  0	 43	  5	  1	  2	  5	  6	  1	  1	  0	0.30015	  0	0.90000	  0	 12	 40	 41	  1	
07-May-2013	sub2338	2338	  1	  0	 44	  5	  1	  1	  6	  3	  1	  1	  1	1.64778	  1	0.80000	  1	 11	 30	 51	  0	
07-May-2013	sub2338	2338	  1	  0	 45	  5	  1	  6	  2	  2	  0	  1	  1	0.18930	  0	0.90000	  0	 16	 47	 38	  1	
07-May-2013	sub2338	2338	  1	  0	 46	  5	  1	  4	  1	  2	  1	  1	  0	0.35980	  0	0.90000	  0	 14	 42	 43	  1	
07-May-2013	sub2338	2338	  1	  0	 47	  5	  1	  6	  2	  2	  0	  2	  0	0.57774	  1	0.90000	  0	 16	 37	 48	  0	
07-May-2013	sub2338	2338	  1	  0	 48	  5	  1	  4	  1	  2	  1	  1	  0	0.47468	  0	0.90000	  0	 14	 42	 43	  1	
07-May-2013	sub2338	2338	  1	  0	 49	  5	  1	  1	  6	  3	  1	  2	  0	0.51001	  0	0.90000	  0	 11	 40	 41	  0	
07-May-2013	sub2338	2338	  1	  0	 50	  5	  1	  2	  5	  6	  1	  1	  0	0.40205	  0	0.90000	  0	 12	 40	 41	  1	
07-May-2013	sub2338	2338	  1	  0	 51	  5	  1	  1	  6	  3	  1	  2	  0	0.36587	  0	0.90000	  0	 11	 40	 41	  1	
07-May-2013	sub2338	2338	  1	  0	 52	  5	  1	  2	  5	  6	  1	  1	  0	0.40541	  0	0.90000	  0	 12	 40	 41	  1	
07-May-2013	sub2338	2338	  1	  0	 53	  5	  1	  5	  4	  6	  1	  2	  0	0.61895	  0	0.90000	  0	 15	 45	 46	  0	
07-May-2013	sub2338	2338	  1	  0	 54	  5	  1	  1	  6	  3	  1	  2	  0	0.51429	  0	0.90000	  0	 11	 40	 41	  0	
07-May-2013	sub2338	2338	  1	  0	 55	  5	  1	  3	  3	  1	  0	  2	  1	0.54134	  0	0.90000	  0	 13	 44	 39	  0	
07-May-2013	sub2338	2338	  1	  0	 56	  5	  1	  4	  1	  2	  1	  2	  1	0.71904	  1	0.90000	  0	 14	 32	 33	  0	
07-May-2013	sub2338	2338	  1	  0	 57	  5	  1	  3	  3	  1	  1	  2	  0	0.62034	  0	0.90000	  0	 13	 42	 43	  0	
07-May-2013	sub2338	2338	  1	  0	 58	  5	  1	  3	  3	  1	  1	  1	  1	0.53334	  1	0.90000	  0	 13	 32	 33	  0	
07-May-2013	sub2338	2338	  1	  0	 59	  5	  1	  1	  6	  3	  1	  1	  1	0.65156	  1	0.80000	  0	 11	 30	 31	  0	
07-May-2013	sub2338	2338	  1	  0	 60	  5	  1	  3	  3	  1	  0	  1	  0	0.34127	  1	0.80000	  0	 13	 34	 49	  1	
07-May-2013	sub2338	2338	  1	  0	 61	  5	  1	  6	  2	  2	  1	  2	  1	0.58428	  1	0.80000	  0	 16	 35	 36	  0	
07-May-2013	sub2338	2338	  1	  0	 62	  5	  1	  5	  4	  6	  0	  2	  1	0.58183	  0	0.80000	  0	 15	 47	 38	  0	
07-May-2013	sub2338	2338	  1	  0	 63	  5	  1	  2	  5	  6	  1	  2	  1	0.54475	  1	0.80000	  0	 12	 30	 31	  0	
07-May-2013	sub2338	2338	  1	  0	 64	  5	  1	  6	  2	  2	  1	  2	  1	0.45655	  1	0.80000	  0	 16	 35	 36	  1	
07-May-2013	sub2338	2338	  1	  0	 65	  5	  1	  1	  6	  3	  1	  1	  1	0.56293	  1	0.80000	  0	 11	 30	 31	  0	
07-May-2013	sub2338	2338	  1	  0	 66	  5	  1	  4	  1	  2	  1	  2	  1	0.65669	  1	0.80000	  0	 14	 32	 33	  0	
07-May-2013	sub2338	2338	  1	  0	 67	  5	  1	  1	  6	  3	  1	  2	  0	0.52198	  0	0.80000	  0	 11	 40	 41	  0	
07-May-2013	sub2338	2338	  1	  0	 68	  5	  1	  1	  6	  3	  1	  1	  1	0.35570	  1	0.70000	  0	 11	 30	 31	  1	
07-May-2013	sub2338	2338	  1	  0	 69	  5	  1	  6	  2	  2	  1	  2	  1	0.56954	  1	0.70000	  0	 16	 35	 36	  0	
07-May-2013	sub2338	2338	  1	  0	 70	  5	  1	  3	  3	  1	  1	  2	  0	0.64441	  0	0.70000	  0	 13	 42	 43	  0	
07-May-2013	sub2338	2338	  1	  0	 71	  5	  1	  2	  5	  6	  1	  2	  1	0.60364	  1	0.70000	  0	 12	 30	 31	  0	
07-May-2013	sub2338	2338	  1	  0	 72	  5	  1	  2	  5	  6	  1	  2	  1	0.34206	  1	0.70000	  0	 12	 30	 31	  1	
07-May-2013	sub2338	2338	  1	  0	 73	  5	  1	  5	  4	  6	  0	  1	  0	0.57519	  1	0.70000	  0	 15	 37	 48	  0	
07-May-2013	sub2338	2338	  1	  0	 74	  5	  1	  2	  5	  6	  1	  2	  1	0.39175	  1	0.70000	  0	 12	 30	 31	  1	
07-May-2013	sub2338	2338	  1	  0	 75	  5	  1	  3	  3	  1	  1	  2	  0	0.51992	  0	0.70000	  0	 13	 42	 43	  0	
07-May-2013	sub2338	2338	  1	  0	 76	  5	  2	  5	  4	  6	  0	  2	  1	0.43589	  0	0.70000	  0	 25	 87	 68	  1	
07-May-2013	sub2338	2338	  1	  0	 77	  5	  2	  3	  3	  1	  1	  2	  0	0.47671	  0	0.70000	  0	 23	 82	 83	  1	
07-May-2013	sub2338	2338	  1	  0	 78	  5	  2	  1	  6	  3	  1	  2	  0	1.20915	  0	0.70000	  1	 21	 80	 51	  0	
07-May-2013	sub2338	2338	  1	  0	 79	  5	  2	  2	  5	  6	  1	  2	  1	0.54993	  1	0.80000	  0	 22	 60	 61	  0	
07-May-2013	sub2338	2338	  1	  0	 80	  5	  2	  5	  4	  6	  0	  1	  0	0.49866	  1	0.80000	  0	 25	 67	 88	  1	
07-May-2013	sub2338	2338	  1	  0	 81	  5	  2	  5	  4	  6	  0	  2	  1	0.09331	  0	0.80000	  0	 25	 87	 68	  1	
07-May-2013	sub2338	2338	  1	  0	 82	  5	  2	  4	  1	  2	  0	  2	  0	0.65594	  1	0.80000	  0	 24	 64	 89	  0	
07-May-2013	sub2338	2338	  1	  0	 83	  5	  2	  5	  4	  6	  0	  2	  1	0.66444	  0	0.80000	  0	 25	 87	 68	  0	
07-May-2013	sub2338	2338	  1	  0	 84	  5	  2	  2	  5	  6	  1	  2	  1	0.59874	  1	0.80000	  0	 22	 60	 61	  0	
07-May-2013	sub2338	2338	  1	  0	 85	  5	  2	  4	  1	  2	  1	  2	  1	0.59229	  1	0.70000	  0	 24	 62	 63	  0	
07-May-2013	sub2338	2338	  1	  0	 86	  5	  2	  3	  3	  1	  1	  1	  1	0.54308	  1	0.70000	  0	 23	 62	 63	  0	
07-May-2013	sub2338	2338	  1	  0	 87	  5	  2	  2	  5	  6	  1	  1	  0	0.81445	  0	0.70000	  1	 22	 80	 51	  0	
07-May-2013	sub2338	2338	  1	  0	 88	  5	  2	  6	  2	  2	  0	  1	  1	0.30367	  0	0.80000	  0	 26	 87	 68	  1	
07-May-2013	sub2338	2338	  1	  0	 89	  5	  2	  1	  6	  3	  1	  2	  0	0.48674	  0	0.80000	  0	 21	 80	 81	  1	
07-May-2013	sub2338	2338	  1	  0	 90	  5	  2	  6	  2	  2	  1	  1	  0	0.41801	  0	0.80000	  0	 26	 85	 86	  1	
07-May-2013	sub2338	2338	  1	  0	 91	  5	  2	  5	  4	  6	  0	  2	  1	0.43438	  0	0.80000	  0	 25	 87	 68	  1	
07-May-2013	sub2338	2338	  1	  0	 92	  5	  2	  4	  1	  2	  1	  2	  1	0.39805	  1	0.80000	  0	 24	 62	 63	  1	
07-May-2013	sub2338	2338	  1	  0	 93	  5	  2	  6	  2	  2	  0	  2	  0	1.34212	  1	0.80000	  1	 26	 67	 51	  0	
07-May-2013	sub2338	2338	  1	  0	 94	  5	  2	  4	  1	  2	  1	  1	  0	0.20946	  0	0.90000	  0	 24	 82	 83	  1	
07-May-2013	sub2338	2338	  1	  0	 95	  5	  2	  1	  6	  3	  1	  2	  0	0.34369	  0	0.90000	  0	 21	 80	 81	  1	
07-May-2013	sub2338	2338	  1	  0	 96	  5	  2	  3	  3	  1	  1	  2	  0	0.35113	  0	0.90000	  0	 23	 82	 83	  1	
07-May-2013	sub2338	2338	  1	  0	 97	  5	  2	  4	  1	  2	  1	  2	  1	0.61855	  1	0.90000	  0	 24	 62	 63	  0	
07-May-2013	sub2338	2338	  1	  0	 98	  5	  2	  1	  6	  3	  1	  1	  1	0.69629	  1	0.90000	  0	 21	 60	 61	  0	
07-May-2013	sub2338	2338	  1	  0	 99	  5	  2	  4	  1	  2	  1	  2	  1	0.61292	  1	0.90000	  0	 24	 62	 63	  0	
07-May-2013	sub2338	2338	  1	  0	100	  5	  2	  4	  1	  2	  0	  2	  0	0.45140	  1	0.90000	  0	 24	 64	 89	  1	
07-May-2013	sub2338	2338	  1	  0	101	  5	  2	  4	  1	  2	  1	  1	  0	0.61914	  0	0.80000	  0	 24	 82	 83	  0	
07-May-2013	sub2338	2338	  1	  0	102	  5	  2	  2	  5	  6	  1	  2	  1	0.54937	  1	0.80000	  0	 22	 60	 61	  0	
07-May-2013	sub2338	2338	  1	  0	103	  5	  2	  3	  3	  1	  1	  1	  1	0.59044	  1	0.80000	  0	 23	 62	 63	  0	
07-May-2013	sub2338	2338	  1	  0	104	  5	  2	  5	  4	  6	  0	  1	  0	0.54517	  1	0.80000	  0	 25	 67	 88	  0	
07-May-2013	sub2338	2338	  1	  0	105	  5	  2	  4	  1	  2	  1	  2	  1	0.51893	  1	0.80000	  0	 24	 62	 63	  0	
07-May-2013	sub2338	2338	  1	  0	106	  5	  2	  1	  6	  3	  1	  2	  0	0.59328	  0	0.80000	  0	 21	 80	 81	  0	
07-May-2013	sub2338	2338	  1	  0	107	  5	  2	  5	  4	  6	  0	  2	  1	0.75251	  0	0.80000	  0	 25	 87	 68	  0	
07-May-2013	sub2338	2338	  1	  0	108	  5	  2	  6	  2	  2	  1	  2	  1	0.75700	  1	0.80000	  0	 26	 65	 66	  0	
07-May-2013	sub2338	2338	  1	  0	109	  5	  2	  1	  6	  3	  1	  2	  0	0.47393	  0	0.80000	  0	 21	 80	 81	  1	
07-May-2013	sub2338	2338	  1	  0	110	  5	  2	  6	  2	  2	  0	  2	  0	0.44830	  1	0.80000	  0	 26	 67	 88	  1	
07-May-2013	sub2338	2338	  1	  0	111	  5	  2	  3	  3	  1	  1	  1	  1	0.41996	  1	0.80000	  0	 23	 62	 63	  1	
07-May-2013	sub2338	2338	  1	  0	112	  5	  2	  2	  5	  6	  1	  1	  0	0.59178	  0	0.80000	  0	 22	 80	 81	  0	
07-May-2013	sub2338	2338	  1	  0	113	  5	  2	  3	  3	  1	  1	  2	  0	3.66169	  0	0.80000	  1	 23	 82	 51	  0	
07-May-2013	sub2338	2338	  1	  0	114	  5	  2	  2	  5	  6	  1	  1	  0	0.41108	  0	0.90000	  0	 22	 80	 81	  1	
07-May-2013	sub2338	2338	  1	  0	115	  5	  2	  1	  6	  3	  1	  1	  1	0.77482	  1	0.90000	  0	 21	 60	 61	  0	
07-May-2013	sub2338	2338	  1	  0	116	  5	  2	  4	  1	  2	  1	  1	  0	0.60733	  0	0.80000	  0	 24	 82	 83	  0	
07-May-2013	sub2338	2338	  1	  0	117	  5	  2	  5	  4	  6	  0	  2	  1	0.49701	  0	0.80000	  0	 25	 87	 68	  1	
07-May-2013	sub2338	2338	  1	  0	118	  5	  2	  3	  3	  1	  0	  2	  1	0.39741	  0	0.80000	  0	 23	 84	 69	  1	
07-May-2013	sub2338	2338	  1	  0	119	  5	  2	  5	  4	  6	  0	  2	  1	0.55698	  0	0.80000	  0	 25	 87	 68	  0	
07-May-2013	sub2338	2338	  1	  0	120	  5	  2	  1	  6	  3	  1	  1	  1	0.74703	  1	0.80000	  0	 21	 60	 61	  0	
07-May-2013	sub2338	2338	  1	  0	121	  5	  2	  3	  3	  1	  1	  2	  0	0.79102	  0	0.80000	  0	 23	 82	 83	  0	
07-May-2013	sub2338	2338	  1	  0	122	  5	  2	  1	  6	  3	  1	  1	  1	0.62072	  1	0.80000	  0	 21	 60	 61	  0	
07-May-2013	sub2338	2338	  1	  0	123	  5	  2	  6	  2	  2	  1	  2	  1	0.54958	  1	0.80000	  0	 26	 65	 66	  0	
07-May-2013	sub2338	2338	  1	  0	124	  5	  2	  2	  5	  6	  1	  1	  0	0.64647	  0	0.80000	  0	 22	 80	 81	  0	
07-May-2013	sub2338	2338	  1	  0	125	  5	  2	  3	  3	  1	  0	  2	  1	0.39957	  0	0.80000	  0	 23	 84	 69	  1	
07-May-2013	sub2338	2338	  1	  0	126	  5	  2	  3	  3	  1	  1	  2	  0	0.60336	  0	0.80000	  0	 23	 82	 83	  0	
07-May-2013	sub2338	2338	  1	  0	127	  5	  2	  6	  2	  2	  0	  1	  1	0.69387	  0	0.80000	  0	 26	 87	 68	  0	
07-May-2013	sub2338	2338	  1	  0	128	  5	  2	  5	  4	  6	  0	  2	  1	0.67072	  0	0.80000	  0	 25	 87	 68	  0	
07-May-2013	sub2338	2338	  1	  0	129	  5	  2	  1	  6	  3	  1	  2	  0	0.40387	  0	0.80000	  0	 21	 80	 81	  1	
07-May-2013	sub2338	2338	  1	  0	130	  5	  2	  6	  2	  2	  1	  1	  0	0.25433	  0	0.80000	  0	 26	 85	 86	  1	
07-May-2013	sub2338	2338	  1	  0	131	  5	  2	  1	  6	  3	  1	  2	  0	0.28997	  0	0.80000	  0	 21	 80	 81	  1	
07-May-2013	sub2338	2338	  1	  0	132	  5	  2	  2	  5	  6	  1	  2	  1	0.57960	  1	0.80000	  0	 22	 60	 61	  0	
07-May-2013	sub2338	2338	  1	  0	133	  5	  2	  2	  5	  6	  1	  2	  1	1.67704	  1	0.80000	  1	 22	 60	 51	  0	
07-May-2013	sub2338	2338	  1	  0	134	  5	  2	  6	  2	  2	  0	  1	  1	0.43037	  0	0.80000	  0	 26	 87	 68	  1	
07-May-2013	sub2338	2338	  1	  0	135	  5	  2	  1	  6	  3	  1	  2	  0	0.09831	  0	0.80000	  0	 21	 80	 81	  1	
07-May-2013	sub2338	2338	  1	  0	136	  5	  2	  2	  5	  6	  1	  2	  1	0.21593	  1	0.80000	  0	 22	 60	 61	  1	
07-May-2013	sub2338	2338	  1	  0	137	  5	  2	  2	  5	  6	  1	  2	  1	2.07860	  1	0.80000	  1	 22	 60	 51	  0	
07-May-2013	sub2338	2338	  1	  0	138	  5	  2	  4	  1	  2	  0	  1	  1	0.34776	  0	0.90000	  0	 24	 84	 69	  1	
07-May-2013	sub2338	2338	  1	  0	139	  5	  2	  5	  4	  6	  0	  2	  1	0.39122	  0	0.90000	  0	 25	 87	 68	  1	
07-May-2013	sub2338	2338	  1	  0	140	  5	  2	  5	  4	  6	  0	  2	  1	0.39723	  0	0.90000	  0	 25	 87	 68	  1	
07-May-2013	sub2338	2338	  1	  0	141	  5	  2	  2	  5	  6	  1	  1	  0	0.54017	  0	0.90000	  0	 22	 80	 81	  0	
07-May-2013	sub2338	2338	  1	  0	142	  5	  2	  6	  2	  2	  1	  2	  1	0.39632	  1	0.90000	  0	 26	 65	 66	  1	
07-May-2013	sub2338	2338	  1	  0	143	  5	  2	  6	  2	  2	  1	  2	  1	0.49860	  1	0.90000	  0	 26	 65	 66	  1	
07-May-2013	sub2338	2338	  1	  0	144	  5	  2	  5	  4	  6	  0	  2	  1	0.82333	  0	0.80000	  1	 25	 87	 51	  0	
07-May-2013	sub2338	2338	  1	  0	145	  5	  2	  3	  3	  1	  1	  2	  0	0.51838	  0	0.90000	  0	 23	 82	 83	  0	
07-May-2013	sub2338	2338	  1	  0	146	  5	  2	  4	  1	  2	  1	  2	  1	0.67623	  1	0.90000	  0	 24	 62	 63	  0	
07-May-2013	sub2338	2338	  1	  0	147	  5	  2	  3	  3	  1	  1	  1	  1	0.23057	  1	0.90000	  0	 23	 62	 63	  1	
07-May-2013	sub2338	2338	  1	  0	148	  5	  2	  6	  2	  2	  0	  2	  0	0.53435	  1	0.90000	  0	 26	 67	 88	  0	
07-May-2013	sub2338	2338	  1	  0	149	  5	  2	  1	  6	  3	  1	  1	  1	0.39410	  1	0.90000	  0	 21	 60	 61	  1	
07-May-2013	sub2338	2338	  1	  0	150	  5	  2	  4	  1	  2	  1	  1	  0	0.51740	  0	0.90000	  0	 24	 82	 83	  0	
07-May-2013	sub2338	2338	  1	  0	  1	  6	  1	  2	  2	  4	  1	  1	  0	0.44786	  0	0.60000	  0	 12	 40	 41	  1	
07-May-2013	sub2338	2338	  1	  0	  2	  6	  1	  3	  4	  1	  1	  2	  0	0.65710	  0	0.30000	  1	 13	 42	 51	  0	
07-May-2013	sub2338	2338	  1	  0	  3	  6	  1	  4	  6	  6	  0	  2	  0	0.56737	  1	0.90000	  0	 14	 34	 49	  0	
07-May-2013	sub2338	2338	  1	  0	  4	  6	  1	  3	  4	  1	  1	  1	  1	0.60170	  1	0.90000	  0	 13	 32	 33	  0	
07-May-2013	sub2338	2338	  1	  0	  5	  6	  1	  4	  6	  6	  1	  1	  0	0.60642	  0	0.90000	  0	 14	 42	 43	  0	
07-May-2013	sub2338	2338	  1	  0	  6	  6	  1	  5	  5	  1	  1	  2	  0	0.51431	  0	0.90000	  0	 15	 45	 46	  0	
07-May-2013	sub2338	2338	  1	  0	  7	  6	  1	  1	  3	  6	  1	  1	  1	0.51527	  1	0.90000	  0	 11	 30	 31	  0	
07-May-2013	sub2338	2338	  1	  0	  8	  6	  1	  1	  3	  6	  1	  1	  1	0.38862	  1	0.90000	  0	 11	 30	 31	  1	
07-May-2013	sub2338	2338	  1	  0	  9	  6	  1	  3	  4	  1	  0	  2	  1	0.45493	  0	0.90000	  0	 13	 44	 39	  1	
07-May-2013	sub2338	2338	  1	  0	 10	  6	  1	  1	  3	  6	  1	  1	  1	0.57059	  1	0.90000	  0	 11	 30	 31	  0	
07-May-2013	sub2338	2338	  1	  0	 11	  6	  1	  5	  5	  1	  0	  1	  0	0.47666	  1	0.90000	  0	 15	 37	 48	  1	
07-May-2013	sub2338	2338	  1	  0	 12	  6	  1	  5	  5	  1	  1	  1	  1	0.39630	  1	0.90000	  0	 15	 35	 36	  1	
07-May-2013	sub2338	2338	  1	  0	 13	  6	  1	  4	  6	  6	  1	  2	  1	0.56866	  1	0.90000	  0	 14	 32	 33	  0	
07-May-2013	sub2338	2338	  1	  0	 14	  6	  1	  6	  1	  4	  0	  1	  1	0.50221	  0	0.90000	  0	 16	 47	 38	  0	
07-May-2013	sub2338	2338	  1	  0	 15	  6	  1	  6	  1	  4	  1	  1	  0	0.37113	  0	0.90000	  0	 16	 45	 46	  1	
07-May-2013	sub2338	2338	  1	  0	 16	  6	  1	  2	  2	  4	  1	  2	  1	0.49441	  1	0.80000	  0	 12	 30	 31	  1	
07-May-2013	sub2338	2338	  1	  0	 17	  6	  1	  6	  1	  4	  1	  1	  0	0.52211	  0	0.80000	  0	 16	 45	 46	  0	
07-May-2013	sub2338	2338	  1	  0	 18	  6	  1	  3	  4	  1	  1	  1	  1	0.39926	  1	0.70000	  0	 13	 32	 33	  1	
07-May-2013	sub2338	2338	  1	  0	 19	  6	  1	  4	  6	  6	  1	  2	  1	0.45958	  1	0.70000	  0	 14	 32	 33	  1	
07-May-2013	sub2338	2338	  1	  0	 20	  6	  1	  2	  2	  4	  1	  1	  0	0.43678	  0	0.70000	  0	 12	 40	 41	  1	
07-May-2013	sub2338	2338	  1	  0	 21	  6	  1	  3	  4	  1	  1	  2	  0	0.47473	  0	0.60000	  0	 13	 42	 43	  1	
07-May-2013	sub2338	2338	  1	  0	 22	  6	  1	  4	  6	  6	  1	  1	  0	0.42256	  0	0.60000	  0	 14	 42	 43	  1	
07-May-2013	sub2338	2338	  1	  0	 23	  6	  1	  3	  4	  1	  1	  2	  0	0.45576	  0	0.60000	  0	 13	 42	 43	  1	
07-May-2013	sub2338	2338	  1	  0	 24	  6	  1	  2	  2	  4	  1	  2	  1	0.43807	  1	0.60000	  0	 12	 30	 31	  1	
07-May-2013	sub2338	2338	  1	  0	 25	  6	  1	  3	  4	  1	  1	  2	  0	0.38557	  0	0.60000	  0	 13	 42	 43	  1	
07-May-2013	sub2338	2338	  1	  0	 26	  6	  1	  2	  2	  4	  1	  2	  1	0.47565	  1	0.50000	  0	 12	 30	 31	  1	
07-May-2013	sub2338	2338	  1	  0	 27	  6	  1	  3	  4	  1	  1	  2	  0	0.62159	  0	0.50000	  1	 13	 42	 51	  0	
07-May-2013	sub2338	2338	  1	  0	 28	  6	  1	  1	  3	  6	  1	  1	  1	0.52331	  1	0.90000	  0	 11	 30	 31	  0	
07-May-2013	sub2338	2338	  1	  0	 29	  6	  1	  2	  2	  4	  1	  2	  1	0.54073	  1	0.90000	  0	 12	 30	 31	  0	
07-May-2013	sub2338	2338	  1	  0	 30	  6	  1	  5	  5	  1	  0	  1	  0	0.55563	  1	0.80000	  0	 15	 37	 48	  0	
07-May-2013	sub2338	2338	  1	  0	 31	  6	  1	  4	  6	  6	  1	  2	  1	0.32370	  1	0.80000	  0	 14	 32	 33	  1	
07-May-2013	sub2338	2338	  1	  0	 32	  6	  1	  6	  1	  4	  1	  1	  0	0.47098	  0	0.80000	  0	 16	 45	 46	  1	
07-May-2013	sub2338	2338	  1	  0	 33	  6	  1	  1	  3	  6	  1	  1	  1	0.33331	  1	0.80000	  0	 11	 30	 31	  1	
07-May-2013	sub2338	2338	  1	  0	 34	  6	  1	  2	  2	  4	  1	  2	  1	0.57899	  1	0.80000	  0	 12	 30	 31	  0	
07-May-2013	sub2338	2338	  1	  0	 35	  6	  1	  1	  3	  6	  1	  1	  1	0.50761	  1	0.70000	  0	 11	 30	 31	  0	
07-May-2013	sub2338	2338	  1	  0	 36	  6	  1	  5	  5	  1	  1	  2	  0	0.66950	  0	0.70000	  0	 15	 45	 46	  0	
07-May-2013	sub2338	2338	  1	  0	 37	  6	  1	  5	  5	  1	  0	  1	  0	0.43525	  1	0.70000	  0	 15	 37	 48	  1	
07-May-2013	sub2338	2338	  1	  0	 38	  6	  1	  2	  2	  4	  1	  1	  0	0.65340	  0	0.70000	  0	 12	 40	 41	  0	
07-May-2013	sub2338	2338	  1	  0	 39	  6	  1	  2	  2	  4	  1	  1	  0	0.46364	  0	0.70000	  0	 12	 40	 41	  1	
07-May-2013	sub2338	2338	  1	  0	 40	  6	  1	  1	  3	  6	  1	  1	  1	0.68325	  1	0.70000	  0	 11	 30	 31	  0	
07-May-2013	sub2338	2338	  1	  0	 41	  6	  1	  6	  1	  4	  1	  2	  1	0.62639	  1	0.60000	  1	 16	 35	 51	  0	
07-May-2013	sub2338	2338	  1	  0	 42	  6	  1	  4	  6	  6	  1	  1	  0	0.69343	  0	0.90000	  0	 14	 42	 43	  0	
07-May-2013	sub2338	2338	  1	  0	 43	  6	  1	  2	  2	  4	  1	  2	  1	0.83296	  1	0.90000	  0	 12	 30	 31	  0	
07-May-2013	sub2338	2338	  1	  0	 44	  6	  1	  6	  1	  4	  0	  1	  1	0.52331	  0	0.80000	  0	 16	 47	 38	  0	
07-May-2013	sub2338	2338	  1	  0	 45	  6	  1	  4	  6	  6	  1	  2	  1	0.51778	  1	0.80000	  0	 14	 32	 33	  0	
07-May-2013	sub2338	2338	  1	  0	 46	  6	  1	  4	  6	  6	  1	  2	  1	0.52676	  1	0.80000	  0	 14	 32	 33	  0	
07-May-2013	sub2338	2338	  1	  0	 47	  6	  1	  5	  5	  1	  1	  2	  0	0.71780	  0	0.80000	  0	 15	 45	 46	  0	
07-May-2013	sub2338	2338	  1	  0	 48	  6	  1	  3	  4	  1	  1	  1	  1	0.58536	  1	0.80000	  0	 13	 32	 33	  0	
07-May-2013	sub2338	2338	  1	  0	 49	  6	  1	  1	  3	  6	  1	  1	  1	0.46263	  1	0.80000	  0	 11	 30	 31	  1	
07-May-2013	sub2338	2338	  1	  0	 50	  6	  1	  4	  6	  6	  1	  2	  1	0.43006	  1	0.80000	  0	 14	 32	 33	  1	
07-May-2013	sub2338	2338	  1	  0	 51	  6	  1	  4	  6	  6	  1	  2	  1	0.43246	  1	0.70000	  0	 14	 32	 33	  1	
07-May-2013	sub2338	2338	  1	  0	 52	  6	  1	  1	  3	  6	  1	  1	  1	0.45929	  1	0.70000	  0	 11	 30	 31	  1	
07-May-2013	sub2338	2338	  1	  0	 53	  6	  1	  1	  3	  6	  1	  1	  1	0.52535	  1	0.70000	  0	 11	 30	 31	  0	
07-May-2013	sub2338	2338	  1	  0	 54	  6	  1	  6	  1	  4	  0	  1	  1	0.70044	  0	0.70000	  1	 16	 47	 51	  0	
07-May-2013	sub2338	2338	  1	  0	 55	  6	  1	  3	  4	  1	  0	  1	  0	0.54350	  1	0.90000	  0	 13	 34	 49	  0	
07-May-2013	sub2338	2338	  1	  0	 56	  6	  1	  6	  1	  4	  1	  2	  1	0.60280	  1	0.90000	  0	 16	 35	 36	  0	
07-May-2013	sub2338	2338	  1	  0	 57	  6	  1	  5	  5	  1	  0	  2	  1	0.71791	  0	0.90000	  0	 15	 47	 38	  0	
07-May-2013	sub2338	2338	  1	  0	 58	  6	  1	  1	  3	  6	  1	  1	  1	0.54489	  1	0.90000	  0	 11	 30	 31	  0	
07-May-2013	sub2338	2338	  1	  0	 59	  6	  1	  1	  3	  6	  1	  1	  1	0.38543	  1	0.80000	  0	 11	 30	 31	  1	
07-May-2013	sub2338	2338	  1	  0	 60	  6	  1	  5	  5	  1	  1	  2	  0	0.58827	  0	0.80000	  0	 15	 45	 46	  0	
07-May-2013	sub2338	2338	  1	  0	 61	  6	  1	  6	  1	  4	  0	  2	  0	0.72023	  1	0.80000	  0	 16	 37	 48	  0	
07-May-2013	sub2338	2338	  1	  0	 62	  6	  1	  3	  4	  1	  1	  1	  1	0.70053	  1	0.80000	  0	 13	 32	 33	  0	
07-May-2013	sub2338	2338	  1	  0	 63	  6	  1	  3	  4	  1	  0	  1	  0	0.39078	  1	0.80000	  0	 13	 34	 49	  1	
07-May-2013	sub2338	2338	  1	  0	 64	  6	  1	  5	  5	  1	  1	  2	  0	0.58973	  0	0.80000	  0	 15	 45	 46	  0	
07-May-2013	sub2338	2338	  1	  0	 65	  6	  1	  4	  6	  6	  0	  2	  0	0.63435	  1	0.80000	  0	 14	 34	 49	  0	
07-May-2013	sub2338	2338	  1	  0	 66	  6	  1	  2	  2	  4	  1	  1	  0	0.56513	  0	0.80000	  0	 12	 40	 41	  0	
07-May-2013	sub2338	2338	  1	  0	 67	  6	  1	  3	  4	  1	  1	  2	  0	0.54245	  0	0.80000	  0	 13	 42	 43	  0	
07-May-2013	sub2338	2338	  1	  0	 68	  6	  1	  2	  2	  4	  1	  1	  0	0.65764	  0	0.70000	  0	 12	 40	 41	  0	
07-May-2013	sub2338	2338	  1	  0	 69	  6	  1	  2	  2	  4	  1	  1	  0	0.71576	  0	0.70000	  1	 12	 40	 51	  0	
07-May-2013	sub2338	2338	  1	  0	 70	  6	  1	  6	  1	  4	  0	  2	  0	0.66028	  1	0.90000	  0	 16	 37	 48	  0	
07-May-2013	sub2338	2338	  1	  0	 71	  6	  1	  5	  5	  1	  1	  1	  1	0.49094	  1	0.90000	  0	 15	 35	 36	  1	
07-May-2013	sub2338	2338	  1	  0	 72	  6	  1	  5	  5	  1	  0	  1	  0	0.45982	  1	0.90000	  0	 15	 37	 48	  1	
07-May-2013	sub2338	2338	  1	  0	 73	  6	  1	  6	  1	  4	  1	  2	  1	0.47097	  1	0.80000	  0	 16	 35	 36	  1	
07-May-2013	sub2338	2338	  1	  0	 74	  6	  1	  6	  1	  4	  0	  2	  0	0.41880	  1	0.80000	  0	 16	 37	 48	  1	
07-May-2013	sub2338	2338	  1	  0	 75	  6	  1	  6	  1	  4	  0	  1	  1	0.62475	  0	0.80000	  0	 16	 47	 38	  0	
07-May-2013	sub2338	2338	  1	  0	 76	  6	  2	  5	  5	  1	  0	  2	  1	0.53676	  0	0.80000	  0	 25	 87	 68	  0	
07-May-2013	sub2338	2338	  1	  0	 77	  6	  2	  1	  3	  6	  1	  2	  0	0.60241	  0	0.80000	  0	 21	 80	 81	  0	
07-May-2013	sub2338	2338	  1	  0	 78	  6	  2	  2	  2	  4	  1	  2	  1	0.61477	  1	0.80000	  0	 22	 60	 61	  0	
07-May-2013	sub2338	2338	  1	  0	 79	  6	  2	  4	  6	  6	  1	  2	  1	0.67358	  1	0.80000	  0	 24	 62	 63	  0	
07-May-2013	sub2338	2338	  1	  0	 80	  6	  2	  6	  1	  4	  1	  2	  1	0.62632	  1	0.80000	  0	 26	 65	 66	  0	
07-May-2013	sub2338	2338	  1	  0	 81	  6	  2	  4	  6	  6	  1	  2	  1	0.57506	  1	0.80000	  0	 24	 62	 63	  0	
07-May-2013	sub2338	2338	  1	  0	 82	  6	  2	  2	  2	  4	  1	  2	  1	0.48088	  1	0.80000	  0	 22	 60	 61	  1	
07-May-2013	sub2338	2338	  1	  0	 83	  6	  2	  5	  5	  1	  0	  1	  0	0.68027	  1	0.80000	  0	 25	 67	 88	  0	
07-May-2013	sub2338	2338	  1	  0	 84	  6	  2	  6	  1	  4	  0	  2	  0	0.56942	  1	0.80000	  0	 26	 67	 88	  0	
07-May-2013	sub2338	2338	  1	  0	 85	  6	  2	  1	  3	  6	  1	  1	  1	0.57399	  1	0.70000	  0	 21	 60	 61	  0	
07-May-2013	sub2338	2338	  1	  0	 86	  6	  2	  4	  6	  6	  1	  2	  1	0.56486	  1	0.70000	  0	 24	 62	 63	  0	
07-May-2013	sub2338	2338	  1	  0	 87	  6	  2	  3	  4	  1	  1	  1	  1	0.77407	  1	0.70000	  1	 23	 62	 51	  0	
07-May-2013	sub2338	2338	  1	  0	 88	  6	  2	  5	  5	  1	  0	  2	  1	0.51986	  0	0.80000	  0	 25	 87	 68	  0	
07-May-2013	sub2338	2338	  1	  0	 89	  6	  2	  2	  2	  4	  1	  2	  1	0.56571	  1	0.80000	  0	 22	 60	 61	  0	
07-May-2013	sub2338	2338	  1	  0	 90	  6	  2	  2	  2	  4	  1	  2	  1	0.43185	  1	0.80000	  0	 22	 60	 61	  1	
07-May-2013	sub2338	2338	  1	  0	 91	  6	  2	  2	  2	  4	  1	  2	  1	0.59004	  1	0.80000	  0	 22	 60	 61	  0	
07-May-2013	sub2338	2338	  1	  0	 92	  6	  2	  3	  4	  1	  1	  1	  1	0.49302	  1	0.80000	  0	 23	 62	 63	  1	
07-May-2013	sub2338	2338	  1	  0	 93	  6	  2	  5	  5	  1	  0	  1	  0	0.62846	  1	0.80000	  0	 25	 67	 88	  0	
07-May-2013	sub2338	2338	  1	  0	 94	  6	  2	  5	  5	  1	  0	  2	  1	0.47657	  0	0.80000	  0	 25	 87	 68	  1	
07-May-2013	sub2338	2338	  1	  0	 95	  6	  2	  1	  3	  6	  1	  1	  1	0.58125	  1	0.80000	  0	 21	 60	 61	  0	
07-May-2013	sub2338	2338	  1	  0	 96	  6	  2	  4	  6	  6	  0	  2	  0	0.55280	  1	0.80000	  0	 24	 64	 89	  0	
07-May-2013	sub2338	2338	  1	  0	 97	  6	  2	  2	  2	  4	  1	  2	  1	0.58053	  1	0.80000	  0	 22	 60	 61	  0	
07-May-2013	sub2338	2338	  1	  0	 98	  6	  2	  6	  1	  4	  1	  2	  1	0.61340	  1	0.80000	  0	 26	 65	 66	  0	
07-May-2013	sub2338	2338	  1	  0	 99	  6	  2	  1	  3	  6	  1	  1	  1	0.57079	  1	0.80000	  0	 21	 60	 61	  0	
07-May-2013	sub2338	2338	  1	  0	100	  6	  2	  5	  5	  1	  0	  1	  0	0.53125	  1	0.80000	  0	 25	 67	 88	  0	
07-May-2013	sub2338	2338	  1	  0	101	  6	  2	  3	  4	  1	  1	  1	  1	0.71444	  1	0.70000	  1	 23	 62	 51	  0	
07-May-2013	sub2338	2338	  1	  0	102	  6	  2	  2	  2	  4	  1	  1	  0	0.26971	  0	0.80000	  0	 22	 80	 81	  1	
07-May-2013	sub2338	2338	  1	  0	103	  6	  2	  3	  4	  1	  1	  2	  0	0.44666	  0	0.80000	  0	 23	 82	 83	  1	
07-May-2013	sub2338	2338	  1	  0	104	  6	  2	  6	  1	  4	  0	  1	  1	0.32493	  0	0.80000	  0	 26	 87	 68	  1	
07-May-2013	sub2338	2338	  1	  0	105	  6	  2	  1	  3	  6	  1	  1	  1	0.51157	  1	0.80000	  0	 21	 60	 61	  0	
07-May-2013	sub2338	2338	  1	  0	106	  6	  2	  3	  4	  1	  1	  2	  0	0.47422	  0	0.80000	  0	 23	 82	 83	  1	
07-May-2013	sub2338	2338	  1	  0	107	  6	  2	  6	  1	  4	  1	  1	  0	0.37513	  0	0.80000	  0	 26	 85	 86	  1	
07-May-2013	sub2338	2338	  1	  0	108	  6	  2	  6	  1	  4	  0	  2	  0	4.56443	  1	0.80000	  1	 26	 67	 51	  0	
07-May-2013	sub2338	2338	  1	  0	109	  6	  2	  1	  3	  6	  1	  1	  1	0.52475	  1	0.90000	  0	 21	 60	 61	  0	
07-May-2013	sub2338	2338	  1	  0	110	  6	  2	  5	  5	  1	  0	  1	  0	0.62685	  1	0.90000	  0	 25	 67	 88	  0	
07-May-2013	sub2338	2338	  1	  0	111	  6	  2	  3	  4	  1	  1	  2	  0	0.48834	  0	0.90000	  0	 23	 82	 83	  1	
07-May-2013	sub2338	2338	  1	  0	112	  6	  2	  5	  5	  1	  0	  1	  0	0.53410	  1	0.90000	  0	 25	 67	 88	  0	
07-May-2013	sub2338	2338	  1	  0	113	  6	  2	  5	  5	  1	  0	  1	  0	0.53015	  1	0.90000	  0	 25	 67	 88	  0	
07-May-2013	sub2338	2338	  1	  0	114	  6	  2	  2	  2	  4	  1	  2	  1	0.63349	  1	0.90000	  0	 22	 60	 61	  0	
07-May-2013	sub2338	2338	  1	  0	115	  6	  2	  2	  2	  4	  1	  2	  1	0.43585	  1	0.90000	  0	 22	 60	 61	  1	
07-May-2013	sub2338	2338	  1	  0	116	  6	  2	  6	  1	  4	  1	  2	  1	0.62882	  1	0.80000	  0	 26	 65	 66	  0	
07-May-2013	sub2338	2338	  1	  0	117	  6	  2	  3	  4	  1	  1	  1	  1	0.64790	  1	0.80000	  0	 23	 62	 63	  0	
07-May-2013	sub2338	2338	  1	  0	118	  6	  2	  3	  4	  1	  0	  1	  0	0.49571	  1	0.80000	  0	 23	 64	 89	  1	
07-May-2013	sub2338	2338	  1	  0	119	  6	  2	  4	  6	  6	  1	  2	  1	0.48222	  1	0.80000	  0	 24	 62	 63	  1	
07-May-2013	sub2338	2338	  1	  0	120	  6	  2	  4	  6	  6	  1	  2	  1	0.45832	  1	0.80000	  0	 24	 62	 63	  1	
07-May-2013	sub2338	2338	  1	  0	121	  6	  2	  2	  2	  4	  1	  1	  0	0.57053	  0	0.80000	  0	 22	 80	 81	  0	
07-May-2013	sub2338	2338	  1	  0	122	  6	  2	  6	  1	  4	  0	  2	  0	0.56855	  1	0.80000	  0	 26	 67	 88	  0	
07-May-2013	sub2338	2338	  1	  0	123	  6	  2	  4	  6	  6	  0	  2	  0	0.55340	  1	0.80000	  0	 24	 64	 89	  0	
07-May-2013	sub2338	2338	  1	  0	124	  6	  2	  4	  6	  6	  1	  1	  0	0.44359	  0	0.80000	  0	 24	 82	 83	  1	
07-May-2013	sub2338	2338	  1	  0	125	  6	  2	  6	  1	  4	  0	  2	  0	0.60518	  1	0.80000	  0	 26	 67	 88	  0	
07-May-2013	sub2338	2338	  1	  0	126	  6	  2	  2	  2	  4	  1	  1	  0	0.59131	  0	0.80000	  0	 22	 80	 81	  0	
07-May-2013	sub2338	2338	  1	  0	127	  6	  2	  5	  5	  1	  0	  1	  0	0.55750	  1	0.80000	  0	 25	 67	 88	  0	
07-May-2013	sub2338	2338	  1	  0	128	  6	  2	  3	  4	  1	  1	  1	  1	0.38797	  1	0.80000	  0	 23	 62	 63	  1	
07-May-2013	sub2338	2338	  1	  0	129	  6	  2	  1	  3	  6	  1	  1	  1	0.45397	  1	0.80000	  0	 21	 60	 61	  1	
07-May-2013	sub2338	2338	  1	  0	130	  6	  2	  3	  4	  1	  0	  2	  1	0.52535	  0	0.80000	  0	 23	 84	 69	  0	
07-May-2013	sub2338	2338	  1	  0	131	  6	  2	  5	  5	  1	  0	  1	  0	0.54881	  1	0.80000	  0	 25	 67	 88	  0	
07-May-2013	sub2338	2338	  1	  0	132	  6	  2	  5	  5	  1	  0	  1	  0	0.46230	  1	0.80000	  0	 25	 67	 88	  1	
07-May-2013	sub2338	2338	  1	  0	133	  6	  2	  1	  3	  6	  1	  1	  1	0.50897	  1	0.80000	  0	 21	 60	 61	  0	
07-May-2013	sub2338	2338	  1	  0	134	  6	  2	  1	  3	  6	  1	  1	  1	0.47946	  1	0.80000	  0	 21	 60	 61	  1	
07-May-2013	sub2338	2338	  1	  0	135	  6	  2	  4	  6	  6	  1	  2	  1	0.47930	  1	0.70000	  0	 24	 62	 63	  1	
07-May-2013	sub2338	2338	  1	  0	136	  6	  2	  1	  3	  6	  1	  1	  1	0.53861	  1	0.70000	  0	 21	 60	 61	  0	
07-May-2013	sub2338	2338	  1	  0	137	  6	  2	  4	  6	  6	  1	  2	  1	0.47561	  1	0.70000	  0	 24	 62	 63	  1	
07-May-2013	sub2338	2338	  1	  0	138	  6	  2	  4	  6	  6	  0	  2	  0	0.47117	  1	0.70000	  0	 24	 64	 89	  1	
07-May-2013	sub2338	2338	  1	  0	139	  6	  2	  2	  2	  4	  1	  1	  0	0.74237	  0	0.70000	  1	 22	 80	 51	  0	
07-May-2013	sub2338	2338	  1	  0	140	  6	  2	  5	  5	  1	  0	  1	  0	0.55587	  1	0.80000	  0	 25	 67	 88	  0	
07-May-2013	sub2338	2338	  1	  0	141	  6	  2	  1	  3	  6	  1	  1	  1	0.45372	  1	0.80000	  0	 21	 60	 61	  1	
07-May-2013	sub2338	2338	  1	  0	142	  6	  2	  6	  1	  4	  1	  2	  1	0.59604	  1	0.80000	  0	 26	 65	 66	  0	
07-May-2013	sub2338	2338	  1	  0	143	  6	  2	  3	  4	  1	  1	  1	  1	0.69847	  1	0.80000	  0	 23	 62	 63	  0	
07-May-2013	sub2338	2338	  1	  0	144	  6	  2	  3	  4	  1	  1	  1	  1	0.57315	  1	0.80000	  0	 23	 62	 63	  0	
07-May-2013	sub2338	2338	  1	  0	145	  6	  2	  6	  1	  4	  0	  2	  0	0.70324	  1	0.80000	  0	 26	 67	 88	  0	
07-May-2013	sub2338	2338	  1	  0	146	  6	  2	  1	  3	  6	  1	  1	  1	0.54106	  1	0.80000	  0	 21	 60	 61	  0	
07-May-2013	sub2338	2338	  1	  0	147	  6	  2	  4	  6	  6	  1	  2	  1	0.57888	  1	0.80000	  0	 24	 62	 63	  0	
07-May-2013	sub2338	2338	  1	  0	148	  6	  2	  6	  1	  4	  1	  1	  0	0.70474	  0	0.80000	  0	 26	 85	 86	  0	
07-May-2013	sub2338	2338	  1	  0	149	  6	  2	  4	  6	  6	  1	  2	  1	0.47316	  1	0.80000	  0	 24	 62	 63	  1	
07-May-2013	sub2338	2338	  1	  0	150	  6	  2	  1	  3	  6	  1	  1	  1	0.46038	  1	0.80000	  0	 21	 60	 61	  1	
