Date 	 Name 	 ID 	 Gender 	 Appearance 	 Trial 	 Block 	 Bin 	 Condition 	 Category 	 Number 	 Valid 	 Keypress 	 Correct 	 RT 	 Realcorrect 	 Deadline 	 Timeout 	 Stimtrigger 	 Resptrigger 	 Fedtrigger 	 WithinTime 	 
08-May-2013	sub2339	2339	  1	  0	  1	  1	  1	  5	  2	  5	  1	  1	  1	0.78041	  1	0.60000	  1	 15	 35	 51	  0	
08-May-2013	sub2339	2339	  1	  0	  2	  1	  1	  6	  3	  4	  1	  2	  1	0.37674	  1	0.90000	  0	 16	 35	 36	  1	
08-May-2013	sub2339	2339	  1	  0	  3	  1	  1	  4	  6	  6	  1	  2	  1	0.45082	  1	0.90000	  0	 14	 32	 33	  1	
08-May-2013	sub2339	2339	  1	  0	  4	  1	  1	  2	  1	  5	  1	  1	  0	0.58891	  0	0.90000	  0	 12	 40	 41	  0	
08-May-2013	sub2339	2339	  1	  0	  5	  1	  1	  4	  6	  6	  1	  2	  1	0.55334	  1	0.90000	  0	 14	 32	 33	  0	
08-May-2013	sub2339	2339	  1	  0	  6	  1	  1	  1	  4	  2	  1	  2	  0	0.61913	  0	0.90000	  0	 11	 40	 41	  0	
08-May-2013	sub2339	2339	  1	  0	  7	  1	  1	  3	  5	  2	  1	  1	  1	0.46483	  1	0.90000	  0	 13	 32	 33	  1	
08-May-2013	sub2339	2339	  1	  0	  8	  1	  1	  1	  4	  2	  1	  1	  1	0.51729	  1	0.90000	  0	 11	 30	 31	  0	
08-May-2013	sub2339	2339	  1	  0	  9	  1	  1	  1	  4	  2	  1	  1	  1	0.51630	  1	0.90000	  0	 11	 30	 31	  0	
08-May-2013	sub2339	2339	  1	  0	 10	  1	  1	  1	  4	  2	  1	  2	  0	0.37392	  0	0.90000	  0	 11	 40	 41	  1	
08-May-2013	sub2339	2339	  1	  0	 11	  1	  1	  6	  3	  4	  1	  1	  0	0.46147	  0	0.90000	  0	 16	 45	 46	  1	
08-May-2013	sub2339	2339	  1	  0	 12	  1	  1	  2	  1	  5	  1	  1	  0	0.52850	  0	0.90000	  0	 12	 40	 41	  0	
08-May-2013	sub2339	2339	  1	  0	 13	  1	  1	  4	  6	  6	  1	  1	  0	0.37575	  0	0.90000	  0	 14	 42	 43	  1	
08-May-2013	sub2339	2339	  1	  0	 14	  1	  1	  5	  2	  5	  1	  2	  0	0.38404	  0	0.90000	  0	 15	 45	 46	  1	
08-May-2013	sub2339	2339	  1	  0	 15	  1	  1	  2	  1	  5	  1	  1	  0	0.41213	  0	0.90000	  0	 12	 40	 41	  1	
08-May-2013	sub2339	2339	  1	  0	 16	  1	  1	  4	  6	  6	  1	  2	  1	0.59127	  1	0.80000	  0	 14	 32	 33	  0	
08-May-2013	sub2339	2339	  1	  0	 17	  1	  1	  6	  3	  4	  0	  2	  0	0.68552	  1	0.80000	  0	 16	 37	 48	  0	
08-May-2013	sub2339	2339	  1	  0	 18	  1	  1	  6	  3	  4	  0	  1	  1	0.53169	  0	0.70000	  0	 16	 47	 38	  0	
08-May-2013	sub2339	2339	  1	  0	 19	  1	  1	  1	  4	  2	  1	  1	  1	0.54090	  1	0.70000	  0	 11	 30	 31	  0	
08-May-2013	sub2339	2339	  1	  0	 20	  1	  1	  5	  2	  5	  0	  1	  0	0.58919	  1	0.70000	  0	 15	 37	 48	  0	
08-May-2013	sub2339	2339	  1	  0	 21	  1	  1	  4	  6	  6	  1	  2	  1	0.44081	  1	0.60000	  0	 14	 32	 33	  1	
08-May-2013	sub2339	2339	  1	  0	 22	  1	  1	  1	  4	  2	  1	  1	  1	0.46051	  1	0.60000	  0	 11	 30	 31	  1	
08-May-2013	sub2339	2339	  1	  0	 23	  1	  1	  4	  6	  6	  1	  2	  1	0.46485	  1	0.60000	  0	 14	 32	 33	  1	
08-May-2013	sub2339	2339	  1	  0	 24	  1	  1	  3	  5	  2	  1	  2	  0	0.58431	  0	0.60000	  0	 13	 42	 43	  0	
08-May-2013	sub2339	2339	  1	  0	 25	  1	  1	  3	  5	  2	  0	  1	  0	0.42287	  1	0.60000	  0	 13	 34	 49	  1	
08-May-2013	sub2339	2339	  1	  0	 26	  1	  1	  6	  3	  4	  0	  1	  1	0.62970	  0	0.50000	  1	 16	 47	 51	  0	
08-May-2013	sub2339	2339	  1	  0	 27	  1	  1	  2	  1	  5	  1	  1	  0	0.44232	  0	0.90000	  0	 12	 40	 41	  1	
08-May-2013	sub2339	2339	  1	  0	 28	  1	  1	  5	  2	  5	  1	  2	  0	0.36199	  0	0.90000	  0	 15	 45	 46	  1	
08-May-2013	sub2339	2339	  1	  0	 29	  1	  1	  4	  6	  6	  1	  1	  0	0.36827	  0	0.90000	  0	 14	 42	 43	  1	
08-May-2013	sub2339	2339	  1	  0	 30	  1	  1	  4	  6	  6	  0	  2	  0	0.37741	  1	0.80000	  0	 14	 34	 49	  1	
08-May-2013	sub2339	2339	  1	  0	 31	  1	  1	  5	  2	  5	  1	  1	  1	0.38534	  1	0.80000	  0	 15	 35	 36	  1	
08-May-2013	sub2339	2339	  1	  0	 32	  1	  1	  4	  6	  6	  0	  1	  1	0.58329	  0	0.80000	  0	 14	 44	 39	  0	
08-May-2013	sub2339	2339	  1	  0	 33	  1	  1	  4	  6	  6	  1	  1	  0	0.42378	  0	0.80000	  0	 14	 42	 43	  1	
08-May-2013	sub2339	2339	  1	  0	 34	  1	  1	  6	  3	  4	  0	  1	  1	0.57830	  0	0.80000	  0	 16	 47	 38	  0	
08-May-2013	sub2339	2339	  1	  0	 35	  1	  1	  2	  1	  5	  1	  2	  1	0.42937	  1	0.70000	  0	 12	 30	 31	  1	
08-May-2013	sub2339	2339	  1	  0	 36	  1	  1	  1	  4	  2	  1	  2	  0	0.44160	  0	0.70000	  0	 11	 40	 41	  1	
08-May-2013	sub2339	2339	  1	  0	 37	  1	  1	  3	  5	  2	  1	  1	  1	0.39309	  1	0.70000	  0	 13	 32	 33	  1	
08-May-2013	sub2339	2339	  1	  0	 38	  1	  1	  2	  1	  5	  1	  1	  0	0.37713	  0	0.70000	  0	 12	 40	 41	  1	
08-May-2013	sub2339	2339	  1	  0	 39	  1	  1	  6	  3	  4	  0	  1	  1	0.47891	  0	0.70000	  0	 16	 47	 38	  1	
08-May-2013	sub2339	2339	  1	  0	 40	  1	  1	  1	  4	  2	  1	  1	  1	0.48010	  1	0.70000	  0	 11	 30	 31	  1	
08-May-2013	sub2339	2339	  1	  0	 41	  1	  1	  3	  5	  2	  0	  1	  0	0.54661	  1	0.60000	  0	 13	 34	 49	  0	
08-May-2013	sub2339	2339	  1	  0	 42	  1	  1	  5	  2	  5	  1	  2	  0	0.38777	  0	0.60000	  0	 15	 45	 46	  1	
08-May-2013	sub2339	2339	  1	  0	 43	  1	  1	  3	  5	  2	  1	  2	  0	0.39869	  0	0.60000	  0	 13	 42	 43	  1	
08-May-2013	sub2339	2339	  1	  0	 44	  1	  1	  1	  4	  2	  1	  1	  1	0.39963	  1	0.60000	  0	 11	 30	 31	  1	
08-May-2013	sub2339	2339	  1	  0	 45	  1	  1	  2	  1	  5	  1	  1	  0	0.46442	  0	0.60000	  0	 12	 40	 41	  1	
08-May-2013	sub2339	2339	  1	  0	 46	  1	  1	  5	  2	  5	  0	  2	  1	0.54040	  0	0.60000	  0	 15	 47	 38	  0	
08-May-2013	sub2339	2339	  1	  0	 47	  1	  1	  4	  6	  6	  1	  1	  0	0.38698	  0	0.60000	  0	 14	 42	 43	  1	
08-May-2013	sub2339	2339	  1	  0	 48	  1	  1	  5	  2	  5	  1	  1	  1	0.38712	  1	0.60000	  0	 15	 35	 36	  1	
08-May-2013	sub2339	2339	  1	  0	 49	  1	  1	  4	  6	  6	  1	  2	  1	0.46980	  1	0.60000	  0	 14	 32	 33	  1	
08-May-2013	sub2339	2339	  1	  0	 50	  1	  1	  5	  2	  5	  1	  1	  1	0.47405	  1	0.60000	  0	 15	 35	 36	  1	
08-May-2013	sub2339	2339	  1	  0	 51	  1	  1	  3	  5	  2	  1	  1	  1	0.52057	  1	0.50000	  1	 13	 32	 51	  0	
08-May-2013	sub2339	2339	  1	  0	 52	  1	  1	  2	  1	  5	  1	  1	  0	0.43197	  0	0.70000	  0	 12	 40	 41	  1	
08-May-2013	sub2339	2339	  1	  0	 53	  1	  1	  3	  5	  2	  1	  1	  1	0.48241	  1	0.70000	  0	 13	 32	 33	  1	
08-May-2013	sub2339	2339	  1	  0	 54	  1	  1	  3	  5	  2	  1	  1	  1	0.45869	  1	0.70000	  0	 13	 32	 33	  1	
08-May-2013	sub2339	2339	  1	  0	 55	  1	  1	  2	  1	  5	  1	  1	  0	0.44556	  0	0.70000	  0	 12	 40	 41	  1	
08-May-2013	sub2339	2339	  1	  0	 56	  1	  1	  1	  4	  2	  1	  1	  1	0.46010	  1	0.70000	  0	 11	 30	 31	  1	
08-May-2013	sub2339	2339	  1	  0	 57	  1	  1	  3	  5	  2	  0	  1	  0	0.50741	  1	0.70000	  0	 13	 34	 49	  0	
08-May-2013	sub2339	2339	  1	  0	 58	  1	  1	  2	  1	  5	  1	  1	  0	0.46139	  0	0.70000	  0	 12	 40	 41	  1	
08-May-2013	sub2339	2339	  1	  0	 59	  1	  1	  2	  1	  5	  1	  2	  1	0.39169	  1	0.70000	  0	 12	 30	 31	  1	
08-May-2013	sub2339	2339	  1	  0	 60	  1	  1	  1	  4	  2	  1	  1	  1	0.41496	  1	0.70000	  0	 11	 30	 31	  1	
08-May-2013	sub2339	2339	  1	  0	 61	  1	  1	  6	  3	  4	  1	  1	  0	0.43199	  0	0.60000	  0	 16	 45	 46	  1	
08-May-2013	sub2339	2339	  1	  0	 62	  1	  1	  6	  3	  4	  0	  2	  0	0.34625	  1	0.60000	  0	 16	 37	 48	  1	
08-May-2013	sub2339	2339	  1	  0	 63	  1	  1	  6	  3	  4	  1	  2	  1	0.42479	  1	0.60000	  0	 16	 35	 36	  1	
08-May-2013	sub2339	2339	  1	  0	 64	  1	  1	  6	  3	  4	  0	  2	  0	0.39794	  1	0.60000	  0	 16	 37	 48	  1	
08-May-2013	sub2339	2339	  1	  0	 65	  1	  1	  5	  2	  5	  0	  1	  0	0.35612	  1	0.60000	  0	 15	 37	 48	  1	
08-May-2013	sub2339	2339	  1	  0	 66	  1	  1	  6	  3	  4	  0	  2	  0	0.29943	  1	0.60000	  0	 16	 37	 48	  1	
08-May-2013	sub2339	2339	  1	  0	 67	  1	  1	  6	  3	  4	  1	  1	  0	0.30055	  0	0.60000	  0	 16	 45	 46	  1	
08-May-2013	sub2339	2339	  1	  0	 68	  1	  1	  2	  1	  5	  1	  1	  0	0.45271	  0	0.60000	  0	 12	 40	 41	  1	
08-May-2013	sub2339	2339	  1	  0	 69	  1	  1	  3	  5	  2	  1	  1	  1	0.27335	  1	0.60000	  0	 13	 32	 33	  1	
08-May-2013	sub2339	2339	  1	  0	 70	  1	  1	  5	  2	  5	  0	  2	  1	0.45406	  0	0.60000	  0	 15	 47	 38	  1	
08-May-2013	sub2339	2339	  1	  0	 71	  1	  1	  3	  5	  2	  1	  1	  1	0.42854	  1	0.60000	  0	 13	 32	 33	  1	
08-May-2013	sub2339	2339	  1	  0	 72	  1	  1	  1	  4	  2	  1	  1	  1	0.40901	  1	0.60000	  0	 11	 30	 31	  1	
08-May-2013	sub2339	2339	  1	  0	 73	  1	  1	  5	  2	  5	  0	  1	  0	0.38218	  1	0.60000	  0	 15	 37	 48	  1	
08-May-2013	sub2339	2339	  1	  0	 74	  1	  1	  3	  5	  2	  1	  2	  0	0.34588	  0	0.60000	  0	 13	 42	 43	  1	
08-May-2013	sub2339	2339	  1	  0	 75	  1	  1	  2	  1	  5	  1	  1	  0	0.30303	  0	0.60000	  0	 12	 40	 41	  1	
08-May-2013	sub2339	2339	  1	  0	  1	  2	  1	  1	  4	  6	  1	  1	  1	0.32886	  1	0.60000	  0	 11	 30	 31	  1	
08-May-2013	sub2339	2339	  1	  0	  2	  2	  1	  4	  5	  6	  1	  2	  1	0.43141	  1	0.30000	  1	 14	 32	 51	  1	
08-May-2013	sub2339	2339	  1	  0	  3	  2	  1	  1	  4	  6	  1	  1	  1	0.32319	  1	0.90000	  0	 11	 30	 31	  1	
08-May-2013	sub2339	2339	  1	  0	  4	  2	  1	  3	  1	  6	  0	  2	  1	0.32567	  0	0.90000	  0	 13	 44	 39	  1	
08-May-2013	sub2339	2339	  1	  0	  5	  2	  1	  6	  2	  2	  0	  2	  0	0.44361	  1	0.90000	  0	 16	 37	 48	  1	
08-May-2013	sub2339	2339	  1	  0	  6	  2	  1	  2	  3	  1	  1	  1	  0	0.46889	  0	0.90000	  0	 12	 40	 41	  1	
08-May-2013	sub2339	2339	  1	  0	  7	  2	  1	  2	  3	  1	  1	  2	  1	0.37946	  1	0.90000	  0	 12	 30	 31	  1	
08-May-2013	sub2339	2339	  1	  0	  8	  2	  1	  2	  3	  1	  1	  2	  1	0.44578	  1	0.90000	  0	 12	 30	 31	  1	
08-May-2013	sub2339	2339	  1	  0	  9	  2	  1	  6	  2	  2	  1	  2	  1	0.42113	  1	0.90000	  0	 16	 35	 36	  1	
08-May-2013	sub2339	2339	  1	  0	 10	  2	  1	  5	  6	  5	  1	  1	  1	0.46582	  1	0.90000	  0	 15	 35	 36	  1	
08-May-2013	sub2339	2339	  1	  0	 11	  2	  1	  3	  1	  6	  1	  1	  1	0.39835	  1	0.90000	  0	 13	 32	 33	  1	
08-May-2013	sub2339	2339	  1	  0	 12	  2	  1	  2	  3	  1	  1	  2	  1	0.57847	  1	0.90000	  0	 12	 30	 31	  0	
08-May-2013	sub2339	2339	  1	  0	 13	  2	  1	  3	  1	  6	  1	  1	  1	0.33027	  1	0.90000	  0	 13	 32	 33	  1	
08-May-2013	sub2339	2339	  1	  0	 14	  2	  1	  6	  2	  2	  0	  2	  0	0.37390	  1	0.90000	  0	 16	 37	 48	  1	
08-May-2013	sub2339	2339	  1	  0	 15	  2	  1	  4	  5	  6	  1	  1	  0	0.36071	  0	0.90000	  0	 14	 42	 43	  1	
08-May-2013	sub2339	2339	  1	  0	 16	  2	  1	  2	  3	  1	  1	  1	  0	0.41043	  0	0.80000	  0	 12	 40	 41	  1	
08-May-2013	sub2339	2339	  1	  0	 17	  2	  1	  3	  1	  6	  1	  2	  0	0.36781	  0	0.80000	  0	 13	 42	 43	  1	
08-May-2013	sub2339	2339	  1	  0	 18	  2	  1	  4	  5	  6	  1	  1	  0	0.22564	  0	0.70000	  0	 14	 42	 43	  1	
08-May-2013	sub2339	2339	  1	  0	 19	  2	  1	  2	  3	  1	  1	  2	  1	0.30018	  1	0.70000	  0	 12	 30	 31	  1	
08-May-2013	sub2339	2339	  1	  0	 20	  2	  1	  3	  1	  6	  1	  2	  0	0.24978	  0	0.70000	  0	 13	 42	 43	  1	
08-May-2013	sub2339	2339	  1	  0	 21	  2	  1	  2	  3	  1	  1	  2	  1	0.57527	  1	0.60000	  0	 12	 30	 31	  0	
08-May-2013	sub2339	2339	  1	  0	 22	  2	  1	  4	  5	  6	  1	  2	  1	0.38095	  1	0.60000	  0	 14	 32	 33	  1	
08-May-2013	sub2339	2339	  1	  0	 23	  2	  1	  6	  2	  2	  0	  2	  0	0.31113	  1	0.60000	  0	 16	 37	 48	  1	
08-May-2013	sub2339	2339	  1	  0	 24	  2	  1	  1	  4	  6	  1	  1	  1	0.26297	  1	0.60000	  0	 11	 30	 31	  1	
08-May-2013	sub2339	2339	  1	  0	 25	  2	  1	  2	  3	  1	  1	  1	  0	0.34130	  0	0.60000	  0	 12	 40	 41	  1	
08-May-2013	sub2339	2339	  1	  0	 26	  2	  1	  6	  2	  2	  1	  2	  1	0.35673	  1	0.50000	  0	 16	 35	 36	  1	
08-May-2013	sub2339	2339	  1	  0	 27	  2	  1	  4	  5	  6	  0	  1	  1	0.41936	  0	0.50000	  0	 14	 44	 39	  1	
08-May-2013	sub2339	2339	  1	  0	 28	  2	  1	  5	  6	  5	  0	  1	  0	0.39260	  1	0.50000	  0	 15	 37	 48	  1	
08-May-2013	sub2339	2339	  1	  0	 29	  2	  1	  5	  6	  5	  1	  2	  0	0.30253	  0	0.50000	  0	 15	 45	 46	  1	
08-May-2013	sub2339	2339	  1	  0	 30	  2	  1	  1	  4	  6	  1	  1	  1	0.28812	  1	0.50000	  0	 11	 30	 31	  1	
08-May-2013	sub2339	2339	  1	  0	 31	  2	  1	  4	  5	  6	  0	  1	  1	0.27468	  0	0.50000	  0	 14	 44	 39	  1	
08-May-2013	sub2339	2339	  1	  0	 32	  2	  1	  6	  2	  2	  1	  1	  0	0.41410	  0	0.50000	  0	 16	 45	 46	  1	
08-May-2013	sub2339	2339	  1	  0	 33	  2	  1	  1	  4	  6	  1	  2	  0	0.31842	  0	0.50000	  0	 11	 40	 41	  1	
08-May-2013	sub2339	2339	  1	  0	 34	  2	  1	  2	  3	  1	  1	  1	  0	0.29467	  0	0.50000	  0	 12	 40	 41	  1	
08-May-2013	sub2339	2339	  1	  0	 35	  2	  1	  4	  5	  6	  1	  2	  1	0.27899	  1	0.40000	  0	 14	 32	 33	  1	
08-May-2013	sub2339	2339	  1	  0	 36	  2	  1	  1	  4	  6	  1	  2	  0	0.41313	  0	0.40000	  1	 11	 40	 51	  1	
08-May-2013	sub2339	2339	  1	  0	 37	  2	  1	  1	  4	  6	  1	  1	  1	0.28384	  1	0.70000	  0	 11	 30	 31	  1	
08-May-2013	sub2339	2339	  1	  0	 38	  2	  1	  5	  6	  5	  0	  1	  0	0.25483	  1	0.70000	  0	 15	 37	 48	  1	
08-May-2013	sub2339	2339	  1	  0	 39	  2	  1	  1	  4	  6	  1	  2	  0	0.27516	  0	0.70000	  0	 11	 40	 41	  1	
08-May-2013	sub2339	2339	  1	  0	 40	  2	  1	  6	  2	  2	  0	  1	  1	0.28392	  0	0.70000	  0	 16	 47	 38	  1	
08-May-2013	sub2339	2339	  1	  0	 41	  2	  1	  5	  6	  5	  1	  1	  1	0.33819	  1	0.60000	  0	 15	 35	 36	  1	
08-May-2013	sub2339	2339	  1	  0	 42	  2	  1	  2	  3	  1	  1	  1	  0	0.48072	  0	0.60000	  0	 12	 40	 41	  1	
08-May-2013	sub2339	2339	  1	  0	 43	  2	  1	  5	  6	  5	  0	  2	  1	0.30690	  0	0.60000	  0	 15	 47	 38	  1	
08-May-2013	sub2339	2339	  1	  0	 44	  2	  1	  3	  1	  6	  0	  1	  0	0.29318	  1	0.60000	  0	 13	 34	 49	  1	
08-May-2013	sub2339	2339	  1	  0	 45	  2	  1	  4	  5	  6	  1	  2	  1	0.38591	  1	0.60000	  0	 14	 32	 33	  1	
08-May-2013	sub2339	2339	  1	  0	 46	  2	  1	  1	  4	  6	  1	  2	  0	0.37164	  0	0.60000	  0	 11	 40	 41	  1	
08-May-2013	sub2339	2339	  1	  0	 47	  2	  1	  2	  3	  1	  1	  1	  0	0.27281	  0	0.60000	  0	 12	 40	 41	  1	
08-May-2013	sub2339	2339	  1	  0	 48	  2	  1	  3	  1	  6	  1	  2	  0	0.33707	  0	0.60000	  0	 13	 42	 43	  1	
08-May-2013	sub2339	2339	  1	  0	 49	  2	  1	  3	  1	  6	  0	  1	  0	0.23077	  1	0.60000	  0	 13	 34	 49	  1	
08-May-2013	sub2339	2339	  1	  0	 50	  2	  1	  5	  6	  5	  1	  1	  1	0.32464	  1	0.60000	  0	 15	 35	 36	  1	
08-May-2013	sub2339	2339	  1	  0	 51	  2	  1	  6	  2	  2	  1	  1	  0	0.45364	  0	0.50000	  0	 16	 45	 46	  1	
08-May-2013	sub2339	2339	  1	  0	 52	  2	  1	  3	  1	  6	  1	  1	  1	0.57732	  1	0.50000	  1	 13	 32	 51	  0	
08-May-2013	sub2339	2339	  1	  0	 53	  2	  1	  5	  6	  5	  0	  2	  1	0.29775	  0	0.70000	  0	 15	 47	 38	  1	
08-May-2013	sub2339	2339	  1	  0	 54	  2	  1	  6	  2	  2	  0	  2	  0	0.37365	  1	0.70000	  0	 16	 37	 48	  1	
08-May-2013	sub2339	2339	  1	  0	 55	  2	  1	  6	  2	  2	  1	  1	  0	0.37300	  0	0.70000	  0	 16	 45	 46	  1	
08-May-2013	sub2339	2339	  1	  0	 56	  2	  1	  5	  6	  5	  1	  1	  1	0.42817	  1	0.70000	  0	 15	 35	 36	  1	
08-May-2013	sub2339	2339	  1	  0	 57	  2	  1	  3	  1	  6	  1	  1	  1	0.41532	  1	0.70000	  0	 13	 32	 33	  1	
08-May-2013	sub2339	2339	  1	  0	 58	  2	  1	  4	  5	  6	  1	  1	  0	0.35859	  0	0.70000	  0	 14	 42	 43	  1	
08-May-2013	sub2339	2339	  1	  0	 59	  2	  1	  2	  3	  1	  1	  1	  0	0.30559	  0	0.70000	  0	 12	 40	 41	  1	
08-May-2013	sub2339	2339	  1	  0	 60	  2	  1	  2	  3	  1	  1	  2	  1	0.35975	  1	0.70000	  0	 12	 30	 31	  1	
08-May-2013	sub2339	2339	  1	  0	 61	  2	  1	  6	  2	  2	  1	  2	  1	0.52488	  1	0.60000	  0	 16	 35	 36	  0	
08-May-2013	sub2339	2339	  1	  0	 62	  2	  1	  5	  6	  5	  0	  2	  1	0.36664	  0	0.60000	  0	 15	 47	 38	  1	
08-May-2013	sub2339	2339	  1	  0	 63	  2	  1	  4	  5	  6	  1	  2	  1	0.33752	  1	0.60000	  0	 14	 32	 33	  1	
08-May-2013	sub2339	2339	  1	  0	 64	  2	  1	  4	  5	  6	  1	  2	  1	0.33842	  1	0.60000	  0	 14	 32	 33	  1	
08-May-2013	sub2339	2339	  1	  0	 65	  2	  1	  3	  1	  6	  1	  2	  0	0.32366	  0	0.60000	  0	 13	 42	 43	  1	
08-May-2013	sub2339	2339	  1	  0	 66	  2	  1	  3	  1	  6	  1	  1	  1	0.27495	  1	0.60000	  0	 13	 32	 33	  1	
08-May-2013	sub2339	2339	  1	  0	 67	  2	  1	  3	  1	  6	  1	  1	  1	0.34283	  1	0.60000	  0	 13	 32	 33	  1	
08-May-2013	sub2339	2339	  1	  0	 68	  2	  1	  5	  6	  5	  1	  2	  0	0.42509	  0	0.60000	  0	 15	 45	 46	  1	
08-May-2013	sub2339	2339	  1	  0	 69	  2	  1	  6	  2	  2	  1	  1	  0	0.25918	  0	0.60000	  0	 16	 45	 46	  1	
08-May-2013	sub2339	2339	  1	  0	 70	  2	  1	  4	  5	  6	  1	  2	  1	0.31915	  1	0.60000	  0	 14	 32	 33	  1	
08-May-2013	sub2339	2339	  1	  0	 71	  2	  1	  5	  6	  5	  0	  2	  1	0.35119	  0	0.60000	  0	 15	 47	 38	  1	
08-May-2013	sub2339	2339	  1	  0	 72	  2	  1	  1	  4	  6	  1	  2	  0	0.33289	  0	0.60000	  0	 11	 40	 41	  1	
08-May-2013	sub2339	2339	  1	  0	 73	  2	  1	  1	  4	  6	  1	  1	  1	0.26815	  1	0.60000	  0	 11	 30	 31	  1	
08-May-2013	sub2339	2339	  1	  0	 74	  2	  1	  6	  2	  2	  0	  1	  1	0.39664	  0	0.60000	  0	 16	 47	 38	  1	
08-May-2013	sub2339	2339	  1	  0	 75	  2	  1	  1	  4	  6	  1	  1	  1	0.35134	  1	0.60000	  0	 11	 30	 31	  1	
08-May-2013	sub2339	2339	  1	  0	 76	  2	  2	  1	  4	  6	  1	  1	  1	0.37919	  1	0.50000	  0	 21	 60	 61	  1	
08-May-2013	sub2339	2339	  1	  0	 77	  2	  2	  4	  5	  6	  1	  1	  0	0.42998	  0	0.50000	  0	 24	 82	 83	  1	
08-May-2013	sub2339	2339	  1	  0	 78	  2	  2	  1	  4	  6	  1	  2	  0	0.28148	  0	0.50000	  0	 21	 80	 81	  1	
08-May-2013	sub2339	2339	  1	  0	 79	  2	  2	  3	  1	  6	  1	  1	  1	0.25764	  1	0.50000	  0	 23	 62	 63	  1	
08-May-2013	sub2339	2339	  1	  0	 80	  2	  2	  4	  5	  6	  1	  1	  0	0.39815	  0	0.50000	  0	 24	 82	 83	  1	
08-May-2013	sub2339	2339	  1	  0	 81	  2	  2	  5	  6	  5	  0	  2	  1	0.29883	  0	0.50000	  0	 25	 87	 68	  1	
08-May-2013	sub2339	2339	  1	  0	 82	  2	  2	  3	  1	  6	  0	  2	  1	0.33222	  0	0.50000	  0	 23	 84	 69	  1	
08-May-2013	sub2339	2339	  1	  0	 83	  2	  2	  4	  5	  6	  1	  2	  1	0.38315	  1	0.50000	  0	 24	 62	 63	  1	
08-May-2013	sub2339	2339	  1	  0	 84	  2	  2	  5	  6	  5	  0	  2	  1	0.29469	  0	0.50000	  0	 25	 87	 68	  1	
08-May-2013	sub2339	2339	  1	  0	 85	  2	  2	  1	  4	  6	  1	  2	  0	0.34865	  0	0.50000	  0	 21	 80	 81	  1	
08-May-2013	sub2339	2339	  1	  0	 86	  2	  2	  4	  5	  6	  0	  1	  1	0.28953	  0	0.50000	  0	 24	 84	 69	  1	
08-May-2013	sub2339	2339	  1	  0	 87	  2	  2	  1	  4	  6	  1	  1	  1	0.23439	  1	0.50000	  0	 21	 60	 61	  1	
08-May-2013	sub2339	2339	  1	  0	 88	  2	  2	  3	  1	  6	  1	  1	  1	0.29426	  1	0.50000	  0	 23	 62	 63	  1	
08-May-2013	sub2339	2339	  1	  0	 89	  2	  2	  4	  5	  6	  0	  1	  1	0.31930	  0	0.50000	  0	 24	 84	 69	  1	
08-May-2013	sub2339	2339	  1	  0	 90	  2	  2	  2	  3	  1	  1	  1	  0	0.36861	  0	0.50000	  0	 22	 80	 81	  1	
08-May-2013	sub2339	2339	  1	  0	 91	  2	  2	  1	  4	  6	  1	  2	  0	0.31517	  0	0.50000	  0	 21	 80	 81	  1	
08-May-2013	sub2339	2339	  1	  0	 92	  2	  2	  5	  6	  5	  0	  1	  0	0.26927	  1	0.50000	  0	 25	 67	 88	  1	
08-May-2013	sub2339	2339	  1	  0	 93	  2	  2	  4	  5	  6	  1	  2	  1	0.33121	  1	0.50000	  0	 24	 62	 63	  1	
08-May-2013	sub2339	2339	  1	  0	 94	  2	  2	  5	  6	  5	  0	  2	  1	0.31847	  0	0.50000	  0	 25	 87	 68	  1	
08-May-2013	sub2339	2339	  1	  0	 95	  2	  2	  4	  5	  6	  1	  2	  1	0.39204	  1	0.50000	  0	 24	 62	 63	  1	
08-May-2013	sub2339	2339	  1	  0	 96	  2	  2	  5	  6	  5	  0	  2	  1	0.31751	  0	0.50000	  0	 25	 87	 68	  1	
08-May-2013	sub2339	2339	  1	  0	 97	  2	  2	  6	  2	  2	  0	  2	  0	0.37201	  1	0.50000	  0	 26	 67	 88	  1	
08-May-2013	sub2339	2339	  1	  0	 98	  2	  2	  2	  3	  1	  1	  1	  0	0.33447	  0	0.50000	  0	 22	 80	 81	  1	
08-May-2013	sub2339	2339	  1	  0	 99	  2	  2	  5	  6	  5	  0	  2	  1	0.36076	  0	0.50000	  0	 25	 87	 68	  1	
08-May-2013	sub2339	2339	  1	  0	100	  2	  2	  6	  2	  2	  1	  2	  1	0.39168	  1	0.50000	  0	 26	 65	 66	  1	
08-May-2013	sub2339	2339	  1	  0	101	  2	  2	  5	  6	  5	  0	  2	  1	0.33305	  0	0.40000	  0	 25	 87	 68	  1	
08-May-2013	sub2339	2339	  1	  0	102	  2	  2	  1	  4	  6	  1	  2	  0	0.35773	  0	0.40000	  0	 21	 80	 81	  1	
08-May-2013	sub2339	2339	  1	  0	103	  2	  2	  1	  4	  6	  1	  1	  1	0.29994	  1	0.40000	  0	 21	 60	 61	  1	
08-May-2013	sub2339	2339	  1	  0	104	  2	  2	  3	  1	  6	  1	  1	  1	0.31726	  1	0.40000	  0	 23	 62	 63	  1	
08-May-2013	sub2339	2339	  1	  0	105	  2	  2	  1	  4	  6	  1	  1	  1	0.34116	  1	0.40000	  0	 21	 60	 61	  1	
08-May-2013	sub2339	2339	  1	  0	106	  2	  2	  3	  1	  6	  0	  1	  0	0.36060	  1	0.40000	  0	 23	 64	 89	  1	
08-May-2013	sub2339	2339	  1	  0	107	  2	  2	  3	  1	  6	  1	  2	  0	0.32090	  0	0.40000	  0	 23	 82	 83	  1	
08-May-2013	sub2339	2339	  1	  0	108	  2	  2	  5	  6	  5	  0	  2	  1	0.53367	  0	0.40000	  1	 25	 87	 51	  0	
08-May-2013	sub2339	2339	  1	  0	109	  2	  2	  4	  5	  6	  0	  2	  0	0.31904	  1	0.50000	  0	 24	 64	 89	  1	
08-May-2013	sub2339	2339	  1	  0	110	  2	  2	  6	  2	  2	  1	  1	  0	0.28313	  0	0.50000	  0	 26	 85	 86	  1	
08-May-2013	sub2339	2339	  1	  0	111	  2	  2	  4	  5	  6	  1	  2	  1	0.25085	  1	0.50000	  0	 24	 62	 63	  1	
08-May-2013	sub2339	2339	  1	  0	112	  2	  2	  1	  4	  6	  1	  2	  0	0.32008	  0	0.50000	  0	 21	 80	 81	  1	
08-May-2013	sub2339	2339	  1	  0	113	  2	  2	  3	  1	  6	  1	  1	  1	0.27377	  1	0.50000	  0	 23	 62	 63	  1	
08-May-2013	sub2339	2339	  1	  0	114	  2	  2	  4	  5	  6	  1	  1	  0	0.25024	  0	0.50000	  0	 24	 82	 83	  1	
08-May-2013	sub2339	2339	  1	  0	115	  2	  2	  5	  6	  5	  0	  2	  1	0.20659	  0	0.50000	  0	 25	 87	 68	  1	
08-May-2013	sub2339	2339	  1	  0	116	  2	  2	  3	  1	  6	  1	  2	  0	0.30991	  0	0.50000	  0	 23	 82	 83	  1	
08-May-2013	sub2339	2339	  1	  0	117	  2	  2	  3	  1	  6	  1	  1	  1	0.33861	  1	0.50000	  0	 23	 62	 63	  1	
08-May-2013	sub2339	2339	  1	  0	118	  2	  2	  1	  4	  6	  1	  1	  1	0.39025	  1	0.50000	  0	 21	 60	 61	  1	
08-May-2013	sub2339	2339	  1	  0	119	  2	  2	  6	  2	  2	  0	  1	  1	0.33661	  0	0.50000	  0	 26	 87	 68	  1	
08-May-2013	sub2339	2339	  1	  0	120	  2	  2	  6	  2	  2	  0	  1	  1	0.34449	  0	0.50000	  0	 26	 87	 68	  1	
08-May-2013	sub2339	2339	  1	  0	121	  2	  2	  2	  3	  1	  1	  1	  0	0.31683	  0	0.50000	  0	 22	 80	 81	  1	
08-May-2013	sub2339	2339	  1	  0	122	  2	  2	  2	  3	  1	  1	  2	  1	0.33277	  1	0.50000	  0	 22	 60	 61	  1	
08-May-2013	sub2339	2339	  1	  0	123	  2	  2	  1	  4	  6	  1	  2	  0	0.39540	  0	0.50000	  0	 21	 80	 81	  1	
08-May-2013	sub2339	2339	  1	  0	124	  2	  2	  2	  3	  1	  1	  1	  0	0.29916	  0	0.50000	  0	 22	 80	 81	  1	
08-May-2013	sub2339	2339	  1	  0	125	  2	  2	  6	  2	  2	  1	  1	  0	0.39694	  0	0.50000	  0	 26	 85	 86	  1	
08-May-2013	sub2339	2339	  1	  0	126	  2	  2	  1	  4	  6	  1	  2	  0	0.24057	  0	0.50000	  0	 21	 80	 81	  1	
08-May-2013	sub2339	2339	  1	  0	127	  2	  2	  4	  5	  6	  1	  1	  0	0.22044	  0	0.50000	  0	 24	 82	 83	  1	
08-May-2013	sub2339	2339	  1	  0	128	  2	  2	  3	  1	  6	  1	  2	  0	0.30158	  0	0.50000	  0	 23	 82	 83	  1	
08-May-2013	sub2339	2339	  1	  0	129	  2	  2	  2	  3	  1	  1	  1	  0	0.23345	  0	0.50000	  0	 22	 80	 81	  1	
08-May-2013	sub2339	2339	  1	  0	130	  2	  2	  2	  3	  1	  1	  1	  0	0.33482	  0	0.50000	  0	 22	 80	 81	  1	
08-May-2013	sub2339	2339	  1	  0	131	  2	  2	  2	  3	  1	  1	  2	  1	0.28248	  1	0.50000	  0	 22	 60	 61	  1	
08-May-2013	sub2339	2339	  1	  0	132	  2	  2	  4	  5	  6	  1	  1	  0	0.41618	  0	0.50000	  0	 24	 82	 83	  1	
08-May-2013	sub2339	2339	  1	  0	133	  2	  2	  3	  1	  6	  1	  2	  0	0.27975	  0	0.50000	  0	 23	 82	 83	  1	
08-May-2013	sub2339	2339	  1	  0	134	  2	  2	  6	  2	  2	  1	  1	  0	0.31405	  0	0.50000	  0	 26	 85	 86	  1	
08-May-2013	sub2339	2339	  1	  0	135	  2	  2	  5	  6	  5	  0	  2	  1	0.29959	  0	0.40000	  0	 25	 87	 68	  1	
08-May-2013	sub2339	2339	  1	  0	136	  2	  2	  2	  3	  1	  1	  2	  1	0.56981	  1	0.40000	  1	 22	 60	 51	  0	
08-May-2013	sub2339	2339	  1	  0	137	  2	  2	  6	  2	  2	  0	  2	  0	0.31061	  1	0.50000	  0	 26	 67	 88	  1	
08-May-2013	sub2339	2339	  1	  0	138	  2	  2	  5	  6	  5	  0	  2	  1	0.26063	  0	0.50000	  0	 25	 87	 68	  1	
08-May-2013	sub2339	2339	  1	  0	139	  2	  2	  1	  4	  6	  1	  2	  0	0.33103	  0	0.50000	  0	 21	 80	 81	  1	
08-May-2013	sub2339	2339	  1	  0	140	  2	  2	  6	  2	  2	  1	  1	  0	0.28464	  0	0.50000	  0	 26	 85	 86	  1	
08-May-2013	sub2339	2339	  1	  0	141	  2	  2	  2	  3	  1	  1	  2	  1	0.19273	  1	0.50000	  0	 22	 60	 61	  1	
08-May-2013	sub2339	2339	  1	  0	142	  2	  2	  5	  6	  5	  0	  2	  1	0.27336	  0	0.50000	  0	 25	 87	 68	  1	
08-May-2013	sub2339	2339	  1	  0	143	  2	  2	  6	  2	  2	  0	  2	  0	0.24527	  1	0.50000	  0	 26	 67	 88	  1	
08-May-2013	sub2339	2339	  1	  0	144	  2	  2	  2	  3	  1	  1	  2	  1	0.29639	  1	0.50000	  0	 22	 60	 61	  1	
08-May-2013	sub2339	2339	  1	  0	145	  2	  2	  3	  1	  6	  1	  1	  1	0.51211	  1	0.50000	  1	 23	 62	 51	  0	
08-May-2013	sub2339	2339	  1	  0	146	  2	  2	  2	  3	  1	  1	  2	  1	0.40344	  1	0.60000	  0	 22	 60	 61	  1	
08-May-2013	sub2339	2339	  1	  0	147	  2	  2	  6	  2	  2	  0	  1	  1	0.21063	  0	0.60000	  0	 26	 87	 68	  1	
08-May-2013	sub2339	2339	  1	  0	148	  2	  2	  5	  6	  5	  0	  2	  1	0.24980	  0	0.60000	  0	 25	 87	 68	  1	
08-May-2013	sub2339	2339	  1	  0	149	  2	  2	  6	  2	  2	  1	  1	  0	0.27162	  0	0.60000	  0	 26	 85	 86	  1	
08-May-2013	sub2339	2339	  1	  0	150	  2	  2	  4	  5	  6	  1	  2	  1	0.28782	  1	0.60000	  0	 24	 62	 63	  1	
08-May-2013	sub2339	2339	  1	  0	  1	  3	  1	  4	  1	  2	  1	  1	  0	0.35527	  0	0.60000	  0	 14	 42	 43	  1	
08-May-2013	sub2339	2339	  1	  0	  2	  3	  1	  6	  5	  3	  1	  2	  1	0.39832	  1	0.30000	  1	 16	 35	 51	  1	
08-May-2013	sub2339	2339	  1	  0	  3	  3	  1	  2	  2	  3	  1	  2	  1	0.34177	  1	0.90000	  0	 12	 30	 31	  1	
08-May-2013	sub2339	2339	  1	  0	  4	  3	  1	  3	  4	  3	  1	  2	  0	0.34584	  0	0.90000	  0	 13	 42	 43	  1	
08-May-2013	sub2339	2339	  1	  0	  5	  3	  1	  5	  6	  4	  0	  2	  1	0.32855	  0	0.90000	  0	 15	 47	 38	  1	
08-May-2013	sub2339	2339	  1	  0	  6	  3	  1	  6	  5	  3	  1	  2	  1	0.36247	  1	0.90000	  0	 16	 35	 36	  1	
08-May-2013	sub2339	2339	  1	  0	  7	  3	  1	  3	  4	  3	  1	  2	  0	0.32829	  0	0.90000	  0	 13	 42	 43	  1	
08-May-2013	sub2339	2339	  1	  0	  8	  3	  1	  4	  1	  2	  1	  2	  1	0.35979	  1	0.90000	  0	 14	 32	 33	  1	
08-May-2013	sub2339	2339	  1	  0	  9	  3	  1	  4	  1	  2	  1	  2	  1	0.23119	  1	0.90000	  0	 14	 32	 33	  1	
08-May-2013	sub2339	2339	  1	  0	 10	  3	  1	  1	  3	  5	  1	  2	  0	0.29357	  0	0.90000	  0	 11	 40	 41	  1	
08-May-2013	sub2339	2339	  1	  0	 11	  3	  1	  3	  4	  3	  1	  1	  1	0.30974	  1	0.90000	  0	 13	 32	 33	  1	
08-May-2013	sub2339	2339	  1	  0	 12	  3	  1	  3	  4	  3	  1	  1	  1	0.40037	  1	0.90000	  0	 13	 32	 33	  1	
08-May-2013	sub2339	2339	  1	  0	 13	  3	  1	  2	  2	  3	  1	  2	  1	0.53520	  1	0.90000	  0	 12	 30	 31	  0	
08-May-2013	sub2339	2339	  1	  0	 14	  3	  1	  2	  2	  3	  1	  2	  1	0.47087	  1	0.90000	  0	 12	 30	 31	  1	
08-May-2013	sub2339	2339	  1	  0	 15	  3	  1	  5	  6	  4	  0	  2	  1	0.29726	  0	0.90000	  0	 15	 47	 38	  1	
08-May-2013	sub2339	2339	  1	  0	 16	  3	  1	  2	  2	  3	  1	  2	  1	0.36498	  1	0.80000	  0	 12	 30	 31	  1	
08-May-2013	sub2339	2339	  1	  0	 17	  3	  1	  2	  2	  3	  1	  2	  1	0.33278	  1	0.80000	  0	 12	 30	 31	  1	
08-May-2013	sub2339	2339	  1	  0	 18	  3	  1	  5	  6	  4	  0	  2	  1	0.32047	  0	0.70000	  0	 15	 47	 38	  1	
08-May-2013	sub2339	2339	  1	  0	 19	  3	  1	  5	  6	  4	  0	  2	  1	0.28920	  0	0.70000	  0	 15	 47	 38	  1	
08-May-2013	sub2339	2339	  1	  0	 20	  3	  1	  6	  5	  3	  0	  2	  0	0.42227	  1	0.70000	  0	 16	 37	 48	  1	
08-May-2013	sub2339	2339	  1	  0	 21	  3	  1	  1	  3	  5	  1	  1	  1	0.36479	  1	0.60000	  0	 11	 30	 31	  1	
08-May-2013	sub2339	2339	  1	  0	 22	  3	  1	  6	  5	  3	  1	  2	  1	0.36710	  1	0.60000	  0	 16	 35	 36	  1	
08-May-2013	sub2339	2339	  1	  0	 23	  3	  1	  2	  2	  3	  1	  2	  1	0.37083	  1	0.60000	  0	 12	 30	 31	  1	
08-May-2013	sub2339	2339	  1	  0	 24	  3	  1	  4	  1	  2	  1	  2	  1	0.36485	  1	0.60000	  0	 14	 32	 33	  1	
08-May-2013	sub2339	2339	  1	  0	 25	  3	  1	  5	  6	  4	  1	  2	  0	0.39972	  0	0.60000	  0	 15	 45	 46	  1	
08-May-2013	sub2339	2339	  1	  0	 26	  3	  1	  4	  1	  2	  1	  1	  0	0.33894	  0	0.50000	  0	 14	 42	 43	  1	
08-May-2013	sub2339	2339	  1	  0	 27	  3	  1	  5	  6	  4	  1	  2	  0	0.35234	  0	0.50000	  0	 15	 45	 46	  1	
08-May-2013	sub2339	2339	  1	  0	 28	  3	  1	  1	  3	  5	  1	  2	  0	0.30425	  0	0.50000	  0	 11	 40	 41	  1	
08-May-2013	sub2339	2339	  1	  0	 29	  3	  1	  6	  5	  3	  1	  1	  0	0.35148	  0	0.50000	  0	 16	 45	 46	  1	
08-May-2013	sub2339	2339	  1	  0	 30	  3	  1	  4	  1	  2	  1	  2	  1	0.39113	  1	0.50000	  0	 14	 32	 33	  1	
08-May-2013	sub2339	2339	  1	  0	 31	  3	  1	  2	  2	  3	  1	  2	  1	0.32199	  1	0.50000	  0	 12	 30	 31	  1	
08-May-2013	sub2339	2339	  1	  0	 32	  3	  1	  6	  5	  3	  1	  2	  1	0.31954	  1	0.50000	  0	 16	 35	 36	  1	
08-May-2013	sub2339	2339	  1	  0	 33	  3	  1	  1	  3	  5	  1	  2	  0	0.36917	  0	0.50000	  0	 11	 40	 41	  1	
08-May-2013	sub2339	2339	  1	  0	 34	  3	  1	  3	  4	  3	  0	  1	  0	0.37653	  1	0.50000	  0	 13	 34	 49	  1	
08-May-2013	sub2339	2339	  1	  0	 35	  3	  1	  1	  3	  5	  1	  2	  0	0.31636	  0	0.40000	  0	 11	 40	 41	  1	
08-May-2013	sub2339	2339	  1	  0	 36	  3	  1	  1	  3	  5	  1	  1	  1	0.40507	  1	0.40000	  1	 11	 30	 51	  1	
08-May-2013	sub2339	2339	  1	  0	 37	  3	  1	  3	  4	  3	  1	  1	  1	0.29033	  1	0.70000	  0	 13	 32	 33	  1	
08-May-2013	sub2339	2339	  1	  0	 38	  3	  1	  3	  4	  3	  0	  1	  0	0.31430	  1	0.70000	  0	 13	 34	 49	  1	
08-May-2013	sub2339	2339	  1	  0	 39	  3	  1	  5	  6	  4	  1	  2	  0	0.34096	  0	0.70000	  0	 15	 45	 46	  1	
08-May-2013	sub2339	2339	  1	  0	 40	  3	  1	  4	  1	  2	  1	  2	  1	0.33555	  1	0.70000	  0	 14	 32	 33	  1	
08-May-2013	sub2339	2339	  1	  0	 41	  3	  1	  2	  2	  3	  1	  2	  1	0.40836	  1	0.60000	  0	 12	 30	 31	  1	
08-May-2013	sub2339	2339	  1	  0	 42	  3	  1	  1	  3	  5	  1	  2	  0	0.29372	  0	0.60000	  0	 11	 40	 41	  1	
08-May-2013	sub2339	2339	  1	  0	 43	  3	  1	  6	  5	  3	  0	  1	  1	0.29519	  0	0.60000	  0	 16	 47	 38	  1	
08-May-2013	sub2339	2339	  1	  0	 44	  3	  1	  3	  4	  3	  0	  1	  0	0.39846	  1	0.60000	  0	 13	 34	 49	  1	
08-May-2013	sub2339	2339	  1	  0	 45	  3	  1	  6	  5	  3	  0	  2	  0	0.29259	  1	0.60000	  0	 16	 37	 48	  1	
08-May-2013	sub2339	2339	  1	  0	 46	  3	  1	  4	  1	  2	  0	  1	  1	0.31027	  0	0.60000	  0	 14	 44	 39	  1	
08-May-2013	sub2339	2339	  1	  0	 47	  3	  1	  3	  4	  3	  1	  2	  0	0.29615	  0	0.60000	  0	 13	 42	 43	  1	
08-May-2013	sub2339	2339	  1	  0	 48	  3	  1	  4	  1	  2	  1	  1	  0	0.26373	  0	0.60000	  0	 14	 42	 43	  1	
08-May-2013	sub2339	2339	  1	  0	 49	  3	  1	  5	  6	  4	  1	  1	  1	0.36433	  1	0.60000	  0	 15	 35	 36	  1	
08-May-2013	sub2339	2339	  1	  0	 50	  3	  1	  1	  3	  5	  1	  1	  1	0.45605	  1	0.60000	  0	 11	 30	 31	  1	
08-May-2013	sub2339	2339	  1	  0	 51	  3	  1	  6	  5	  3	  0	  1	  1	0.32241	  0	0.50000	  0	 16	 47	 38	  1	
08-May-2013	sub2339	2339	  1	  0	 52	  3	  1	  3	  4	  3	  1	  1	  1	0.28422	  1	0.50000	  0	 13	 32	 33	  1	
08-May-2013	sub2339	2339	  1	  0	 53	  3	  1	  6	  5	  3	  0	  1	  1	0.32273	  0	0.50000	  0	 16	 47	 38	  1	
08-May-2013	sub2339	2339	  1	  0	 54	  3	  1	  5	  6	  4	  0	  1	  0	0.31064	  1	0.50000	  0	 15	 37	 48	  1	
08-May-2013	sub2339	2339	  1	  0	 55	  3	  1	  2	  2	  3	  1	  2	  1	0.30944	  1	0.50000	  0	 12	 30	 31	  1	
08-May-2013	sub2339	2339	  1	  0	 56	  3	  1	  6	  5	  3	  0	  2	  0	0.33775	  1	0.50000	  0	 16	 37	 48	  1	
08-May-2013	sub2339	2339	  1	  0	 57	  3	  1	  1	  3	  5	  1	  2	  0	0.30770	  0	0.50000	  0	 11	 40	 41	  1	
08-May-2013	sub2339	2339	  1	  0	 58	  3	  1	  2	  2	  3	  1	  1	  0	0.24821	  0	0.50000	  0	 12	 40	 41	  1	
08-May-2013	sub2339	2339	  1	  0	 59	  3	  1	  2	  2	  3	  1	  2	  1	0.11015	  1	0.50000	  0	 12	 30	 31	  1	
08-May-2013	sub2339	2339	  1	  0	 60	  3	  1	  5	  6	  4	  0	  2	  1	0.16275	  0	0.50000	  0	 15	 47	 38	  1	
08-May-2013	sub2339	2339	  1	  0	 61	  3	  1	  5	  6	  4	  1	  2	  0	0.30746	  0	0.50000	  0	 15	 45	 46	  1	
08-May-2013	sub2339	2339	  1	  0	 62	  3	  1	  6	  5	  3	  1	  2	  1	0.32639	  1	0.50000	  0	 16	 35	 36	  1	
08-May-2013	sub2339	2339	  1	  0	 63	  3	  1	  4	  1	  2	  1	  2	  1	0.40983	  1	0.50000	  0	 14	 32	 33	  1	
08-May-2013	sub2339	2339	  1	  0	 64	  3	  1	  1	  3	  5	  1	  2	  0	0.30899	  0	0.50000	  0	 11	 40	 41	  1	
08-May-2013	sub2339	2339	  1	  0	 65	  3	  1	  2	  2	  3	  1	  2	  1	0.27552	  1	0.50000	  0	 12	 30	 31	  1	
08-May-2013	sub2339	2339	  1	  0	 66	  3	  1	  4	  1	  2	  0	  2	  0	0.28003	  1	0.50000	  0	 14	 34	 49	  1	
08-May-2013	sub2339	2339	  1	  0	 67	  3	  1	  4	  1	  2	  1	  1	  0	0.29742	  0	0.50000	  0	 14	 42	 43	  1	
08-May-2013	sub2339	2339	  1	  0	 68	  3	  1	  3	  4	  3	  1	  1	  1	0.27489	  1	0.40000	  0	 13	 32	 33	  1	
08-May-2013	sub2339	2339	  1	  0	 69	  3	  1	  2	  2	  3	  1	  1	  0	0.34402	  0	0.40000	  0	 12	 40	 41	  1	
08-May-2013	sub2339	2339	  1	  0	 70	  3	  1	  5	  6	  4	  1	  2	  0	0.27740	  0	0.40000	  0	 15	 45	 46	  1	
08-May-2013	sub2339	2339	  1	  0	 71	  3	  1	  3	  4	  3	  1	  2	  0	0.29948	  0	0.40000	  0	 13	 42	 43	  1	
08-May-2013	sub2339	2339	  1	  0	 72	  3	  1	  1	  3	  5	  1	  1	  1	0.28421	  1	0.40000	  0	 11	 30	 31	  1	
08-May-2013	sub2339	2339	  1	  0	 73	  3	  1	  3	  4	  3	  1	  1	  1	0.26320	  1	0.40000	  0	 13	 32	 33	  1	
08-May-2013	sub2339	2339	  1	  0	 74	  3	  1	  1	  3	  5	  1	  1	  1	0.16403	  1	0.40000	  0	 11	 30	 31	  1	
08-May-2013	sub2339	2339	  1	  0	 75	  3	  1	  6	  5	  3	  1	  1	  0	0.25223	  0	0.40000	  0	 16	 45	 46	  1	
08-May-2013	sub2339	2339	  1	  0	 76	  3	  2	  4	  1	  2	  0	  1	  1	0.32495	  0	0.40000	  0	 24	 84	 69	  1	
08-May-2013	sub2339	2339	  1	  0	 77	  3	  2	  2	  2	  3	  1	  1	  0	0.35243	  0	0.40000	  0	 22	 80	 81	  1	
08-May-2013	sub2339	2339	  1	  0	 78	  3	  2	  1	  3	  5	  1	  1	  1	0.27461	  1	0.40000	  0	 21	 60	 61	  1	
08-May-2013	sub2339	2339	  1	  0	 79	  3	  2	  1	  3	  5	  1	  2	  0	0.32778	  0	0.40000	  0	 21	 80	 81	  1	
08-May-2013	sub2339	2339	  1	  0	 80	  3	  2	  1	  3	  5	  1	  1	  1	0.16019	  1	0.40000	  0	 21	 60	 61	  1	
08-May-2013	sub2339	2339	  1	  0	 81	  3	  2	  4	  1	  2	  1	  1	  0	0.31234	  0	0.40000	  0	 24	 82	 83	  1	
08-May-2013	sub2339	2339	  1	  0	 82	  3	  2	  6	  5	  3	  0	  2	  0	0.24747	  1	0.40000	  0	 26	 67	 88	  1	
08-May-2013	sub2339	2339	  1	  0	 83	  3	  2	  3	  4	  3	  1	  1	  1	0.25668	  1	0.40000	  0	 23	 62	 63	  1	
08-May-2013	sub2339	2339	  1	  0	 84	  3	  2	  1	  3	  5	  1	  1	  1	0.29333	  1	0.40000	  0	 21	 60	 61	  1	
08-May-2013	sub2339	2339	  1	  0	 85	  3	  2	  5	  6	  4	  0	  1	  0	0.31213	  1	0.40000	  0	 25	 67	 88	  1	
08-May-2013	sub2339	2339	  1	  0	 86	  3	  2	  6	  5	  3	  1	  2	  1	0.31581	  1	0.40000	  0	 26	 65	 66	  1	
08-May-2013	sub2339	2339	  1	  0	 87	  3	  2	  2	  2	  3	  1	  2	  1	0.33493	  1	0.40000	  0	 22	 60	 61	  1	
08-May-2013	sub2339	2339	  1	  0	 88	  3	  2	  6	  5	  3	  0	  2	  0	0.29519	  1	0.40000	  0	 26	 67	 88	  1	
08-May-2013	sub2339	2339	  1	  0	 89	  3	  2	  1	  3	  5	  1	  2	  0	0.28449	  0	0.40000	  0	 21	 80	 81	  1	
08-May-2013	sub2339	2339	  1	  0	 90	  3	  2	  3	  4	  3	  1	  1	  1	0.22482	  1	0.40000	  0	 23	 62	 63	  1	
08-May-2013	sub2339	2339	  1	  0	 91	  3	  2	  5	  6	  4	  0	  1	  0	0.26756	  1	0.40000	  0	 25	 67	 88	  1	
08-May-2013	sub2339	2339	  1	  0	 92	  3	  2	  1	  3	  5	  1	  1	  1	0.32447	  1	0.40000	  0	 21	 60	 61	  1	
08-May-2013	sub2339	2339	  1	  0	 93	  3	  2	  5	  6	  4	  0	  2	  1	0.26070	  0	0.40000	  0	 25	 87	 68	  1	
08-May-2013	sub2339	2339	  1	  0	 94	  3	  2	  6	  5	  3	  1	  2	  1	0.38107	  1	0.40000	  0	 26	 65	 66	  1	
08-May-2013	sub2339	2339	  1	  0	 95	  3	  2	  4	  1	  2	  1	  2	  1	0.32924	  1	0.40000	  0	 24	 62	 63	  1	
08-May-2013	sub2339	2339	  1	  0	 96	  3	  2	  5	  6	  4	  0	  2	  1	0.29109	  0	0.40000	  0	 25	 87	 68	  1	
08-May-2013	sub2339	2339	  1	  0	 97	  3	  2	  3	  4	  3	  1	  2	  0	0.34992	  0	0.40000	  0	 23	 82	 83	  1	
08-May-2013	sub2339	2339	  1	  0	 98	  3	  2	  6	  5	  3	  1	  1	  0	0.34053	  0	0.40000	  0	 26	 85	 86	  1	
08-May-2013	sub2339	2339	  1	  0	 99	  3	  2	  2	  2	  3	  1	  2	  1	0.35557	  1	0.40000	  0	 22	 60	 61	  1	
08-May-2013	sub2339	2339	  1	  0	100	  3	  2	  3	  4	  3	  1	  2	  0	0.36277	  0	0.40000	  0	 23	 82	 83	  1	
08-May-2013	sub2339	2339	  1	  0	101	  3	  2	  2	  2	  3	  1	  1	  0	0.44227	  0	0.30000	  1	 22	 80	 51	  1	
08-May-2013	sub2339	2339	  1	  0	102	  3	  2	  1	  3	  5	  1	  2	  0	0.33098	  0	0.40000	  0	 21	 80	 81	  1	
08-May-2013	sub2339	2339	  1	  0	103	  3	  2	  1	  3	  5	  1	  1	  1	0.29551	  1	0.40000	  0	 21	 60	 61	  1	
08-May-2013	sub2339	2339	  1	  0	104	  3	  2	  2	  2	  3	  1	  1	  0	0.28666	  0	0.40000	  0	 22	 80	 81	  1	
08-May-2013	sub2339	2339	  1	  0	105	  3	  2	  4	  1	  2	  1	  2	  1	0.36522	  1	0.40000	  0	 24	 62	 63	  1	
08-May-2013	sub2339	2339	  1	  0	106	  3	  2	  1	  3	  5	  1	  2	  0	0.27197	  0	0.40000	  0	 21	 80	 81	  1	
08-May-2013	sub2339	2339	  1	  0	107	  3	  2	  6	  5	  3	  0	  1	  1	0.31754	  0	0.40000	  0	 26	 87	 68	  1	
08-May-2013	sub2339	2339	  1	  0	108	  3	  2	  5	  6	  4	  0	  1	  0	0.32772	  1	0.40000	  0	 25	 67	 88	  1	
08-May-2013	sub2339	2339	  1	  0	109	  3	  2	  1	  3	  5	  1	  2	  0	0.35949	  0	0.40000	  0	 21	 80	 81	  1	
08-May-2013	sub2339	2339	  1	  0	110	  3	  2	  2	  2	  3	  1	  1	  0	0.28012	  0	0.40000	  0	 22	 80	 81	  1	
08-May-2013	sub2339	2339	  1	  0	111	  3	  2	  5	  6	  4	  0	  2	  1	0.34336	  0	0.40000	  0	 25	 87	 68	  1	
08-May-2013	sub2339	2339	  1	  0	112	  3	  2	  4	  1	  2	  1	  2	  1	0.35196	  1	0.40000	  0	 24	 62	 63	  1	
08-May-2013	sub2339	2339	  1	  0	113	  3	  2	  4	  1	  2	  0	  2	  0	0.32316	  1	0.40000	  0	 24	 64	 89	  1	
08-May-2013	sub2339	2339	  1	  0	114	  3	  2	  5	  6	  4	  0	  2	  1	0.44123	  0	0.40000	  1	 25	 87	 51	  1	
08-May-2013	sub2339	2339	  1	  0	115	  3	  2	  4	  1	  2	  1	  2	  1	0.38049	  1	0.50000	  0	 24	 62	 63	  1	
08-May-2013	sub2339	2339	  1	  0	116	  3	  2	  4	  1	  2	  1	  2	  1	0.34338	  1	0.50000	  0	 24	 62	 63	  1	
08-May-2013	sub2339	2339	  1	  0	117	  3	  2	  3	  4	  3	  1	  2	  0	0.27028	  0	0.50000	  0	 23	 82	 83	  1	
08-May-2013	sub2339	2339	  1	  0	118	  3	  2	  2	  2	  3	  1	  1	  0	0.43412	  0	0.50000	  0	 22	 80	 81	  1	
08-May-2013	sub2339	2339	  1	  0	119	  3	  2	  3	  4	  3	  1	  2	  0	0.23478	  0	0.50000	  0	 23	 82	 83	  1	
08-May-2013	sub2339	2339	  1	  0	120	  3	  2	  5	  6	  4	  0	  2	  1	0.30846	  0	0.50000	  0	 25	 87	 68	  1	
08-May-2013	sub2339	2339	  1	  0	121	  3	  2	  3	  4	  3	  1	  2	  0	0.38488	  0	0.50000	  0	 23	 82	 83	  1	
08-May-2013	sub2339	2339	  1	  0	122	  3	  2	  5	  6	  4	  0	  2	  1	0.39379	  0	0.50000	  0	 25	 87	 68	  1	
08-May-2013	sub2339	2339	  1	  0	123	  3	  2	  6	  5	  3	  0	  1	  1	0.28886	  0	0.50000	  0	 26	 87	 68	  1	
08-May-2013	sub2339	2339	  1	  0	124	  3	  2	  5	  6	  4	  0	  1	  0	0.33203	  1	0.50000	  0	 25	 67	 88	  1	
08-May-2013	sub2339	2339	  1	  0	125	  3	  2	  2	  2	  3	  1	  1	  0	0.34407	  0	0.50000	  0	 22	 80	 81	  1	
08-May-2013	sub2339	2339	  1	  0	126	  3	  2	  4	  1	  2	  0	  2	  0	0.18174	  1	0.50000	  0	 24	 64	 89	  1	
08-May-2013	sub2339	2339	  1	  0	127	  3	  2	  3	  4	  3	  1	  2	  0	0.29788	  0	0.50000	  0	 23	 82	 83	  1	
08-May-2013	sub2339	2339	  1	  0	128	  3	  2	  2	  2	  3	  1	  2	  1	0.26574	  1	0.50000	  0	 22	 60	 61	  1	
08-May-2013	sub2339	2339	  1	  0	129	  3	  2	  5	  6	  4	  0	  2	  1	0.33453	  0	0.50000	  0	 25	 87	 68	  1	
08-May-2013	sub2339	2339	  1	  0	130	  3	  2	  2	  2	  3	  1	  2	  1	0.33772	  1	0.50000	  0	 22	 60	 61	  1	
08-May-2013	sub2339	2339	  1	  0	131	  3	  2	  6	  5	  3	  1	  2	  1	0.34397	  1	0.50000	  0	 26	 65	 66	  1	
08-May-2013	sub2339	2339	  1	  0	132	  3	  2	  6	  5	  3	  1	  2	  1	0.28030	  1	0.50000	  0	 26	 65	 66	  1	
08-May-2013	sub2339	2339	  1	  0	133	  3	  2	  2	  2	  3	  1	  2	  1	0.31532	  1	0.50000	  0	 22	 60	 61	  1	
08-May-2013	sub2339	2339	  1	  0	134	  3	  2	  4	  1	  2	  1	  2	  1	0.30798	  1	0.50000	  0	 24	 62	 63	  1	
08-May-2013	sub2339	2339	  1	  0	135	  3	  2	  3	  4	  3	  1	  2	  0	0.29416	  0	0.40000	  0	 23	 82	 83	  1	
08-May-2013	sub2339	2339	  1	  0	136	  3	  2	  6	  5	  3	  1	  1	  0	0.27201	  0	0.40000	  0	 26	 85	 86	  1	
08-May-2013	sub2339	2339	  1	  0	137	  3	  2	  3	  4	  3	  0	  2	  1	0.27130	  0	0.40000	  0	 23	 84	 69	  1	
08-May-2013	sub2339	2339	  1	  0	138	  3	  2	  5	  6	  4	  0	  2	  1	0.30783	  0	0.40000	  0	 25	 87	 68	  1	
08-May-2013	sub2339	2339	  1	  0	139	  3	  2	  1	  3	  5	  1	  2	  0	0.36489	  0	0.40000	  0	 21	 80	 81	  1	
08-May-2013	sub2339	2339	  1	  0	140	  3	  2	  3	  4	  3	  0	  1	  0	0.29267	  1	0.40000	  0	 23	 64	 89	  1	
08-May-2013	sub2339	2339	  1	  0	141	  3	  2	  6	  5	  3	  0	  1	  1	0.46699	  0	0.40000	  1	 26	 87	 51	  1	
08-May-2013	sub2339	2339	  1	  0	142	  3	  2	  1	  3	  5	  1	  2	  0	0.36258	  0	0.50000	  0	 21	 80	 81	  1	
08-May-2013	sub2339	2339	  1	  0	143	  3	  2	  3	  4	  3	  1	  1	  1	0.16104	  1	0.50000	  0	 23	 62	 63	  1	
08-May-2013	sub2339	2339	  1	  0	144	  3	  2	  5	  6	  4	  0	  1	  0	0.29246	  1	0.50000	  0	 25	 67	 88	  1	
08-May-2013	sub2339	2339	  1	  0	145	  3	  2	  4	  1	  2	  1	  2	  1	0.29209	  1	0.50000	  0	 24	 62	 63	  1	
08-May-2013	sub2339	2339	  1	  0	146	  3	  2	  4	  1	  2	  1	  2	  1	0.35000	  1	0.50000	  0	 24	 62	 63	  1	
08-May-2013	sub2339	2339	  1	  0	147	  3	  2	  4	  1	  2	  1	  2	  1	0.40800	  1	0.50000	  0	 24	 62	 63	  1	
08-May-2013	sub2339	2339	  1	  0	148	  3	  2	  1	  3	  5	  1	  2	  0	0.41455	  0	0.50000	  0	 21	 80	 81	  1	
08-May-2013	sub2339	2339	  1	  0	149	  3	  2	  6	  5	  3	  0	  1	  1	0.26433	  0	0.50000	  0	 26	 87	 68	  1	
08-May-2013	sub2339	2339	  1	  0	150	  3	  2	  2	  2	  3	  1	  1	  0	0.36373	  0	0.50000	  0	 22	 80	 81	  1	
08-May-2013	sub2339	2339	  1	  0	  1	  4	  1	  5	  6	  3	  0	  2	  1	0.20242	  0	0.60000	  0	 15	 47	 38	  1	
08-May-2013	sub2339	2339	  1	  0	  2	  4	  1	  1	  4	  5	  1	  2	  0	0.25293	  0	0.30000	  0	 11	 40	 41	  1	
08-May-2013	sub2339	2339	  1	  0	  3	  4	  1	  1	  4	  5	  1	  2	  0	0.35092	  0	0.30000	  1	 11	 40	 51	  1	
08-May-2013	sub2339	2339	  1	  0	  4	  4	  1	  3	  5	  5	  1	  1	  1	0.34812	  1	0.90000	  0	 13	 32	 33	  1	
08-May-2013	sub2339	2339	  1	  0	  5	  4	  1	  6	  2	  4	  1	  1	  0	0.33193	  0	0.90000	  0	 16	 45	 46	  1	
08-May-2013	sub2339	2339	  1	  0	  6	  4	  1	  5	  6	  3	  0	  1	  0	0.45208	  1	0.90000	  0	 15	 37	 48	  1	
08-May-2013	sub2339	2339	  1	  0	  7	  4	  1	  2	  3	  3	  1	  1	  0	0.30635	  0	0.90000	  0	 12	 40	 41	  1	
08-May-2013	sub2339	2339	  1	  0	  8	  4	  1	  1	  4	  5	  1	  2	  0	0.30351	  0	0.90000	  0	 11	 40	 41	  1	
08-May-2013	sub2339	2339	  1	  0	  9	  4	  1	  2	  3	  3	  1	  1	  0	0.32282	  0	0.90000	  0	 12	 40	 41	  1	
08-May-2013	sub2339	2339	  1	  0	 10	  4	  1	  6	  2	  4	  0	  2	  0	0.33845	  1	0.90000	  0	 16	 37	 48	  1	
08-May-2013	sub2339	2339	  1	  0	 11	  4	  1	  5	  6	  3	  0	  2	  1	0.24099	  0	0.90000	  0	 15	 47	 38	  1	
08-May-2013	sub2339	2339	  1	  0	 12	  4	  1	  5	  6	  3	  0	  2	  1	0.29329	  0	0.90000	  0	 15	 47	 38	  1	
08-May-2013	sub2339	2339	  1	  0	 13	  4	  1	  5	  6	  3	  1	  2	  0	0.29211	  0	0.90000	  0	 15	 45	 46	  1	
08-May-2013	sub2339	2339	  1	  0	 14	  4	  1	  4	  1	  1	  1	  2	  1	0.33498	  1	0.90000	  0	 14	 32	 33	  1	
08-May-2013	sub2339	2339	  1	  0	 15	  4	  1	  2	  3	  3	  1	  2	  1	0.40492	  1	0.90000	  0	 12	 30	 31	  1	
08-May-2013	sub2339	2339	  1	  0	 16	  4	  1	  1	  4	  5	  1	  1	  1	0.44338	  1	0.80000	  0	 11	 30	 31	  1	
08-May-2013	sub2339	2339	  1	  0	 17	  4	  1	  4	  1	  1	  0	  1	  1	0.29485	  0	0.80000	  0	 14	 44	 39	  1	
08-May-2013	sub2339	2339	  1	  0	 18	  4	  1	  2	  3	  3	  1	  1	  0	0.35236	  0	0.70000	  0	 12	 40	 41	  1	
08-May-2013	sub2339	2339	  1	  0	 19	  4	  1	  3	  5	  5	  1	  2	  0	0.40487	  0	0.70000	  0	 13	 42	 43	  1	
08-May-2013	sub2339	2339	  1	  0	 20	  4	  1	  6	  2	  4	  0	  1	  1	0.29518	  0	0.70000	  0	 16	 47	 38	  1	
08-May-2013	sub2339	2339	  1	  0	 21	  4	  1	  1	  4	  5	  1	  1	  1	0.21361	  1	0.60000	  0	 11	 30	 31	  1	
08-May-2013	sub2339	2339	  1	  0	 22	  4	  1	  2	  3	  3	  1	  1	  0	0.26240	  0	0.60000	  0	 12	 40	 41	  1	
08-May-2013	sub2339	2339	  1	  0	 23	  4	  1	  6	  2	  4	  1	  2	  1	0.23514	  1	0.60000	  0	 16	 35	 36	  1	
08-May-2013	sub2339	2339	  1	  0	 24	  4	  1	  5	  6	  3	  1	  2	  0	0.24788	  0	0.60000	  0	 15	 45	 46	  1	
08-May-2013	sub2339	2339	  1	  0	 25	  4	  1	  2	  3	  3	  1	  1	  0	0.22601	  0	0.60000	  0	 12	 40	 41	  1	
08-May-2013	sub2339	2339	  1	  0	 26	  4	  1	  5	  6	  3	  1	  2	  0	0.23590	  0	0.50000	  0	 15	 45	 46	  1	
08-May-2013	sub2339	2339	  1	  0	 27	  4	  1	  2	  3	  3	  1	  1	  0	0.16285	  0	0.50000	  0	 12	 40	 41	  1	
08-May-2013	sub2339	2339	  1	  0	 28	  4	  1	  4	  1	  1	  1	  2	  1	0.12394	  1	0.50000	  0	 14	 32	 33	  1	
08-May-2013	sub2339	2339	  1	  0	 29	  4	  1	  1	  4	  5	  1	  1	  1	0.21610	  1	0.50000	  0	 11	 30	 31	  1	
08-May-2013	sub2339	2339	  1	  0	 30	  4	  1	  4	  1	  1	  1	  1	  0	0.22794	  0	0.50000	  0	 14	 42	 43	  1	
08-May-2013	sub2339	2339	  1	  0	 31	  4	  1	  2	  3	  3	  1	  2	  1	0.26363	  1	0.50000	  0	 12	 30	 31	  1	
08-May-2013	sub2339	2339	  1	  0	 32	  4	  1	  1	  4	  5	  1	  1	  1	0.16998	  1	0.50000	  0	 11	 30	 31	  1	
08-May-2013	sub2339	2339	  1	  0	 33	  4	  1	  1	  4	  5	  1	  1	  1	0.22695	  1	0.50000	  0	 11	 30	 31	  1	
08-May-2013	sub2339	2339	  1	  0	 34	  4	  1	  5	  6	  3	  0	  1	  0	0.20100	  1	0.50000	  0	 15	 37	 48	  1	
08-May-2013	sub2339	2339	  1	  0	 35	  4	  1	  4	  1	  1	  1	  2	  1	0.28365	  1	0.40000	  0	 14	 32	 33	  1	
08-May-2013	sub2339	2339	  1	  0	 36	  4	  1	  4	  1	  1	  1	  2	  1	0.24115	  1	0.40000	  0	 14	 32	 33	  1	
08-May-2013	sub2339	2339	  1	  0	 37	  4	  1	  3	  5	  5	  0	  2	  1	0.34803	  0	0.40000	  0	 13	 44	 39	  1	
08-May-2013	sub2339	2339	  1	  0	 38	  4	  1	  3	  5	  5	  1	  2	  0	0.28578	  0	0.40000	  0	 13	 42	 43	  1	
08-May-2013	sub2339	2339	  1	  0	 39	  4	  1	  2	  3	  3	  1	  2	  1	0.25320	  1	0.40000	  0	 12	 30	 31	  1	
08-May-2013	sub2339	2339	  1	  0	 40	  4	  1	  3	  5	  5	  0	  2	  1	0.25446	  0	0.40000	  0	 13	 44	 39	  1	
08-May-2013	sub2339	2339	  1	  0	 41	  4	  1	  1	  4	  5	  1	  2	  0	0.25696	  0	0.40000	  0	 11	 40	 41	  1	
08-May-2013	sub2339	2339	  1	  0	 42	  4	  1	  3	  5	  5	  1	  2	  0	0.22571	  0	0.40000	  0	 13	 42	 43	  1	
08-May-2013	sub2339	2339	  1	  0	 43	  4	  1	  2	  3	  3	  1	  1	  0	0.24027	  0	0.40000	  0	 12	 40	 41	  1	
08-May-2013	sub2339	2339	  1	  0	 44	  4	  1	  6	  2	  4	  0	  2	  0	0.40669	  1	0.40000	  1	 16	 37	 51	  1	
08-May-2013	sub2339	2339	  1	  0	 45	  4	  1	  3	  5	  5	  1	  2	  0	0.30558	  0	0.60000	  0	 13	 42	 43	  1	
08-May-2013	sub2339	2339	  1	  0	 46	  4	  1	  3	  5	  5	  1	  2	  0	0.37087	  0	0.60000	  0	 13	 42	 43	  1	
08-May-2013	sub2339	2339	  1	  0	 47	  4	  1	  6	  2	  4	  0	  2	  0	0.00028	  1	0.60000	  0	 16	 37	 48	  1	
08-May-2013	sub2339	2339	  1	  0	 48	  4	  1	  3	  5	  5	  1	  2	  0	0.33826	  0	0.60000	  0	 13	 42	 43	  1	
08-May-2013	sub2339	2339	  1	  0	 49	  4	  1	  1	  4	  5	  1	  2	  0	0.34900	  0	0.60000	  0	 11	 40	 41	  1	
08-May-2013	sub2339	2339	  1	  0	 50	  4	  1	  6	  2	  4	  1	  2	  1	0.27951	  1	0.60000	  0	 16	 35	 36	  1	
08-May-2013	sub2339	2339	  1	  0	 51	  4	  1	  6	  2	  4	  0	  2	  0	0.36482	  1	0.50000	  0	 16	 37	 48	  1	
08-May-2013	sub2339	2339	  1	  0	 52	  4	  1	  2	  3	  3	  1	  2	  1	0.32499	  1	0.50000	  0	 12	 30	 31	  1	
08-May-2013	sub2339	2339	  1	  0	 53	  4	  1	  3	  5	  5	  1	  2	  0	0.44585	  0	0.50000	  0	 13	 42	 43	  1	
08-May-2013	sub2339	2339	  1	  0	 54	  4	  1	  5	  6	  3	  1	  2	  0	0.27207	  0	0.50000	  0	 15	 45	 46	  1	
08-May-2013	sub2339	2339	  1	  0	 55	  4	  1	  3	  5	  5	  1	  1	  1	0.24470	  1	0.50000	  0	 13	 32	 33	  1	
08-May-2013	sub2339	2339	  1	  0	 56	  4	  1	  4	  1	  1	  1	  1	  0	0.21414	  0	0.50000	  0	 14	 42	 43	  1	
08-May-2013	sub2339	2339	  1	  0	 57	  4	  1	  3	  5	  5	  0	  2	  1	0.02135	  0	0.50000	  0	 13	 44	 39	  1	
08-May-2013	sub2339	2339	  1	  0	 58	  4	  1	  1	  4	  5	  1	  1	  1	0.21778	  1	0.50000	  0	 11	 30	 31	  1	
08-May-2013	sub2339	2339	  1	  0	 59	  4	  1	  2	  3	  3	  1	  1	  0	0.37124	  0	0.50000	  0	 12	 40	 41	  1	
08-May-2013	sub2339	2339	  1	  0	 60	  4	  1	  6	  2	  4	  0	  2	  0	0.34193	  1	0.50000	  0	 16	 37	 48	  1	
08-May-2013	sub2339	2339	  1	  0	 61	  4	  1	  4	  1	  1	  0	  1	  1	0.28177	  0	0.50000	  0	 14	 44	 39	  1	
08-May-2013	sub2339	2339	  1	  0	 62	  4	  1	  4	  1	  1	  1	  2	  1	0.31015	  1	0.50000	  0	 14	 32	 33	  1	
08-May-2013	sub2339	2339	  1	  0	 63	  4	  1	  5	  6	  3	  1	  1	  1	0.31531	  1	0.50000	  0	 15	 35	 36	  1	
08-May-2013	sub2339	2339	  1	  0	 64	  4	  1	  6	  2	  4	  1	  2	  1	0.29613	  1	0.50000	  0	 16	 35	 36	  1	
08-May-2013	sub2339	2339	  1	  0	 65	  4	  1	  5	  6	  3	  1	  1	  1	0.30641	  1	0.50000	  0	 15	 35	 36	  1	
08-May-2013	sub2339	2339	  1	  0	 66	  4	  1	  1	  4	  5	  1	  2	  0	0.34149	  0	0.50000	  0	 11	 40	 41	  1	
08-May-2013	sub2339	2339	  1	  0	 67	  4	  1	  2	  3	  3	  1	  1	  0	0.33763	  0	0.50000	  0	 12	 40	 41	  1	
08-May-2013	sub2339	2339	  1	  0	 68	  4	  1	  3	  5	  5	  1	  2	  0	0.25471	  0	0.40000	  0	 13	 42	 43	  1	
08-May-2013	sub2339	2339	  1	  0	 69	  4	  1	  6	  2	  4	  1	  1	  0	0.28587	  0	0.40000	  0	 16	 45	 46	  1	
08-May-2013	sub2339	2339	  1	  0	 70	  4	  1	  6	  2	  4	  1	  2	  1	0.32711	  1	0.40000	  0	 16	 35	 36	  1	
08-May-2013	sub2339	2339	  1	  0	 71	  4	  1	  4	  1	  1	  1	  1	  0	0.22090	  0	0.40000	  0	 14	 42	 43	  1	
08-May-2013	sub2339	2339	  1	  0	 72	  4	  1	  6	  2	  4	  1	  2	  1	0.19842	  1	0.40000	  0	 16	 35	 36	  1	
08-May-2013	sub2339	2339	  1	  0	 73	  4	  1	  4	  1	  1	  1	  1	  0	0.26946	  0	0.40000	  0	 14	 42	 43	  1	
08-May-2013	sub2339	2339	  1	  0	 74	  4	  1	  4	  1	  1	  1	  2	  1	0.31106	  1	0.40000	  0	 14	 32	 33	  1	
08-May-2013	sub2339	2339	  1	  0	 75	  4	  1	  5	  6	  3	  0	  1	  0	0.25520	  1	0.40000	  0	 15	 37	 48	  1	
08-May-2013	sub2339	2339	  1	  0	 76	  4	  2	  5	  6	  3	  0	  2	  1	0.20128	  0	0.40000	  0	 25	 87	 68	  1	
08-May-2013	sub2339	2339	  1	  0	 77	  4	  2	  2	  3	  3	  1	  1	  0	0.40690	  0	0.40000	  1	 22	 80	 51	  1	
08-May-2013	sub2339	2339	  1	  0	 78	  4	  2	  6	  2	  4	  0	  2	  0	0.38240	  1	0.50000	  0	 26	 67	 88	  1	
08-May-2013	sub2339	2339	  1	  0	 79	  4	  2	  6	  2	  4	  1	  1	  0	0.32581	  0	0.50000	  0	 26	 85	 86	  1	
08-May-2013	sub2339	2339	  1	  0	 80	  4	  2	  5	  6	  3	  0	  2	  1	0.27960	  0	0.50000	  0	 25	 87	 68	  1	
08-May-2013	sub2339	2339	  1	  0	 81	  4	  2	  5	  6	  3	  0	  2	  1	0.27281	  0	0.50000	  0	 25	 87	 68	  1	
08-May-2013	sub2339	2339	  1	  0	 82	  4	  2	  3	  5	  5	  0	  2	  1	0.31704	  0	0.50000	  0	 23	 84	 69	  1	
08-May-2013	sub2339	2339	  1	  0	 83	  4	  2	  6	  2	  4	  1	  2	  1	0.33658	  1	0.50000	  0	 26	 65	 66	  1	
08-May-2013	sub2339	2339	  1	  0	 84	  4	  2	  4	  1	  1	  1	  2	  1	0.37754	  1	0.50000	  0	 24	 62	 63	  1	
08-May-2013	sub2339	2339	  1	  0	 85	  4	  2	  2	  3	  3	  1	  2	  1	0.38453	  1	0.50000	  0	 22	 60	 61	  1	
08-May-2013	sub2339	2339	  1	  0	 86	  4	  2	  6	  2	  4	  1	  2	  1	0.34487	  1	0.50000	  0	 26	 65	 66	  1	
08-May-2013	sub2339	2339	  1	  0	 87	  4	  2	  1	  4	  5	  1	  2	  0	0.35272	  0	0.50000	  0	 21	 80	 81	  1	
08-May-2013	sub2339	2339	  1	  0	 88	  4	  2	  4	  1	  1	  0	  2	  0	0.31924	  1	0.50000	  0	 24	 64	 89	  1	
08-May-2013	sub2339	2339	  1	  0	 89	  4	  2	  1	  4	  5	  1	  2	  0	0.32341	  0	0.50000	  0	 21	 80	 81	  1	
08-May-2013	sub2339	2339	  1	  0	 90	  4	  2	  5	  6	  3	  0	  1	  0	0.01741	  1	0.50000	  0	 25	 67	 88	  1	
08-May-2013	sub2339	2339	  1	  0	 91	  4	  2	  3	  5	  5	  1	  2	  0	0.06849	  0	0.50000	  0	 23	 82	 83	  1	
08-May-2013	sub2339	2339	  1	  0	 92	  4	  2	  3	  5	  5	  0	  1	  0	0.24929	  1	0.50000	  0	 23	 64	 89	  1	
08-May-2013	sub2339	2339	  1	  0	 93	  4	  2	  4	  1	  1	  1	  2	  1	0.24224	  1	0.50000	  0	 24	 62	 63	  1	
08-May-2013	sub2339	2339	  1	  0	 94	  4	  2	  4	  1	  1	  1	  2	  1	0.29944	  1	0.50000	  0	 24	 62	 63	  1	
08-May-2013	sub2339	2339	  1	  0	 95	  4	  2	  2	  3	  3	  1	  2	  1	0.32686	  1	0.50000	  0	 22	 60	 61	  1	
08-May-2013	sub2339	2339	  1	  0	 96	  4	  2	  5	  6	  3	  0	  2	  1	0.33496	  0	0.50000	  0	 25	 87	 68	  1	
08-May-2013	sub2339	2339	  1	  0	 97	  4	  2	  6	  2	  4	  1	  2	  1	0.27158	  1	0.50000	  0	 26	 65	 66	  1	
08-May-2013	sub2339	2339	  1	  0	 98	  4	  2	  4	  1	  1	  0	  2	  0	0.26034	  1	0.50000	  0	 24	 64	 89	  1	
08-May-2013	sub2339	2339	  1	  0	 99	  4	  2	  6	  2	  4	  0	  1	  1	0.00018	  0	0.50000	  0	 26	 87	 68	  1	
08-May-2013	sub2339	2339	  1	  0	100	  4	  2	  1	  4	  5	  1	  2	  0	0.33614	  0	0.50000	  0	 21	 80	 81	  1	
08-May-2013	sub2339	2339	  1	  0	101	  4	  2	  1	  4	  5	  1	  1	  1	0.10867	  1	0.40000	  0	 21	 60	 61	  1	
08-May-2013	sub2339	2339	  1	  0	102	  4	  2	  5	  6	  3	  0	  2	  1	0.33039	  0	0.40000	  0	 25	 87	 68	  1	
08-May-2013	sub2339	2339	  1	  0	103	  4	  2	  3	  5	  5	  1	  2	  0	0.30963	  0	0.40000	  0	 23	 82	 83	  1	
08-May-2013	sub2339	2339	  1	  0	104	  4	  2	  4	  1	  1	  0	  1	  1	0.25603	  0	0.40000	  0	 24	 84	 69	  1	
08-May-2013	sub2339	2339	  1	  0	105	  4	  2	  2	  3	  3	  1	  1	  0	0.24306	  0	0.40000	  0	 22	 80	 81	  1	
08-May-2013	sub2339	2339	  1	  0	106	  4	  2	  5	  6	  3	  0	  1	  0	0.32201	  1	0.40000	  0	 25	 67	 88	  1	
08-May-2013	sub2339	2339	  1	  0	107	  4	  2	  3	  5	  5	  1	  2	  0	0.22647	  0	0.40000	  0	 23	 82	 83	  1	
08-May-2013	sub2339	2339	  1	  0	108	  4	  2	  4	  1	  1	  1	  1	  0	0.23141	  0	0.40000	  0	 24	 82	 83	  1	
08-May-2013	sub2339	2339	  1	  0	109	  4	  2	  4	  1	  1	  1	  2	  1	0.19229	  1	0.40000	  0	 24	 62	 63	  1	
08-May-2013	sub2339	2339	  1	  0	110	  4	  2	  3	  5	  5	  1	  2	  0	0.27580	  0	0.40000	  0	 23	 82	 83	  1	
08-May-2013	sub2339	2339	  1	  0	111	  4	  2	  6	  2	  4	  0	  1	  1	0.20993	  0	0.40000	  0	 26	 87	 68	  1	
08-May-2013	sub2339	2339	  1	  0	112	  4	  2	  1	  4	  5	  1	  2	  0	0.33039	  0	0.40000	  0	 21	 80	 81	  1	
08-May-2013	sub2339	2339	  1	  0	113	  4	  2	  6	  2	  4	  0	  1	  1	0.10914	  0	0.40000	  0	 26	 87	 68	  1	
08-May-2013	sub2339	2339	  1	  0	114	  4	  2	  3	  5	  5	  1	  1	  1	0.26425	  1	0.40000	  0	 23	 62	 63	  1	
08-May-2013	sub2339	2339	  1	  0	115	  4	  2	  4	  1	  1	  1	  1	  0	0.28984	  0	0.40000	  0	 24	 82	 83	  1	
08-May-2013	sub2339	2339	  1	  0	116	  4	  2	  1	  4	  5	  1	  2	  0	0.32240	  0	0.40000	  0	 21	 80	 81	  1	
08-May-2013	sub2339	2339	  1	  0	117	  4	  2	  4	  1	  1	  1	  1	  0	0.25691	  0	0.40000	  0	 24	 82	 83	  1	
08-May-2013	sub2339	2339	  1	  0	118	  4	  2	  1	  4	  5	  1	  1	  1	0.26671	  1	0.40000	  0	 21	 60	 61	  1	
08-May-2013	sub2339	2339	  1	  0	119	  4	  2	  6	  2	  4	  0	  1	  1	0.27023	  0	0.40000	  0	 26	 87	 68	  1	
08-May-2013	sub2339	2339	  1	  0	120	  4	  2	  4	  1	  1	  1	  1	  0	0.27755	  0	0.40000	  0	 24	 82	 83	  1	
08-May-2013	sub2339	2339	  1	  0	121	  4	  2	  3	  5	  5	  1	  1	  1	0.35181	  1	0.40000	  0	 23	 62	 63	  1	
08-May-2013	sub2339	2339	  1	  0	122	  4	  2	  5	  6	  3	  0	  1	  0	0.25755	  1	0.40000	  0	 25	 67	 88	  1	
08-May-2013	sub2339	2339	  1	  0	123	  4	  2	  2	  3	  3	  1	  1	  0	0.27044	  0	0.40000	  0	 22	 80	 81	  1	
08-May-2013	sub2339	2339	  1	  0	124	  4	  2	  2	  3	  3	  1	  2	  1	0.26187	  1	0.40000	  0	 22	 60	 61	  1	
08-May-2013	sub2339	2339	  1	  0	125	  4	  2	  4	  1	  1	  1	  2	  1	0.30687	  1	0.40000	  0	 24	 62	 63	  1	
08-May-2013	sub2339	2339	  1	  0	126	  4	  2	  3	  5	  5	  1	  2	  0	0.28620	  0	0.40000	  0	 23	 82	 83	  1	
08-May-2013	sub2339	2339	  1	  0	127	  4	  2	  6	  2	  4	  0	  2	  0	0.37670	  1	0.40000	  0	 26	 67	 88	  1	
08-May-2013	sub2339	2339	  1	  0	128	  4	  2	  2	  3	  3	  1	  1	  0	0.21679	  0	0.40000	  0	 22	 80	 81	  1	
08-May-2013	sub2339	2339	  1	  0	129	  4	  2	  3	  5	  5	  1	  1	  1	0.23232	  1	0.40000	  0	 23	 62	 63	  1	
08-May-2013	sub2339	2339	  1	  0	130	  4	  2	  5	  6	  3	  0	  1	  0	0.22360	  1	0.40000	  0	 25	 67	 88	  1	
08-May-2013	sub2339	2339	  1	  0	131	  4	  2	  1	  4	  5	  1	  2	  0	0.35802	  0	0.40000	  0	 21	 80	 81	  1	
08-May-2013	sub2339	2339	  1	  0	132	  4	  2	  1	  4	  5	  1	  2	  0	0.48900	  0	0.40000	  1	 21	 80	 51	  1	
08-May-2013	sub2339	2339	  1	  0	133	  4	  2	  5	  6	  3	  0	  1	  0	0.10039	  1	0.50000	  0	 25	 67	 88	  1	
08-May-2013	sub2339	2339	  1	  0	134	  4	  2	  3	  5	  5	  1	  2	  0	0.29221	  0	0.50000	  0	 23	 82	 83	  1	
08-May-2013	sub2339	2339	  1	  0	135	  4	  2	  3	  5	  5	  1	  1	  1	0.18536	  1	0.40000	  0	 23	 62	 63	  1	
08-May-2013	sub2339	2339	  1	  0	136	  4	  2	  1	  4	  5	  1	  1	  1	0.10789	  1	0.40000	  0	 21	 60	 61	  1	
08-May-2013	sub2339	2339	  1	  0	137	  4	  2	  1	  4	  5	  1	  1	  1	0.25184	  1	0.40000	  0	 21	 60	 61	  1	
08-May-2013	sub2339	2339	  1	  0	138	  4	  2	  4	  1	  1	  1	  1	  0	0.33171	  0	0.40000	  0	 24	 82	 83	  1	
08-May-2013	sub2339	2339	  1	  0	139	  4	  2	  2	  3	  3	  1	  1	  0	0.36298	  0	0.40000	  0	 22	 80	 81	  1	
08-May-2013	sub2339	2339	  1	  0	140	  4	  2	  5	  6	  3	  0	  2	  1	0.37658	  0	0.40000	  0	 25	 87	 68	  1	
08-May-2013	sub2339	2339	  1	  0	141	  4	  2	  5	  6	  3	  0	  2	  1	0.27593	  0	0.40000	  0	 25	 87	 68	  1	
08-May-2013	sub2339	2339	  1	  0	142	  4	  2	  2	  3	  3	  1	  2	  1	0.36305	  1	0.40000	  0	 22	 60	 61	  1	
08-May-2013	sub2339	2339	  1	  0	143	  4	  2	  6	  2	  4	  1	  2	  1	0.25932	  1	0.40000	  0	 26	 65	 66	  1	
08-May-2013	sub2339	2339	  1	  0	144	  4	  2	  2	  3	  3	  1	  2	  1	0.30732	  1	0.40000	  0	 22	 60	 61	  1	
08-May-2013	sub2339	2339	  1	  0	145	  4	  2	  2	  3	  3	  1	  2	  1	0.28061	  1	0.40000	  0	 22	 60	 61	  1	
08-May-2013	sub2339	2339	  1	  0	146	  4	  2	  1	  4	  5	  1	  2	  0	0.37843	  0	0.40000	  0	 21	 80	 81	  1	
08-May-2013	sub2339	2339	  1	  0	147	  4	  2	  1	  4	  5	  1	  1	  1	0.53761	  1	0.40000	  1	 21	 60	 51	  0	
08-May-2013	sub2339	2339	  1	  0	148	  4	  2	  2	  3	  3	  1	  1	  0	0.31344	  0	0.50000	  0	 22	 80	 81	  1	
08-May-2013	sub2339	2339	  1	  0	149	  4	  2	  5	  6	  3	  0	  2	  1	0.27089	  0	0.50000	  0	 25	 87	 68	  1	
08-May-2013	sub2339	2339	  1	  0	150	  4	  2	  6	  2	  4	  1	  2	  1	0.26110	  1	0.50000	  0	 26	 65	 66	  1	
08-May-2013	sub2339	2339	  1	  0	  1	  5	  1	  5	  4	  1	  0	  2	  1	0.20452	  0	0.60000	  0	 15	 47	 38	  1	
08-May-2013	sub2339	2339	  1	  0	  2	  5	  1	  2	  5	  1	  1	  2	  1	0.21190	  1	0.30000	  0	 12	 30	 31	  1	
08-May-2013	sub2339	2339	  1	  0	  3	  5	  1	  3	  2	  6	  0	  2	  1	0.30988	  0	0.30000	  1	 13	 44	 51	  1	
08-May-2013	sub2339	2339	  1	  0	  4	  5	  1	  6	  1	  4	  0	  2	  0	0.28115	  1	0.90000	  0	 16	 37	 48	  1	
08-May-2013	sub2339	2339	  1	  0	  5	  5	  1	  4	  6	  1	  1	  2	  1	0.25250	  1	0.90000	  0	 14	 32	 33	  1	
08-May-2013	sub2339	2339	  1	  0	  6	  5	  1	  6	  1	  4	  1	  2	  1	0.29680	  1	0.90000	  0	 16	 35	 36	  1	
08-May-2013	sub2339	2339	  1	  0	  7	  5	  1	  5	  4	  1	  0	  2	  1	0.30418	  0	0.90000	  0	 15	 47	 38	  1	
08-May-2013	sub2339	2339	  1	  0	  8	  5	  1	  6	  1	  4	  1	  2	  1	0.28623	  1	0.90000	  0	 16	 35	 36	  1	
08-May-2013	sub2339	2339	  1	  0	  9	  5	  1	  6	  1	  4	  0	  2	  0	0.36277	  1	0.90000	  0	 16	 37	 48	  1	
08-May-2013	sub2339	2339	  1	  0	 10	  5	  1	  5	  4	  1	  1	  2	  0	0.32445	  0	0.90000	  0	 15	 45	 46	  1	
08-May-2013	sub2339	2339	  1	  0	 11	  5	  1	  6	  1	  4	  1	  2	  1	0.33326	  1	0.90000	  0	 16	 35	 36	  1	
08-May-2013	sub2339	2339	  1	  0	 12	  5	  1	  6	  1	  4	  0	  2	  0	0.28439	  1	0.90000	  0	 16	 37	 48	  1	
08-May-2013	sub2339	2339	  1	  0	 13	  5	  1	  1	  3	  2	  1	  1	  1	0.32646	  1	0.90000	  0	 11	 30	 31	  1	
08-May-2013	sub2339	2339	  1	  0	 14	  5	  1	  5	  4	  1	  0	  1	  0	0.33825	  1	0.90000	  0	 15	 37	 48	  1	
08-May-2013	sub2339	2339	  1	  0	 15	  5	  1	  6	  1	  4	  1	  2	  1	0.21897	  1	0.90000	  0	 16	 35	 36	  1	
08-May-2013	sub2339	2339	  1	  0	 16	  5	  1	  1	  3	  2	  1	  2	  0	0.35605	  0	0.80000	  0	 11	 40	 41	  1	
08-May-2013	sub2339	2339	  1	  0	 17	  5	  1	  1	  3	  2	  1	  1	  1	0.38284	  1	0.80000	  0	 11	 30	 31	  1	
08-May-2013	sub2339	2339	  1	  0	 18	  5	  1	  4	  6	  1	  1	  2	  1	0.44602	  1	0.70000	  0	 14	 32	 33	  1	
08-May-2013	sub2339	2339	  1	  0	 19	  5	  1	  4	  6	  1	  1	  2	  1	0.39118	  1	0.70000	  0	 14	 32	 33	  1	
08-May-2013	sub2339	2339	  1	  0	 20	  5	  1	  3	  2	  6	  1	  2	  0	0.37052	  0	0.70000	  0	 13	 42	 43	  1	
08-May-2013	sub2339	2339	  1	  0	 21	  5	  1	  5	  4	  1	  1	  1	  1	0.34697	  1	0.60000	  0	 15	 35	 36	  1	
08-May-2013	sub2339	2339	  1	  0	 22	  5	  1	  5	  4	  1	  1	  1	  1	0.35620	  1	0.60000	  0	 15	 35	 36	  1	
08-May-2013	sub2339	2339	  1	  0	 23	  5	  1	  4	  6	  1	  1	  1	  0	0.41748	  0	0.60000	  0	 14	 42	 43	  1	
08-May-2013	sub2339	2339	  1	  0	 24	  5	  1	  1	  3	  2	  1	  2	  0	0.33542	  0	0.60000	  0	 11	 40	 41	  1	
08-May-2013	sub2339	2339	  1	  0	 25	  5	  1	  6	  1	  4	  0	  1	  1	0.37866	  0	0.60000	  0	 16	 47	 38	  1	
08-May-2013	sub2339	2339	  1	  0	 26	  5	  1	  4	  6	  1	  0	  1	  1	0.48137	  0	0.50000	  0	 14	 44	 39	  1	
08-May-2013	sub2339	2339	  1	  0	 27	  5	  1	  6	  1	  4	  0	  1	  1	0.42916	  0	0.50000	  0	 16	 47	 38	  1	
08-May-2013	sub2339	2339	  1	  0	 28	  5	  1	  3	  2	  6	  0	  1	  0	0.36603	  1	0.50000	  0	 13	 34	 49	  1	
08-May-2013	sub2339	2339	  1	  0	 29	  5	  1	  2	  5	  1	  1	  2	  1	0.26704	  1	0.50000	  0	 12	 30	 31	  1	
08-May-2013	sub2339	2339	  1	  0	 30	  5	  1	  3	  2	  6	  1	  2	  0	0.28194	  0	0.50000	  0	 13	 42	 43	  1	
08-May-2013	sub2339	2339	  1	  0	 31	  5	  1	  1	  3	  2	  1	  2	  0	0.32480	  0	0.50000	  0	 11	 40	 41	  1	
08-May-2013	sub2339	2339	  1	  0	 32	  5	  1	  2	  5	  1	  1	  1	  0	0.30992	  0	0.50000	  0	 12	 40	 41	  1	
08-May-2013	sub2339	2339	  1	  0	 33	  5	  1	  2	  5	  1	  1	  2	  1	0.32337	  1	0.50000	  0	 12	 30	 31	  1	
08-May-2013	sub2339	2339	  1	  0	 34	  5	  1	  1	  3	  2	  1	  2	  0	0.33215	  0	0.50000	  0	 11	 40	 41	  1	
08-May-2013	sub2339	2339	  1	  0	 35	  5	  1	  1	  3	  2	  1	  1	  1	0.30151	  1	0.40000	  0	 11	 30	 31	  1	
08-May-2013	sub2339	2339	  1	  0	 36	  5	  1	  2	  5	  1	  1	  2	  1	0.30322	  1	0.40000	  0	 12	 30	 31	  1	
08-May-2013	sub2339	2339	  1	  0	 37	  5	  1	  4	  6	  1	  0	  2	  0	0.32169	  1	0.40000	  0	 14	 34	 49	  1	
08-May-2013	sub2339	2339	  1	  0	 38	  5	  1	  3	  2	  6	  1	  1	  1	0.25067	  1	0.40000	  0	 13	 32	 33	  1	
08-May-2013	sub2339	2339	  1	  0	 39	  5	  1	  6	  1	  4	  1	  1	  0	0.30062	  0	0.40000	  0	 16	 45	 46	  1	
08-May-2013	sub2339	2339	  1	  0	 40	  5	  1	  2	  5	  1	  1	  2	  1	0.29477	  1	0.40000	  0	 12	 30	 31	  1	
08-May-2013	sub2339	2339	  1	  0	 41	  5	  1	  5	  4	  1	  1	  2	  0	0.31812	  0	0.40000	  0	 15	 45	 46	  1	
08-May-2013	sub2339	2339	  1	  0	 42	  5	  1	  4	  6	  1	  1	  1	  0	0.27148	  0	0.40000	  0	 14	 42	 43	  1	
08-May-2013	sub2339	2339	  1	  0	 43	  5	  1	  6	  1	  4	  1	  2	  1	0.24386	  1	0.40000	  0	 16	 35	 36	  1	
08-May-2013	sub2339	2339	  1	  0	 44	  5	  1	  1	  3	  2	  1	  2	  0	0.32241	  0	0.40000	  0	 11	 40	 41	  1	
08-May-2013	sub2339	2339	  1	  0	 45	  5	  1	  4	  6	  1	  1	  1	  0	0.17996	  0	0.40000	  0	 14	 42	 43	  1	
08-May-2013	sub2339	2339	  1	  0	 46	  5	  1	  2	  5	  1	  1	  2	  1	0.27009	  1	0.40000	  0	 12	 30	 31	  1	
08-May-2013	sub2339	2339	  1	  0	 47	  5	  1	  3	  2	  6	  1	  2	  0	0.52058	  0	0.40000	  1	 13	 42	 51	  0	
08-May-2013	sub2339	2339	  1	  0	 48	  5	  1	  1	  3	  2	  1	  1	  1	0.27390	  1	0.60000	  0	 11	 30	 31	  1	
08-May-2013	sub2339	2339	  1	  0	 49	  5	  1	  5	  4	  1	  1	  2	  0	0.23095	  0	0.60000	  0	 15	 45	 46	  1	
08-May-2013	sub2339	2339	  1	  0	 50	  5	  1	  5	  4	  1	  0	  1	  0	0.22315	  1	0.60000	  0	 15	 37	 48	  1	
08-May-2013	sub2339	2339	  1	  0	 51	  5	  1	  6	  1	  4	  1	  2	  1	0.21799	  1	0.50000	  0	 16	 35	 36	  1	
08-May-2013	sub2339	2339	  1	  0	 52	  5	  1	  3	  2	  6	  1	  1	  1	0.36495	  1	0.50000	  0	 13	 32	 33	  1	
08-May-2013	sub2339	2339	  1	  0	 53	  5	  1	  5	  4	  1	  1	  2	  0	0.26490	  0	0.50000	  0	 15	 45	 46	  1	
08-May-2013	sub2339	2339	  1	  0	 54	  5	  1	  2	  5	  1	  1	  1	  0	0.04286	  0	0.50000	  0	 12	 40	 41	  1	
08-May-2013	sub2339	2339	  1	  0	 55	  5	  1	  3	  2	  6	  0	  2	  1	0.30540	  0	0.50000	  0	 13	 44	 39	  1	
08-May-2013	sub2339	2339	  1	  0	 56	  5	  1	  6	  1	  4	  0	  1	  1	0.56158	  0	0.50000	  1	 16	 47	 51	  0	
08-May-2013	sub2339	2339	  1	  0	 57	  5	  1	  1	  3	  2	  1	  1	  1	0.32876	  1	0.70000	  0	 11	 30	 31	  1	
08-May-2013	sub2339	2339	  1	  0	 58	  5	  1	  2	  5	  1	  1	  2	  1	0.34254	  1	0.70000	  0	 12	 30	 31	  1	
08-May-2013	sub2339	2339	  1	  0	 59	  5	  1	  3	  2	  6	  1	  2	  0	0.24415	  0	0.70000	  0	 13	 42	 43	  1	
08-May-2013	sub2339	2339	  1	  0	 60	  5	  1	  1	  3	  2	  1	  1	  1	0.31643	  1	0.70000	  0	 11	 30	 31	  1	
08-May-2013	sub2339	2339	  1	  0	 61	  5	  1	  4	  6	  1	  1	  1	  0	0.43301	  0	0.60000	  0	 14	 42	 43	  1	
08-May-2013	sub2339	2339	  1	  0	 62	  5	  1	  5	  4	  1	  0	  2	  1	0.25422	  0	0.60000	  0	 15	 47	 38	  1	
08-May-2013	sub2339	2339	  1	  0	 63	  5	  1	  2	  5	  1	  1	  2	  1	0.30630	  1	0.60000	  0	 12	 30	 31	  1	
08-May-2013	sub2339	2339	  1	  0	 64	  5	  1	  4	  6	  1	  1	  2	  1	0.34446	  1	0.60000	  0	 14	 32	 33	  1	
08-May-2013	sub2339	2339	  1	  0	 65	  5	  1	  3	  2	  6	  1	  2	  0	0.26840	  0	0.60000	  0	 13	 42	 43	  1	
08-May-2013	sub2339	2339	  1	  0	 66	  5	  1	  2	  5	  1	  1	  1	  0	0.32263	  0	0.60000	  0	 12	 40	 41	  1	
08-May-2013	sub2339	2339	  1	  0	 67	  5	  1	  3	  2	  6	  1	  1	  1	0.32136	  1	0.60000	  0	 13	 32	 33	  1	
08-May-2013	sub2339	2339	  1	  0	 68	  5	  1	  5	  4	  1	  0	  1	  0	0.33853	  1	0.60000	  0	 15	 37	 48	  1	
08-May-2013	sub2339	2339	  1	  0	 69	  5	  1	  4	  6	  1	  1	  2	  1	0.28467	  1	0.60000	  0	 14	 32	 33	  1	
08-May-2013	sub2339	2339	  1	  0	 70	  5	  1	  4	  6	  1	  1	  2	  1	0.25457	  1	0.60000	  0	 14	 32	 33	  1	
08-May-2013	sub2339	2339	  1	  0	 71	  5	  1	  2	  5	  1	  1	  2	  1	0.31178	  1	0.60000	  0	 12	 30	 31	  1	
08-May-2013	sub2339	2339	  1	  0	 72	  5	  1	  3	  2	  6	  1	  2	  0	0.33862	  0	0.60000	  0	 13	 42	 43	  1	
08-May-2013	sub2339	2339	  1	  0	 73	  5	  1	  3	  2	  6	  1	  1	  1	0.36682	  1	0.60000	  0	 13	 32	 33	  1	
08-May-2013	sub2339	2339	  1	  0	 74	  5	  1	  2	  5	  1	  1	  1	  0	0.33822	  0	0.60000	  0	 12	 40	 41	  1	
08-May-2013	sub2339	2339	  1	  0	 75	  5	  1	  1	  3	  2	  1	  2	  0	0.29406	  0	0.60000	  0	 11	 40	 41	  1	
08-May-2013	sub2339	2339	  1	  0	 76	  5	  2	  1	  3	  2	  1	  2	  0	0.25307	  0	0.50000	  0	 21	 80	 81	  1	
08-May-2013	sub2339	2339	  1	  0	 77	  5	  2	  3	  2	  6	  1	  1	  1	0.22122	  1	0.50000	  0	 23	 62	 63	  1	
08-May-2013	sub2339	2339	  1	  0	 78	  5	  2	  3	  2	  6	  0	  1	  0	0.27928	  1	0.50000	  0	 23	 64	 89	  1	
08-May-2013	sub2339	2339	  1	  0	 79	  5	  2	  2	  5	  1	  1	  1	  0	0.44265	  0	0.50000	  0	 22	 80	 81	  1	
08-May-2013	sub2339	2339	  1	  0	 80	  5	  2	  4	  6	  1	  0	  1	  1	0.32192	  0	0.50000	  0	 24	 84	 69	  1	
08-May-2013	sub2339	2339	  1	  0	 81	  5	  2	  2	  5	  1	  1	  1	  0	0.29567	  0	0.50000	  0	 22	 80	 81	  1	
08-May-2013	sub2339	2339	  1	  0	 82	  5	  2	  3	  2	  6	  1	  1	  1	0.29296	  1	0.50000	  0	 23	 62	 63	  1	
08-May-2013	sub2339	2339	  1	  0	 83	  5	  2	  6	  1	  4	  1	  2	  1	0.31684	  1	0.50000	  0	 26	 65	 66	  1	
08-May-2013	sub2339	2339	  1	  0	 84	  5	  2	  1	  3	  2	  1	  2	  0	0.37788	  0	0.50000	  0	 21	 80	 81	  1	
08-May-2013	sub2339	2339	  1	  0	 85	  5	  2	  5	  4	  1	  0	  2	  1	0.40314	  0	0.50000	  0	 25	 87	 68	  1	
08-May-2013	sub2339	2339	  1	  0	 86	  5	  2	  6	  1	  4	  0	  1	  1	0.28818	  0	0.50000	  0	 26	 87	 68	  1	
08-May-2013	sub2339	2339	  1	  0	 87	  5	  2	  5	  4	  1	  0	  1	  0	0.25469	  1	0.50000	  0	 25	 67	 88	  1	
08-May-2013	sub2339	2339	  1	  0	 88	  5	  2	  4	  6	  1	  1	  2	  1	0.35313	  1	0.50000	  0	 24	 62	 63	  1	
08-May-2013	sub2339	2339	  1	  0	 89	  5	  2	  4	  6	  1	  1	  2	  1	0.34392	  1	0.50000	  0	 24	 62	 63	  1	
08-May-2013	sub2339	2339	  1	  0	 90	  5	  2	  6	  1	  4	  0	  2	  0	0.43465	  1	0.50000	  0	 26	 67	 88	  1	
08-May-2013	sub2339	2339	  1	  0	 91	  5	  2	  1	  3	  2	  1	  1	  1	0.30748	  1	0.50000	  0	 21	 60	 61	  1	
08-May-2013	sub2339	2339	  1	  0	 92	  5	  2	  6	  1	  4	  0	  1	  1	0.29649	  0	0.50000	  0	 26	 87	 68	  1	
08-May-2013	sub2339	2339	  1	  0	 93	  5	  2	  1	  3	  2	  1	  1	  1	0.38161	  1	0.50000	  0	 21	 60	 61	  1	
08-May-2013	sub2339	2339	  1	  0	 94	  5	  2	  4	  6	  1	  0	  1	  1	0.35374	  0	0.50000	  0	 24	 84	 69	  1	
08-May-2013	sub2339	2339	  1	  0	 95	  5	  2	  5	  4	  1	  0	  1	  0	0.40148	  1	0.50000	  0	 25	 67	 88	  1	
08-May-2013	sub2339	2339	  1	  0	 96	  5	  2	  1	  3	  2	  1	  1	  1	1.18632	  1	0.50000	  1	 21	 60	 51	  0	
08-May-2013	sub2339	2339	  1	  0	 97	  5	  2	  3	  2	  6	  1	  1	  1	0.32263	  1	0.60000	  0	 23	 62	 63	  1	
08-May-2013	sub2339	2339	  1	  0	 98	  5	  2	  3	  2	  6	  0	  1	  0	0.27300	  1	0.60000	  0	 23	 64	 89	  1	
08-May-2013	sub2339	2339	  1	  0	 99	  5	  2	  3	  2	  6	  1	  1	  1	0.28771	  1	0.60000	  0	 23	 62	 63	  1	
08-May-2013	sub2339	2339	  1	  0	100	  5	  2	  5	  4	  1	  0	  2	  1	0.31614	  0	0.60000	  0	 25	 87	 68	  1	
08-May-2013	sub2339	2339	  1	  0	101	  5	  2	  5	  4	  1	  0	  1	  0	0.35663	  1	0.50000	  0	 25	 67	 88	  1	
08-May-2013	sub2339	2339	  1	  0	102	  5	  2	  6	  1	  4	  1	  1	  0	0.29374	  0	0.50000	  0	 26	 85	 86	  1	
08-May-2013	sub2339	2339	  1	  0	103	  5	  2	  5	  4	  1	  0	  1	  0	0.30379	  1	0.50000	  0	 25	 67	 88	  1	
08-May-2013	sub2339	2339	  1	  0	104	  5	  2	  1	  3	  2	  1	  1	  1	0.30943	  1	0.50000	  0	 21	 60	 61	  1	
08-May-2013	sub2339	2339	  1	  0	105	  5	  2	  2	  5	  1	  1	  1	  0	0.01894	  0	0.50000	  0	 22	 80	 81	  1	
08-May-2013	sub2339	2339	  1	  0	106	  5	  2	  3	  2	  6	  1	  1	  1	0.32254	  1	0.50000	  0	 23	 62	 63	  1	
08-May-2013	sub2339	2339	  1	  0	107	  5	  2	  5	  4	  1	  0	  1	  0	0.31823	  1	0.50000	  0	 25	 67	 88	  1	
08-May-2013	sub2339	2339	  1	  0	108	  5	  2	  1	  3	  2	  1	  1	  1	0.30418	  1	0.50000	  0	 21	 60	 61	  1	
08-May-2013	sub2339	2339	  1	  0	109	  5	  2	  6	  1	  4	  1	  1	  0	0.35588	  0	0.50000	  0	 26	 85	 86	  1	
08-May-2013	sub2339	2339	  1	  0	110	  5	  2	  1	  3	  2	  1	  1	  1	0.21885	  1	0.50000	  0	 21	 60	 61	  1	
08-May-2013	sub2339	2339	  1	  0	111	  5	  2	  6	  1	  4	  0	  2	  0	0.25706	  1	0.50000	  0	 26	 67	 88	  1	
08-May-2013	sub2339	2339	  1	  0	112	  5	  2	  3	  2	  6	  1	  1	  1	0.24680	  1	0.50000	  0	 23	 62	 63	  1	
08-May-2013	sub2339	2339	  1	  0	113	  5	  2	  2	  5	  1	  1	  1	  0	0.26710	  0	0.50000	  0	 22	 80	 81	  1	
08-May-2013	sub2339	2339	  1	  0	114	  5	  2	  5	  4	  1	  0	  1	  0	0.38983	  1	0.50000	  0	 25	 67	 88	  1	
08-May-2013	sub2339	2339	  1	  0	115	  5	  2	  4	  6	  1	  1	  2	  1	0.38439	  1	0.50000	  0	 24	 62	 63	  1	
08-May-2013	sub2339	2339	  1	  0	116	  5	  2	  4	  6	  1	  1	  2	  1	0.33419	  1	0.50000	  0	 24	 62	 63	  1	
08-May-2013	sub2339	2339	  1	  0	117	  5	  2	  1	  3	  2	  1	  2	  0	0.25051	  0	0.50000	  0	 21	 80	 81	  1	
08-May-2013	sub2339	2339	  1	  0	118	  5	  2	  5	  4	  1	  0	  2	  1	0.26134	  0	0.50000	  0	 25	 87	 68	  1	
08-May-2013	sub2339	2339	  1	  0	119	  5	  2	  5	  4	  1	  0	  2	  1	0.31913	  0	0.50000	  0	 25	 87	 68	  1	
08-May-2013	sub2339	2339	  1	  0	120	  5	  2	  5	  4	  1	  0	  2	  1	0.33759	  0	0.50000	  0	 25	 87	 68	  1	
08-May-2013	sub2339	2339	  1	  0	121	  5	  2	  5	  4	  1	  0	  2	  1	0.34799	  0	0.50000	  0	 25	 87	 68	  1	
08-May-2013	sub2339	2339	  1	  0	122	  5	  2	  3	  2	  6	  1	  1	  1	0.47341	  1	0.50000	  0	 23	 62	 63	  1	
08-May-2013	sub2339	2339	  1	  0	123	  5	  2	  6	  1	  4	  1	  1	  0	0.28641	  0	0.50000	  0	 26	 85	 86	  1	
08-May-2013	sub2339	2339	  1	  0	124	  5	  2	  4	  6	  1	  1	  2	  1	0.37784	  1	0.50000	  0	 24	 62	 63	  1	
08-May-2013	sub2339	2339	  1	  0	125	  5	  2	  2	  5	  1	  1	  2	  1	0.39822	  1	0.50000	  0	 22	 60	 61	  1	
08-May-2013	sub2339	2339	  1	  0	126	  5	  2	  4	  6	  1	  1	  2	  1	0.26020	  1	0.50000	  0	 24	 62	 63	  1	
08-May-2013	sub2339	2339	  1	  0	127	  5	  2	  4	  6	  1	  1	  2	  1	0.34545	  1	0.50000	  0	 24	 62	 63	  1	
08-May-2013	sub2339	2339	  1	  0	128	  5	  2	  1	  3	  2	  1	  2	  0	0.44536	  0	0.50000	  0	 21	 80	 81	  1	
08-May-2013	sub2339	2339	  1	  0	129	  5	  2	  1	  3	  2	  1	  2	  0	0.35204	  0	0.50000	  0	 21	 80	 81	  1	
08-May-2013	sub2339	2339	  1	  0	130	  5	  2	  2	  5	  1	  1	  1	  0	0.22919	  0	0.50000	  0	 22	 80	 81	  1	
08-May-2013	sub2339	2339	  1	  0	131	  5	  2	  2	  5	  1	  1	  1	  0	0.23260	  0	0.50000	  0	 22	 80	 81	  1	
08-May-2013	sub2339	2339	  1	  0	132	  5	  2	  4	  6	  1	  0	  2	  0	0.19423	  1	0.50000	  0	 24	 64	 89	  1	
08-May-2013	sub2339	2339	  1	  0	133	  5	  2	  6	  1	  4	  1	  2	  1	0.29152	  1	0.50000	  0	 26	 65	 66	  1	
08-May-2013	sub2339	2339	  1	  0	134	  5	  2	  6	  1	  4	  0	  2	  0	0.31729	  1	0.50000	  0	 26	 67	 88	  1	
08-May-2013	sub2339	2339	  1	  0	135	  5	  2	  6	  1	  4	  1	  2	  1	0.36106	  1	0.40000	  0	 26	 65	 66	  1	
08-May-2013	sub2339	2339	  1	  0	136	  5	  2	  2	  5	  1	  1	  2	  1	0.30696	  1	0.40000	  0	 22	 60	 61	  1	
08-May-2013	sub2339	2339	  1	  0	137	  5	  2	  3	  2	  6	  1	  2	  0	1.52378	  0	0.40000	  1	 23	 82	 51	  0	
08-May-2013	sub2339	2339	  1	  0	138	  5	  2	  5	  4	  1	  0	  2	  1	0.34486	  0	0.50000	  0	 25	 87	 68	  1	
08-May-2013	sub2339	2339	  1	  0	139	  5	  2	  2	  5	  1	  1	  2	  1	0.30331	  1	0.50000	  0	 22	 60	 61	  1	
08-May-2013	sub2339	2339	  1	  0	140	  5	  2	  4	  6	  1	  1	  2	  1	0.28685	  1	0.50000	  0	 24	 62	 63	  1	
08-May-2013	sub2339	2339	  1	  0	141	  5	  2	  3	  2	  6	  1	  2	  0	0.29584	  0	0.50000	  0	 23	 82	 83	  1	
08-May-2013	sub2339	2339	  1	  0	142	  5	  2	  1	  3	  2	  1	  2	  0	0.34845	  0	0.50000	  0	 21	 80	 81	  1	
08-May-2013	sub2339	2339	  1	  0	143	  5	  2	  2	  5	  1	  1	  1	  0	0.21828	  0	0.50000	  0	 22	 80	 81	  1	
08-May-2013	sub2339	2339	  1	  0	144	  5	  2	  3	  2	  6	  1	  2	  0	0.27561	  0	0.50000	  0	 23	 82	 83	  1	
08-May-2013	sub2339	2339	  1	  0	145	  5	  2	  4	  6	  1	  1	  1	  0	0.28830	  0	0.50000	  0	 24	 82	 83	  1	
08-May-2013	sub2339	2339	  1	  0	146	  5	  2	  4	  6	  1	  1	  2	  1	0.26980	  1	0.50000	  0	 24	 62	 63	  1	
08-May-2013	sub2339	2339	  1	  0	147	  5	  2	  6	  1	  4	  0	  2	  0	0.29240	  1	0.50000	  0	 26	 67	 88	  1	
08-May-2013	sub2339	2339	  1	  0	148	  5	  2	  2	  5	  1	  1	  2	  1	0.31749	  1	0.50000	  0	 22	 60	 61	  1	
08-May-2013	sub2339	2339	  1	  0	149	  5	  2	  2	  5	  1	  1	  2	  1	0.25363	  1	0.50000	  0	 22	 60	 61	  1	
08-May-2013	sub2339	2339	  1	  0	150	  5	  2	  1	  3	  2	  1	  1	  1	0.54517	  1	0.50000	  1	 21	 60	 51	  0	
08-May-2013	sub2339	2339	  1	  0	  1	  6	  1	  5	  6	  2	  1	  1	  1	0.29416	  1	0.60000	  0	 15	 35	 36	  1	
08-May-2013	sub2339	2339	  1	  0	  2	  6	  1	  5	  6	  2	  1	  1	  1	0.29079	  1	0.30000	  0	 15	 35	 36	  1	
08-May-2013	sub2339	2339	  1	  0	  3	  6	  1	  1	  1	  3	  1	  1	  1	0.38550	  1	0.30000	  1	 11	 30	 51	  1	
08-May-2013	sub2339	2339	  1	  0	  4	  6	  1	  3	  2	  1	  1	  1	  1	0.41204	  1	0.90000	  0	 13	 32	 33	  1	
08-May-2013	sub2339	2339	  1	  0	  5	  6	  1	  3	  2	  1	  1	  1	  1	0.28111	  1	0.90000	  0	 13	 32	 33	  1	
08-May-2013	sub2339	2339	  1	  0	  6	  6	  1	  2	  3	  6	  1	  1	  0	0.26134	  0	0.90000	  0	 12	 40	 41	  1	
08-May-2013	sub2339	2339	  1	  0	  7	  6	  1	  1	  1	  3	  1	  2	  0	0.30708	  0	0.90000	  0	 11	 40	 41	  1	
08-May-2013	sub2339	2339	  1	  0	  8	  6	  1	  2	  3	  6	  1	  2	  1	0.26127	  1	0.90000	  0	 12	 30	 31	  1	
08-May-2013	sub2339	2339	  1	  0	  9	  6	  1	  5	  6	  2	  0	  2	  1	0.26500	  0	0.90000	  0	 15	 47	 38	  1	
08-May-2013	sub2339	2339	  1	  0	 10	  6	  1	  6	  5	  4	  0	  1	  1	0.46241	  0	0.90000	  0	 16	 47	 38	  1	
08-May-2013	sub2339	2339	  1	  0	 11	  6	  1	  3	  2	  1	  1	  2	  0	0.09023	  0	0.90000	  0	 13	 42	 43	  1	
08-May-2013	sub2339	2339	  1	  0	 12	  6	  1	  3	  2	  1	  0	  1	  0	0.26342	  1	0.90000	  0	 13	 34	 49	  1	
08-May-2013	sub2339	2339	  1	  0	 13	  6	  1	  6	  5	  4	  0	  2	  0	0.28046	  1	0.90000	  0	 16	 37	 48	  1	
08-May-2013	sub2339	2339	  1	  0	 14	  6	  1	  3	  2	  1	  1	  1	  1	0.28076	  1	0.90000	  0	 13	 32	 33	  1	
08-May-2013	sub2339	2339	  1	  0	 15	  6	  1	  1	  1	  3	  1	  1	  1	0.27917	  1	0.90000	  0	 11	 30	 31	  1	
08-May-2013	sub2339	2339	  1	  0	 16	  6	  1	  5	  6	  2	  0	  2	  1	0.24106	  0	0.80000	  0	 15	 47	 38	  1	
08-May-2013	sub2339	2339	  1	  0	 17	  6	  1	  5	  6	  2	  0	  2	  1	0.30607	  0	0.80000	  0	 15	 47	 38	  1	
08-May-2013	sub2339	2339	  1	  0	 18	  6	  1	  6	  5	  4	  1	  1	  0	0.28569	  0	0.70000	  0	 16	 45	 46	  1	
08-May-2013	sub2339	2339	  1	  0	 19	  6	  1	  3	  2	  1	  1	  2	  0	0.27113	  0	0.70000	  0	 13	 42	 43	  1	
08-May-2013	sub2339	2339	  1	  0	 20	  6	  1	  4	  4	  4	  1	  2	  1	0.27390	  1	0.70000	  0	 14	 32	 33	  1	
08-May-2013	sub2339	2339	  1	  0	 21	  6	  1	  5	  6	  2	  0	  2	  1	0.24659	  0	0.60000	  0	 15	 47	 38	  1	
08-May-2013	sub2339	2339	  1	  0	 22	  6	  1	  6	  5	  4	  0	  1	  1	0.26551	  0	0.60000	  0	 16	 47	 38	  1	
08-May-2013	sub2339	2339	  1	  0	 23	  6	  1	  1	  1	  3	  1	  2	  0	0.32977	  0	0.60000	  0	 11	 40	 41	  1	
08-May-2013	sub2339	2339	  1	  0	 24	  6	  1	  2	  3	  6	  1	  1	  0	0.04114	  0	0.60000	  0	 12	 40	 41	  1	
08-May-2013	sub2339	2339	  1	  0	 25	  6	  1	  1	  1	  3	  1	  2	  0	0.20951	  0	0.60000	  0	 11	 40	 41	  1	
08-May-2013	sub2339	2339	  1	  0	 26	  6	  1	  3	  2	  1	  0	  2	  1	0.60089	  0	0.50000	  1	 13	 44	 51	  0	
08-May-2013	sub2339	2339	  1	  0	 27	  6	  1	  4	  4	  4	  1	  1	  0	0.17227	  0	0.90000	  0	 14	 42	 43	  1	
08-May-2013	sub2339	2339	  1	  0	 28	  6	  1	  5	  6	  2	  1	  2	  0	0.17655	  0	0.90000	  0	 15	 45	 46	  1	
08-May-2013	sub2339	2339	  1	  0	 29	  6	  1	  4	  4	  4	  1	  1	  0	0.20919	  0	0.90000	  0	 14	 42	 43	  1	
08-May-2013	sub2339	2339	  1	  0	 30	  6	  1	  4	  4	  4	  1	  2	  1	0.23998	  1	0.80000	  0	 14	 32	 33	  1	
08-May-2013	sub2339	2339	  1	  0	 31	  6	  1	  2	  3	  6	  1	  2	  1	0.27917	  1	0.80000	  0	 12	 30	 31	  1	
08-May-2013	sub2339	2339	  1	  0	 32	  6	  1	  2	  3	  6	  1	  2	  1	0.60075	  1	0.80000	  0	 12	 30	 31	  0	
08-May-2013	sub2339	2339	  1	  0	 33	  6	  1	  5	  6	  2	  0	  2	  1	0.28990	  0	0.80000	  0	 15	 47	 38	  1	
08-May-2013	sub2339	2339	  1	  0	 34	  6	  1	  2	  3	  6	  1	  2	  1	0.34786	  1	0.80000	  0	 12	 30	 31	  1	
08-May-2013	sub2339	2339	  1	  0	 35	  6	  1	  3	  2	  1	  1	  2	  0	0.25311	  0	0.70000	  0	 13	 42	 43	  1	
08-May-2013	sub2339	2339	  1	  0	 36	  6	  1	  1	  1	  3	  1	  2	  0	0.33017	  0	0.70000	  0	 11	 40	 41	  1	
08-May-2013	sub2339	2339	  1	  0	 37	  6	  1	  4	  4	  4	  1	  1	  0	0.00093	  0	0.70000	  0	 14	 42	 43	  1	
08-May-2013	sub2339	2339	  1	  0	 38	  6	  1	  6	  5	  4	  0	  2	  0	0.26176	  1	0.70000	  0	 16	 37	 48	  1	
08-May-2013	sub2339	2339	  1	  0	 39	  6	  1	  2	  3	  6	  1	  2	  1	0.33642	  1	0.70000	  0	 12	 30	 31	  1	
08-May-2013	sub2339	2339	  1	  0	 40	  6	  1	  4	  4	  4	  1	  1	  0	0.28235	  0	0.70000	  0	 14	 42	 43	  1	
08-May-2013	sub2339	2339	  1	  0	 41	  6	  1	  3	  2	  1	  1	  2	  0	0.25742	  0	0.60000	  0	 13	 42	 43	  1	
08-May-2013	sub2339	2339	  1	  0	 42	  6	  1	  6	  5	  4	  1	  1	  0	0.19549	  0	0.60000	  0	 16	 45	 46	  1	
08-May-2013	sub2339	2339	  1	  0	 43	  6	  1	  6	  5	  4	  0	  2	  0	0.24902	  1	0.60000	  0	 16	 37	 48	  1	
08-May-2013	sub2339	2339	  1	  0	 44	  6	  1	  5	  6	  2	  1	  1	  1	0.20996	  1	0.60000	  0	 15	 35	 36	  1	
08-May-2013	sub2339	2339	  1	  0	 45	  6	  1	  2	  3	  6	  1	  2	  1	0.23786	  1	0.60000	  0	 12	 30	 31	  1	
08-May-2013	sub2339	2339	  1	  0	 46	  6	  1	  1	  1	  3	  1	  1	  1	0.24673	  1	0.60000	  0	 11	 30	 31	  1	
08-May-2013	sub2339	2339	  1	  0	 47	  6	  1	  2	  3	  6	  1	  2	  1	0.21734	  1	0.60000	  0	 12	 30	 31	  1	
08-May-2013	sub2339	2339	  1	  0	 48	  6	  1	  6	  5	  4	  0	  1	  1	0.24578	  0	0.60000	  0	 16	 47	 38	  1	
08-May-2013	sub2339	2339	  1	  0	 49	  6	  1	  2	  3	  6	  1	  2	  1	0.25461	  1	0.60000	  0	 12	 30	 31	  1	
08-May-2013	sub2339	2339	  1	  0	 50	  6	  1	  1	  1	  3	  1	  1	  1	0.24615	  1	0.60000	  0	 11	 30	 31	  1	
08-May-2013	sub2339	2339	  1	  0	 51	  6	  1	  2	  3	  6	  1	  2	  1	0.26666	  1	0.50000	  0	 12	 30	 31	  1	
08-May-2013	sub2339	2339	  1	  0	 52	  6	  1	  6	  5	  4	  0	  1	  1	0.18557	  0	0.50000	  0	 16	 47	 38	  1	
08-May-2013	sub2339	2339	  1	  0	 53	  6	  1	  3	  2	  1	  1	  2	  0	0.29956	  0	0.50000	  0	 13	 42	 43	  1	
08-May-2013	sub2339	2339	  1	  0	 54	  6	  1	  1	  1	  3	  1	  1	  1	0.11108	  1	0.50000	  0	 11	 30	 31	  1	
08-May-2013	sub2339	2339	  1	  0	 55	  6	  1	  4	  4	  4	  1	  2	  1	0.29189	  1	0.50000	  0	 14	 32	 33	  1	
08-May-2013	sub2339	2339	  1	  0	 56	  6	  1	  3	  2	  1	  1	  1	  1	0.29382	  1	0.50000	  0	 13	 32	 33	  1	
08-May-2013	sub2339	2339	  1	  0	 57	  6	  1	  6	  5	  4	  1	  2	  1	0.27191	  1	0.50000	  0	 16	 35	 36	  1	
08-May-2013	sub2339	2339	  1	  0	 58	  6	  1	  2	  3	  6	  1	  1	  0	0.06641	  0	0.50000	  0	 12	 40	 41	  1	
08-May-2013	sub2339	2339	  1	  0	 59	  6	  1	  4	  4	  4	  1	  2	  1	0.26050	  1	0.50000	  0	 14	 32	 33	  1	
08-May-2013	sub2339	2339	  1	  0	 60	  6	  1	  3	  2	  1	  1	  2	  0	0.23429	  0	0.50000	  0	 13	 42	 43	  1	
08-May-2013	sub2339	2339	  1	  0	 61	  6	  1	  2	  3	  6	  1	  1	  0	0.26615	  0	0.50000	  0	 12	 40	 41	  1	
08-May-2013	sub2339	2339	  1	  0	 62	  6	  1	  6	  5	  4	  1	  2	  1	0.25176	  1	0.50000	  0	 16	 35	 36	  1	
08-May-2013	sub2339	2339	  1	  0	 63	  6	  1	  4	  4	  4	  1	  1	  0	0.25930	  0	0.50000	  0	 14	 42	 43	  1	
08-May-2013	sub2339	2339	  1	  0	 64	  6	  1	  1	  1	  3	  1	  2	  0	0.28665	  0	0.50000	  0	 11	 40	 41	  1	
08-May-2013	sub2339	2339	  1	  0	 65	  6	  1	  1	  1	  3	  1	  1	  1	0.00009	  1	0.50000	  0	 11	 30	 31	  1	
08-May-2013	sub2339	2339	  1	  0	 66	  6	  1	  5	  6	  2	  1	  1	  1	0.25820	  1	0.50000	  0	 15	 35	 36	  1	
08-May-2013	sub2339	2339	  1	  0	 67	  6	  1	  4	  4	  4	  0	  1	  1	0.26753	  0	0.50000	  0	 14	 44	 39	  1	
08-May-2013	sub2339	2339	  1	  0	 68	  6	  1	  4	  4	  4	  1	  1	  0	0.29519	  0	0.40000	  0	 14	 42	 43	  1	
08-May-2013	sub2339	2339	  1	  0	 69	  6	  1	  5	  6	  2	  1	  1	  1	0.25681	  1	0.40000	  0	 15	 35	 36	  1	
08-May-2013	sub2339	2339	  1	  0	 70	  6	  1	  6	  5	  4	  0	  2	  0	0.27026	  1	0.40000	  0	 16	 37	 48	  1	
08-May-2013	sub2339	2339	  1	  0	 71	  6	  1	  3	  2	  1	  0	  1	  0	0.28711	  1	0.40000	  0	 13	 34	 49	  1	
08-May-2013	sub2339	2339	  1	  0	 72	  6	  1	  5	  6	  2	  1	  2	  0	0.25402	  0	0.40000	  0	 15	 45	 46	  1	
08-May-2013	sub2339	2339	  1	  0	 73	  6	  1	  1	  1	  3	  1	  1	  1	0.25919	  1	0.40000	  0	 11	 30	 31	  1	
08-May-2013	sub2339	2339	  1	  0	 74	  6	  1	  4	  4	  4	  0	  1	  1	0.19119	  0	0.40000	  0	 14	 44	 39	  1	
08-May-2013	sub2339	2339	  1	  0	 75	  6	  1	  6	  5	  4	  1	  1	  0	0.26623	  0	0.40000	  0	 16	 45	 46	  1	
08-May-2013	sub2339	2339	  1	  0	 76	  6	  2	  1	  1	  3	  1	  1	  1	0.29239	  1	0.40000	  0	 21	 60	 61	  1	
08-May-2013	sub2339	2339	  1	  0	 77	  6	  2	  1	  1	  3	  1	  1	  1	0.25454	  1	0.40000	  0	 21	 60	 61	  1	
08-May-2013	sub2339	2339	  1	  0	 78	  6	  2	  3	  2	  1	  1	  1	  1	0.24683	  1	0.40000	  0	 23	 62	 63	  1	
08-May-2013	sub2339	2339	  1	  0	 79	  6	  2	  5	  6	  2	  0	  1	  0	0.30315	  1	0.40000	  0	 25	 67	 88	  1	
08-May-2013	sub2339	2339	  1	  0	 80	  6	  2	  4	  4	  4	  1	  1	  0	0.09853	  0	0.40000	  0	 24	 82	 83	  1	
08-May-2013	sub2339	2339	  1	  0	 81	  6	  2	  5	  6	  2	  0	  1	  0	0.23980	  1	0.40000	  0	 25	 67	 88	  1	
08-May-2013	sub2339	2339	  1	  0	 82	  6	  2	  4	  4	  4	  1	  2	  1	0.33606	  1	0.40000	  0	 24	 62	 63	  1	
08-May-2013	sub2339	2339	  1	  0	 83	  6	  2	  2	  3	  6	  1	  1	  0	0.21569	  0	0.40000	  0	 22	 80	 81	  1	
08-May-2013	sub2339	2339	  1	  0	 84	  6	  2	  5	  6	  2	  0	  2	  1	0.28741	  0	0.40000	  0	 25	 87	 68	  1	
08-May-2013	sub2339	2339	  1	  0	 85	  6	  2	  3	  2	  1	  0	  1	  0	0.23282	  1	0.40000	  0	 23	 64	 89	  1	
08-May-2013	sub2339	2339	  1	  0	 86	  6	  2	  1	  1	  3	  1	  2	  0	0.25810	  0	0.40000	  0	 21	 80	 81	  1	
08-May-2013	sub2339	2339	  1	  0	 87	  6	  2	  2	  3	  6	  1	  1	  0	0.00093	  0	0.40000	  0	 22	 80	 81	  1	
08-May-2013	sub2339	2339	  1	  0	 88	  6	  2	  6	  5	  4	  1	  2	  1	0.23972	  1	0.40000	  0	 26	 65	 66	  1	
08-May-2013	sub2339	2339	  1	  0	 89	  6	  2	  3	  2	  1	  1	  2	  0	0.49840	  0	0.40000	  1	 23	 82	 51	  1	
08-May-2013	sub2339	2339	  1	  0	 90	  6	  2	  2	  3	  6	  1	  2	  1	0.25456	  1	0.50000	  0	 22	 60	 61	  1	
08-May-2013	sub2339	2339	  1	  0	 91	  6	  2	  2	  3	  6	  1	  2	  1	0.24993	  1	0.50000	  0	 22	 60	 61	  1	
08-May-2013	sub2339	2339	  1	  0	 92	  6	  2	  4	  4	  4	  0	  2	  0	0.23014	  1	0.50000	  0	 24	 64	 89	  1	
08-May-2013	sub2339	2339	  1	  0	 93	  6	  2	  4	  4	  4	  1	  2	  1	0.22560	  1	0.50000	  0	 24	 62	 63	  1	
08-May-2013	sub2339	2339	  1	  0	 94	  6	  2	  2	  3	  6	  1	  2	  1	0.07519	  1	0.50000	  0	 22	 60	 61	  1	
08-May-2013	sub2339	2339	  1	  0	 95	  6	  2	  6	  5	  4	  1	  2	  1	0.31671	  1	0.50000	  0	 26	 65	 66	  1	
08-May-2013	sub2339	2339	  1	  0	 96	  6	  2	  6	  5	  4	  0	  2	  0	0.36008	  1	0.50000	  0	 26	 67	 88	  1	
08-May-2013	sub2339	2339	  1	  0	 97	  6	  2	  3	  2	  1	  1	  2	  0	0.23434	  0	0.50000	  0	 23	 82	 83	  1	
08-May-2013	sub2339	2339	  1	  0	 98	  6	  2	  2	  3	  6	  1	  1	  0	0.26060	  0	0.50000	  0	 22	 80	 81	  1	
08-May-2013	sub2339	2339	  1	  0	 99	  6	  2	  1	  1	  3	  1	  2	  0	2.89340	  0	0.50000	  1	 21	 80	 51	  0	
08-May-2013	sub2339	2339	  1	  0	100	  6	  2	  4	  4	  4	  1	  1	  0	0.25762	  0	0.60000	  0	 24	 82	 83	  1	
08-May-2013	sub2339	2339	  1	  0	101	  6	  2	  2	  3	  6	  1	  2	  1	0.27547	  1	0.50000	  0	 22	 60	 61	  1	
08-May-2013	sub2339	2339	  1	  0	102	  6	  2	  6	  5	  4	  0	  1	  1	0.28497	  0	0.50000	  0	 26	 87	 68	  1	
08-May-2013	sub2339	2339	  1	  0	103	  6	  2	  5	  6	  2	  0	  2	  1	0.04870	  0	0.50000	  0	 25	 87	 68	  1	
08-May-2013	sub2339	2339	  1	  0	104	  6	  2	  6	  5	  4	  0	  1	  1	0.24291	  0	0.50000	  0	 26	 87	 68	  1	
08-May-2013	sub2339	2339	  1	  0	105	  6	  2	  3	  2	  1	  1	  2	  0	0.23887	  0	0.50000	  0	 23	 82	 83	  1	
08-May-2013	sub2339	2339	  1	  0	106	  6	  2	  4	  4	  4	  1	  1	  0	0.25283	  0	0.50000	  0	 24	 82	 83	  1	
08-May-2013	sub2339	2339	  1	  0	107	  6	  2	  3	  2	  1	  1	  2	  0	0.20882	  0	0.50000	  0	 23	 82	 83	  1	
08-May-2013	sub2339	2339	  1	  0	108	  6	  2	  1	  1	  3	  1	  2	  0	0.25714	  0	0.50000	  0	 21	 80	 81	  1	
08-May-2013	sub2339	2339	  1	  0	109	  6	  2	  4	  4	  4	  1	  1	  0	0.31090	  0	0.50000	  0	 24	 82	 83	  1	
08-May-2013	sub2339	2339	  1	  0	110	  6	  2	  6	  5	  4	  1	  2	  1	0.26742	  1	0.50000	  0	 26	 65	 66	  1	
08-May-2013	sub2339	2339	  1	  0	111	  6	  2	  1	  1	  3	  1	  2	  0	0.33562	  0	0.50000	  0	 21	 80	 81	  1	
08-May-2013	sub2339	2339	  1	  0	112	  6	  2	  5	  6	  2	  0	  1	  0	0.29983	  1	0.50000	  0	 25	 67	 88	  1	
08-May-2013	sub2339	2339	  1	  0	113	  6	  2	  3	  2	  1	  1	  1	  1	0.28094	  1	0.50000	  0	 23	 62	 63	  1	
08-May-2013	sub2339	2339	  1	  0	114	  6	  2	  1	  1	  3	  1	  2	  0	0.28690	  0	0.50000	  0	 21	 80	 81	  1	
08-May-2013	sub2339	2339	  1	  0	115	  6	  2	  3	  2	  1	  0	  1	  0	0.21389	  1	0.50000	  0	 23	 64	 89	  1	
08-May-2013	sub2339	2339	  1	  0	116	  6	  2	  6	  5	  4	  0	  1	  1	0.28030	  0	0.50000	  0	 26	 87	 68	  1	
08-May-2013	sub2339	2339	  1	  0	117	  6	  2	  6	  5	  4	  1	  1	  0	0.28112	  0	0.50000	  0	 26	 85	 86	  1	
08-May-2013	sub2339	2339	  1	  0	118	  6	  2	  5	  6	  2	  0	  2	  1	0.31480	  0	0.50000	  0	 25	 87	 68	  1	
08-May-2013	sub2339	2339	  1	  0	119	  6	  2	  6	  5	  4	  1	  2	  1	0.30095	  1	0.50000	  0	 26	 65	 66	  1	
08-May-2013	sub2339	2339	  1	  0	120	  6	  2	  1	  1	  3	  1	  1	  1	0.33030	  1	0.50000	  0	 21	 60	 61	  1	
08-May-2013	sub2339	2339	  1	  0	121	  6	  2	  5	  6	  2	  0	  2	  1	0.34768	  0	0.50000	  0	 25	 87	 68	  1	
08-May-2013	sub2339	2339	  1	  0	122	  6	  2	  2	  3	  6	  1	  1	  0	0.31211	  0	0.50000	  0	 22	 80	 81	  1	
08-May-2013	sub2339	2339	  1	  0	123	  6	  2	  2	  3	  6	  1	  2	  1	0.26664	  1	0.50000	  0	 22	 60	 61	  1	
08-May-2013	sub2339	2339	  1	  0	124	  6	  2	  6	  5	  4	  0	  2	  0	0.29559	  1	0.50000	  0	 26	 67	 88	  1	
08-May-2013	sub2339	2339	  1	  0	125	  6	  2	  6	  5	  4	  1	  2	  1	0.33936	  1	0.50000	  0	 26	 65	 66	  1	
08-May-2013	sub2339	2339	  1	  0	126	  6	  2	  5	  6	  2	  0	  2	  1	0.40741	  0	0.50000	  0	 25	 87	 68	  1	
08-May-2013	sub2339	2339	  1	  0	127	  6	  2	  2	  3	  6	  1	  2	  1	0.33844	  1	0.50000	  0	 22	 60	 61	  1	
08-May-2013	sub2339	2339	  1	  0	128	  6	  2	  5	  6	  2	  0	  2	  1	0.30228	  0	0.50000	  0	 25	 87	 68	  1	
08-May-2013	sub2339	2339	  1	  0	129	  6	  2	  1	  1	  3	  1	  2	  0	0.32726	  0	0.50000	  0	 21	 80	 81	  1	
08-May-2013	sub2339	2339	  1	  0	130	  6	  2	  1	  1	  3	  1	  2	  0	0.29864	  0	0.50000	  0	 21	 80	 81	  1	
08-May-2013	sub2339	2339	  1	  0	131	  6	  2	  4	  4	  4	  1	  1	  0	0.33891	  0	0.50000	  0	 24	 82	 83	  1	
08-May-2013	sub2339	2339	  1	  0	132	  6	  2	  3	  2	  1	  1	  2	  0	0.43495	  0	0.50000	  0	 23	 82	 83	  1	
08-May-2013	sub2339	2339	  1	  0	133	  6	  2	  1	  1	  3	  1	  1	  1	0.27172	  1	0.50000	  0	 21	 60	 61	  1	
08-May-2013	sub2339	2339	  1	  0	134	  6	  2	  5	  6	  2	  0	  1	  0	0.30488	  1	0.50000	  0	 25	 67	 88	  1	
08-May-2013	sub2339	2339	  1	  0	135	  6	  2	  4	  4	  4	  0	  2	  0	0.30370	  1	0.40000	  0	 24	 64	 89	  1	
08-May-2013	sub2339	2339	  1	  0	136	  6	  2	  1	  1	  3	  1	  1	  1	0.26866	  1	0.40000	  0	 21	 60	 61	  1	
08-May-2013	sub2339	2339	  1	  0	137	  6	  2	  3	  2	  1	  1	  1	  1	0.28809	  1	0.40000	  0	 23	 62	 63	  1	
08-May-2013	sub2339	2339	  1	  0	138	  6	  2	  5	  6	  2	  0	  1	  0	0.28985	  1	0.40000	  0	 25	 67	 88	  1	
08-May-2013	sub2339	2339	  1	  0	139	  6	  2	  4	  4	  4	  0	  1	  1	0.35994	  0	0.40000	  0	 24	 84	 69	  1	
08-May-2013	sub2339	2339	  1	  0	140	  6	  2	  1	  1	  3	  1	  1	  1	0.26526	  1	0.40000	  0	 21	 60	 61	  1	
08-May-2013	sub2339	2339	  1	  0	141	  6	  2	  2	  3	  6	  1	  1	  0	0.25444	  0	0.40000	  0	 22	 80	 81	  1	
08-May-2013	sub2339	2339	  1	  0	142	  6	  2	  6	  5	  4	  0	  1	  1	0.24335	  0	0.40000	  0	 26	 87	 68	  1	
08-May-2013	sub2339	2339	  1	  0	143	  6	  2	  5	  6	  2	  0	  1	  0	0.37891	  1	0.40000	  0	 25	 67	 88	  1	
08-May-2013	sub2339	2339	  1	  0	144	  6	  2	  5	  6	  2	  0	  2	  1	0.27980	  0	0.40000	  0	 25	 87	 68	  1	
08-May-2013	sub2339	2339	  1	  0	145	  6	  2	  2	  3	  6	  1	  2	  1	0.22551	  1	0.40000	  0	 22	 60	 61	  1	
08-May-2013	sub2339	2339	  1	  0	146	  6	  2	  4	  4	  4	  1	  2	  1	0.18242	  1	0.40000	  0	 24	 62	 63	  1	
08-May-2013	sub2339	2339	  1	  0	147	  6	  2	  3	  2	  1	  1	  2	  0	0.29475	  0	0.40000	  0	 23	 82	 83	  1	
08-May-2013	sub2339	2339	  1	  0	148	  6	  2	  3	  2	  1	  1	  1	  1	0.28945	  1	0.40000	  0	 23	 62	 63	  1	
08-May-2013	sub2339	2339	  1	  0	149	  6	  2	  4	  4	  4	  1	  2	  1	0.29500	  1	0.40000	  0	 24	 62	 63	  1	
08-May-2013	sub2339	2339	  1	  0	150	  6	  2	  4	  4	  4	  1	  2	  1	0.29161	  1	0.40000	  0	 24	 62	 63	  1	
