Date 	 Name 	 ID 	 Gender 	 Appearance 	 Trial 	 Block 	 Bin 	 Condition 	 Category 	 Number 	 Valid 	 Keypress 	 Correct 	 RT 	 Realcorrect 	 Deadline 	 Timeout 	 Stimtrigger 	 Resptrigger 	 Fedtrigger 	 WithinTime 	 
08-May-2013	sub2340	2340	  1	  0	  1	  1	  1	  2	  4	  3	  1	  1	  0	0.91070	  0	0.60000	  1	 12	 40	 51	  0	
08-May-2013	sub2340	2340	  1	  0	  2	  1	  1	  5	  2	  4	  1	  1	  1	0.35871	  1	0.90000	  0	 15	 35	 36	  1	
08-May-2013	sub2340	2340	  1	  0	  3	  1	  1	  2	  4	  3	  1	  1	  0	0.59106	  0	0.90000	  0	 12	 40	 41	  0	
08-May-2013	sub2340	2340	  1	  0	  4	  1	  1	  4	  3	  4	  1	  1	  0	0.73404	  0	0.90000	  0	 14	 42	 43	  0	
08-May-2013	sub2340	2340	  1	  0	  5	  1	  1	  1	  5	  3	  1	  2	  0	0.50164	  0	0.90000	  0	 11	 40	 41	  0	
08-May-2013	sub2340	2340	  1	  0	  6	  1	  1	  1	  5	  3	  1	  1	  1	0.34946	  1	0.90000	  0	 11	 30	 31	  1	
08-May-2013	sub2340	2340	  1	  0	  7	  1	  1	  4	  3	  4	  1	  1	  0	0.54236	  0	0.90000	  0	 14	 42	 43	  0	
08-May-2013	sub2340	2340	  1	  0	  8	  1	  1	  1	  5	  3	  1	  2	  0	0.74231	  0	0.90000	  0	 11	 40	 41	  0	
08-May-2013	sub2340	2340	  1	  0	  9	  1	  1	  2	  4	  3	  1	  2	  1	0.62964	  1	0.90000	  0	 12	 30	 31	  0	
08-May-2013	sub2340	2340	  1	  0	 10	  1	  1	  6	  6	  3	  0	  2	  0	0.58594	  1	0.90000	  0	 16	 37	 48	  0	
08-May-2013	sub2340	2340	  1	  0	 11	  1	  1	  2	  4	  3	  1	  1	  0	0.56128	  0	0.90000	  0	 12	 40	 41	  0	
08-May-2013	sub2340	2340	  1	  0	 12	  1	  1	  3	  1	  6	  1	  2	  0	0.45063	  0	0.90000	  0	 13	 42	 43	  1	
08-May-2013	sub2340	2340	  1	  0	 13	  1	  1	  5	  2	  4	  1	  1	  1	0.77258	  1	0.90000	  0	 15	 35	 36	  0	
08-May-2013	sub2340	2340	  1	  0	 14	  1	  1	  3	  1	  6	  1	  2	  0	0.58610	  0	0.90000	  0	 13	 42	 43	  0	
08-May-2013	sub2340	2340	  1	  0	 15	  1	  1	  5	  2	  4	  1	  1	  1	0.50260	  1	0.90000	  0	 15	 35	 36	  0	
08-May-2013	sub2340	2340	  1	  0	 16	  1	  1	  6	  6	  3	  1	  1	  0	0.61646	  0	0.80000	  0	 16	 45	 46	  0	
08-May-2013	sub2340	2340	  1	  0	 17	  1	  1	  5	  2	  4	  1	  1	  1	0.59001	  1	0.80000	  0	 15	 35	 36	  0	
08-May-2013	sub2340	2340	  1	  0	 18	  1	  1	  2	  4	  3	  1	  1	  0	0.56013	  0	0.70000	  0	 12	 40	 41	  0	
08-May-2013	sub2340	2340	  1	  0	 19	  1	  1	  1	  5	  3	  1	  2	  0	0.59406	  0	0.70000	  0	 11	 40	 41	  0	
08-May-2013	sub2340	2340	  1	  0	 20	  1	  1	  6	  6	  3	  0	  1	  1	0.42618	  0	0.70000	  0	 16	 47	 38	  1	
08-May-2013	sub2340	2340	  1	  0	 21	  1	  1	  2	  4	  3	  1	  1	  0	0.59849	  0	0.60000	  0	 12	 40	 41	  0	
08-May-2013	sub2340	2340	  1	  0	 22	  1	  1	  2	  4	  3	  1	  2	  1	0.56398	  1	0.60000	  0	 12	 30	 31	  0	
08-May-2013	sub2340	2340	  1	  0	 23	  1	  1	  3	  1	  6	  0	  1	  0	0.47537	  1	0.60000	  0	 13	 34	 49	  1	
08-May-2013	sub2340	2340	  1	  0	 24	  1	  1	  2	  4	  3	  1	  2	  1	0.56667	  1	0.60000	  0	 12	 30	 31	  0	
08-May-2013	sub2340	2340	  1	  0	 25	  1	  1	  4	  3	  4	  0	  1	  1	0.61427	  0	0.60000	  1	 14	 44	 51	  0	
08-May-2013	sub2340	2340	  1	  0	 26	  1	  1	  3	  1	  6	  1	  1	  1	0.47723	  1	0.90000	  0	 13	 32	 33	  1	
08-May-2013	sub2340	2340	  1	  0	 27	  1	  1	  5	  2	  4	  0	  2	  1	0.32420	  0	0.90000	  0	 15	 47	 38	  1	
08-May-2013	sub2340	2340	  1	  0	 28	  1	  1	  5	  2	  4	  0	  2	  1	0.40758	  0	0.90000	  0	 15	 47	 38	  1	
08-May-2013	sub2340	2340	  1	  0	 29	  1	  1	  6	  6	  3	  0	  2	  0	0.39980	  1	0.90000	  0	 16	 37	 48	  1	
08-May-2013	sub2340	2340	  1	  0	 30	  1	  1	  4	  3	  4	  1	  1	  0	0.33831	  0	0.80000	  0	 14	 42	 43	  1	
08-May-2013	sub2340	2340	  1	  0	 31	  1	  1	  3	  1	  6	  1	  2	  0	0.54258	  0	0.80000	  0	 13	 42	 43	  0	
08-May-2013	sub2340	2340	  1	  0	 32	  1	  1	  3	  1	  6	  1	  1	  1	0.34468	  1	0.80000	  0	 13	 32	 33	  1	
08-May-2013	sub2340	2340	  1	  0	 33	  1	  1	  3	  1	  6	  1	  1	  1	0.38451	  1	0.80000	  0	 13	 32	 33	  1	
08-May-2013	sub2340	2340	  1	  0	 34	  1	  1	  1	  5	  3	  1	  2	  0	0.69632	  0	0.80000	  0	 11	 40	 41	  0	
08-May-2013	sub2340	2340	  1	  0	 35	  1	  1	  5	  2	  4	  1	  1	  1	0.24071	  1	0.70000	  0	 15	 35	 36	  1	
08-May-2013	sub2340	2340	  1	  0	 36	  1	  1	  3	  1	  6	  0	  1	  0	0.35237	  1	0.70000	  0	 13	 34	 49	  1	
08-May-2013	sub2340	2340	  1	  0	 37	  1	  1	  5	  2	  4	  0	  1	  0	0.45170	  1	0.70000	  0	 15	 37	 48	  1	
08-May-2013	sub2340	2340	  1	  0	 38	  1	  1	  3	  1	  6	  1	  2	  0	0.38021	  0	0.70000	  0	 13	 42	 43	  1	
08-May-2013	sub2340	2340	  1	  0	 39	  1	  1	  4	  3	  4	  1	  2	  1	0.49952	  1	0.70000	  0	 14	 32	 33	  1	
08-May-2013	sub2340	2340	  1	  0	 40	  1	  1	  3	  1	  6	  1	  1	  1	0.59928	  1	0.70000	  0	 13	 32	 33	  0	
08-May-2013	sub2340	2340	  1	  0	 41	  1	  1	  2	  4	  3	  1	  1	  0	0.45194	  0	0.60000	  0	 12	 40	 41	  1	
08-May-2013	sub2340	2340	  1	  0	 42	  1	  1	  1	  5	  3	  1	  2	  0	0.49212	  0	0.60000	  0	 11	 40	 41	  1	
08-May-2013	sub2340	2340	  1	  0	 43	  1	  1	  5	  2	  4	  0	  1	  0	0.47876	  1	0.60000	  0	 15	 37	 48	  1	
08-May-2013	sub2340	2340	  1	  0	 44	  1	  1	  6	  6	  3	  1	  2	  1	0.35731	  1	0.60000	  0	 16	 35	 36	  1	
08-May-2013	sub2340	2340	  1	  0	 45	  1	  1	  1	  5	  3	  1	  2	  0	0.39450	  0	0.60000	  0	 11	 40	 41	  1	
08-May-2013	sub2340	2340	  1	  0	 46	  1	  1	  2	  4	  3	  1	  2	  1	0.26545	  1	0.60000	  0	 12	 30	 31	  1	
08-May-2013	sub2340	2340	  1	  0	 47	  1	  1	  6	  6	  3	  0	  1	  1	0.33368	  0	0.60000	  0	 16	 47	 38	  1	
08-May-2013	sub2340	2340	  1	  0	 48	  1	  1	  5	  2	  4	  1	  1	  1	0.69873	  1	0.60000	  1	 15	 35	 51	  0	
08-May-2013	sub2340	2340	  1	  0	 49	  1	  1	  2	  4	  3	  1	  2	  1	0.37666	  1	0.80000	  0	 12	 30	 31	  1	
08-May-2013	sub2340	2340	  1	  0	 50	  1	  1	  6	  6	  3	  0	  2	  0	0.23963	  1	0.80000	  0	 16	 37	 48	  1	
08-May-2013	sub2340	2340	  1	  0	 51	  1	  1	  4	  3	  4	  1	  1	  0	0.41141	  0	0.70000	  0	 14	 42	 43	  1	
08-May-2013	sub2340	2340	  1	  0	 52	  1	  1	  6	  6	  3	  0	  2	  0	0.35769	  1	0.70000	  0	 16	 37	 48	  1	
08-May-2013	sub2340	2340	  1	  0	 53	  1	  1	  2	  4	  3	  1	  2	  1	0.53731	  1	0.70000	  0	 12	 30	 31	  0	
08-May-2013	sub2340	2340	  1	  0	 54	  1	  1	  3	  1	  6	  1	  1	  1	0.62426	  1	0.70000	  0	 13	 32	 33	  0	
08-May-2013	sub2340	2340	  1	  0	 55	  1	  1	  3	  1	  6	  0	  1	  0	0.46329	  1	0.70000	  0	 13	 34	 49	  1	
08-May-2013	sub2340	2340	  1	  0	 56	  1	  1	  1	  5	  3	  1	  2	  0	0.26865	  0	0.70000	  0	 11	 40	 41	  1	
08-May-2013	sub2340	2340	  1	  0	 57	  1	  1	  5	  2	  4	  0	  2	  1	0.58032	  0	0.70000	  0	 15	 47	 38	  0	
08-May-2013	sub2340	2340	  1	  0	 58	  1	  1	  6	  6	  3	  0	  2	  0	0.72262	  1	0.70000	  1	 16	 37	 51	  0	
08-May-2013	sub2340	2340	  1	  0	 59	  1	  1	  1	  5	  3	  1	  2	  0	0.45611	  0	0.80000	  0	 11	 40	 41	  1	
08-May-2013	sub2340	2340	  1	  0	 60	  1	  1	  6	  6	  3	  1	  2	  1	0.49473	  1	0.80000	  0	 16	 35	 36	  1	
08-May-2013	sub2340	2340	  1	  0	 61	  1	  1	  1	  5	  3	  1	  2	  0	0.69434	  0	0.80000	  0	 11	 40	 41	  0	
08-May-2013	sub2340	2340	  1	  0	 62	  1	  1	  1	  5	  3	  1	  2	  0	0.40857	  0	0.80000	  0	 11	 40	 41	  1	
08-May-2013	sub2340	2340	  1	  0	 63	  1	  1	  3	  1	  6	  1	  1	  1	0.52951	  1	0.80000	  0	 13	 32	 33	  0	
08-May-2013	sub2340	2340	  1	  0	 64	  1	  1	  4	  3	  4	  1	  2	  1	0.61754	  1	0.80000	  0	 14	 32	 33	  0	
08-May-2013	sub2340	2340	  1	  0	 65	  1	  1	  5	  2	  4	  1	  2	  0	0.36000	  0	0.80000	  0	 15	 45	 46	  1	
08-May-2013	sub2340	2340	  1	  0	 66	  1	  1	  4	  3	  4	  0	  2	  0	0.59305	  1	0.80000	  0	 14	 34	 49	  0	
08-May-2013	sub2340	2340	  1	  0	 67	  1	  1	  4	  3	  4	  1	  2	  1	0.43626	  1	0.80000	  0	 14	 32	 33	  1	
08-May-2013	sub2340	2340	  1	  0	 68	  1	  1	  4	  3	  4	  1	  2	  1	0.40495	  1	0.70000	  0	 14	 32	 33	  1	
08-May-2013	sub2340	2340	  1	  0	 69	  1	  1	  4	  3	  4	  1	  2	  1	0.36745	  1	0.70000	  0	 14	 32	 33	  1	
08-May-2013	sub2340	2340	  1	  0	 70	  1	  1	  1	  5	  3	  1	  1	  1	0.34951	  1	0.70000	  0	 11	 30	 31	  1	
08-May-2013	sub2340	2340	  1	  0	 71	  1	  1	  6	  6	  3	  1	  1	  0	0.63520	  0	0.70000	  0	 16	 45	 46	  0	
08-May-2013	sub2340	2340	  1	  0	 72	  1	  1	  6	  6	  3	  1	  2	  1	0.89519	  1	0.70000	  1	 16	 35	 51	  0	
08-May-2013	sub2340	2340	  1	  0	 73	  1	  1	  4	  3	  4	  1	  2	  1	0.58273	  1	0.80000	  0	 14	 32	 33	  0	
08-May-2013	sub2340	2340	  1	  0	 74	  1	  1	  2	  4	  3	  1	  2	  1	0.63012	  1	0.80000	  0	 12	 30	 31	  0	
08-May-2013	sub2340	2340	  1	  0	 75	  1	  1	  6	  6	  3	  0	  1	  1	0.54365	  0	0.80000	  0	 16	 47	 38	  0	
08-May-2013	sub2340	2340	  1	  0	  1	  2	  1	  3	  6	  1	  0	  1	  0	217.46365	  1	0.60000	  1	 13	 34	 51	  0	
08-May-2013	sub2340	2340	  1	  0	  2	  2	  1	  1	  2	  6	  1	  2	  0	0.54298	  0	0.90000	  0	 11	 40	 41	  0	
08-May-2013	sub2340	2340	  1	  0	  3	  2	  1	  2	  5	  1	  1	  1	  0	0.60266	  0	0.90000	  0	 12	 40	 41	  0	
08-May-2013	sub2340	2340	  1	  0	  4	  2	  1	  6	  1	  4	  1	  2	  1	0.62834	  1	0.90000	  0	 16	 35	 36	  0	
08-May-2013	sub2340	2340	  1	  0	  5	  2	  1	  4	  3	  6	  1	  2	  1	0.72400	  1	0.90000	  0	 14	 32	 33	  0	
08-May-2013	sub2340	2340	  1	  0	  6	  2	  1	  2	  5	  1	  1	  1	  0	0.71645	  0	0.90000	  0	 12	 40	 41	  0	
08-May-2013	sub2340	2340	  1	  0	  7	  2	  1	  4	  3	  6	  0	  2	  0	0.55016	  1	0.90000	  0	 14	 34	 49	  0	
08-May-2013	sub2340	2340	  1	  0	  8	  2	  1	  6	  1	  4	  0	  2	  0	0.53591	  1	0.90000	  0	 16	 37	 48	  0	
08-May-2013	sub2340	2340	  1	  0	  9	  2	  1	  4	  3	  6	  1	  1	  0	0.52698	  0	0.90000	  0	 14	 42	 43	  0	
08-May-2013	sub2340	2340	  1	  0	 10	  2	  1	  3	  6	  1	  1	  2	  0	0.48560	  0	0.90000	  0	 13	 42	 43	  1	
08-May-2013	sub2340	2340	  1	  0	 11	  2	  1	  4	  3	  6	  1	  1	  0	0.28367	  0	0.90000	  0	 14	 42	 43	  1	
08-May-2013	sub2340	2340	  1	  0	 12	  2	  1	  1	  2	  6	  1	  1	  1	0.14712	  1	0.90000	  0	 11	 30	 31	  1	
08-May-2013	sub2340	2340	  1	  0	 13	  2	  1	  1	  2	  6	  1	  1	  1	0.50299	  1	0.90000	  0	 11	 30	 31	  0	
08-May-2013	sub2340	2340	  1	  0	 14	  2	  1	  6	  1	  4	  0	  2	  0	0.63732	  1	0.90000	  0	 16	 37	 48	  0	
08-May-2013	sub2340	2340	  1	  0	 15	  2	  1	  2	  5	  1	  1	  2	  1	0.64824	  1	0.90000	  0	 12	 30	 31	  0	
08-May-2013	sub2340	2340	  1	  0	 16	  2	  1	  3	  6	  1	  1	  2	  0	0.58456	  0	0.80000	  0	 13	 42	 43	  0	
08-May-2013	sub2340	2340	  1	  0	 17	  2	  1	  3	  6	  1	  0	  1	  0	0.40309	  1	0.80000	  0	 13	 34	 49	  1	
08-May-2013	sub2340	2340	  1	  0	 18	  2	  1	  2	  5	  1	  1	  2	  1	0.42446	  1	0.70000	  0	 12	 30	 31	  1	
08-May-2013	sub2340	2340	  1	  0	 19	  2	  1	  4	  3	  6	  1	  1	  0	0.61272	  0	0.70000	  0	 14	 42	 43	  0	
08-May-2013	sub2340	2340	  1	  0	 20	  2	  1	  2	  5	  1	  1	  2	  1	0.57992	  1	0.70000	  0	 12	 30	 31	  0	
08-May-2013	sub2340	2340	  1	  0	 21	  2	  1	  4	  3	  6	  0	  1	  1	0.79147	  0	0.60000	  1	 14	 44	 51	  0	
08-May-2013	sub2340	2340	  1	  0	 22	  2	  1	  3	  6	  1	  1	  2	  0	0.37011	  0	0.90000	  0	 13	 42	 43	  1	
08-May-2013	sub2340	2340	  1	  0	 23	  2	  1	  3	  6	  1	  0	  1	  0	0.65461	  1	0.90000	  0	 13	 34	 49	  0	
08-May-2013	sub2340	2340	  1	  0	 24	  2	  1	  1	  2	  6	  1	  1	  1	0.35522	  1	0.90000	  0	 11	 30	 31	  1	
08-May-2013	sub2340	2340	  1	  0	 25	  2	  1	  2	  5	  1	  1	  2	  1	0.62579	  1	0.90000	  0	 12	 30	 31	  0	
08-May-2013	sub2340	2340	  1	  0	 26	  2	  1	  1	  2	  6	  1	  1	  1	0.45873	  1	0.90000	  0	 11	 30	 31	  1	
08-May-2013	sub2340	2340	  1	  0	 27	  2	  1	  5	  4	  2	  0	  2	  1	0.74924	  0	0.90000	  0	 15	 47	 38	  0	
08-May-2013	sub2340	2340	  1	  0	 28	  2	  1	  5	  4	  2	  1	  2	  0	0.53582	  0	0.90000	  0	 15	 45	 46	  0	
08-May-2013	sub2340	2340	  1	  0	 29	  2	  1	  6	  1	  4	  1	  2	  1	0.74309	  1	0.90000	  0	 16	 35	 36	  0	
08-May-2013	sub2340	2340	  1	  0	 30	  2	  1	  6	  1	  4	  0	  2	  0	0.57893	  1	0.80000	  0	 16	 37	 48	  0	
08-May-2013	sub2340	2340	  1	  0	 31	  2	  1	  6	  1	  4	  0	  2	  0	0.42922	  1	0.80000	  0	 16	 37	 48	  1	
08-May-2013	sub2340	2340	  1	  0	 32	  2	  1	  5	  4	  2	  1	  1	  1	0.44308	  1	0.80000	  0	 15	 35	 36	  1	
08-May-2013	sub2340	2340	  1	  0	 33	  2	  1	  6	  1	  4	  0	  1	  1	0.56726	  0	0.80000	  0	 16	 47	 38	  0	
08-May-2013	sub2340	2340	  1	  0	 34	  2	  1	  2	  5	  1	  1	  1	  0	0.57659	  0	0.80000	  0	 12	 40	 41	  0	
08-May-2013	sub2340	2340	  1	  0	 35	  2	  1	  1	  2	  6	  1	  1	  1	0.53746	  1	0.70000	  0	 11	 30	 31	  0	
08-May-2013	sub2340	2340	  1	  0	 36	  2	  1	  5	  4	  2	  0	  1	  0	0.72456	  1	0.70000	  1	 15	 37	 51	  0	
08-May-2013	sub2340	2340	  1	  0	 37	  2	  1	  1	  2	  6	  1	  1	  1	0.11200	  1	0.90000	  0	 11	 30	 31	  1	
08-May-2013	sub2340	2340	  1	  0	 38	  2	  1	  3	  6	  1	  1	  2	  0	0.43897	  0	0.90000	  0	 13	 42	 43	  1	
08-May-2013	sub2340	2340	  1	  0	 39	  2	  1	  6	  1	  4	  0	  1	  1	0.43970	  0	0.90000	  0	 16	 47	 38	  1	
08-May-2013	sub2340	2340	  1	  0	 40	  2	  1	  2	  5	  1	  1	  1	  0	0.40124	  0	0.90000	  0	 12	 40	 41	  1	
08-May-2013	sub2340	2340	  1	  0	 41	  2	  1	  6	  1	  4	  0	  1	  1	0.49185	  0	0.90000	  0	 16	 47	 38	  1	
08-May-2013	sub2340	2340	  1	  0	 42	  2	  1	  6	  1	  4	  1	  1	  0	0.55590	  0	0.90000	  0	 16	 45	 46	  0	
08-May-2013	sub2340	2340	  1	  0	 43	  2	  1	  6	  1	  4	  1	  1	  0	0.41439	  0	0.90000	  0	 16	 45	 46	  1	
08-May-2013	sub2340	2340	  1	  0	 44	  2	  1	  1	  2	  6	  1	  1	  1	0.45576	  1	0.80000	  0	 11	 30	 31	  1	
08-May-2013	sub2340	2340	  1	  0	 45	  2	  1	  1	  2	  6	  1	  1	  1	0.40086	  1	0.80000	  0	 11	 30	 31	  1	
08-May-2013	sub2340	2340	  1	  0	 46	  2	  1	  5	  4	  2	  1	  1	  1	0.47158	  1	0.80000	  0	 15	 35	 36	  1	
08-May-2013	sub2340	2340	  1	  0	 47	  2	  1	  5	  4	  2	  1	  1	  1	0.51183	  1	0.80000	  0	 15	 35	 36	  0	
08-May-2013	sub2340	2340	  1	  0	 48	  2	  1	  1	  2	  6	  1	  1	  1	0.47915	  1	0.80000	  0	 11	 30	 31	  1	
08-May-2013	sub2340	2340	  1	  0	 49	  2	  1	  3	  6	  1	  1	  2	  0	0.53827	  0	0.80000	  0	 13	 42	 43	  0	
08-May-2013	sub2340	2340	  1	  0	 50	  2	  1	  5	  4	  2	  0	  1	  0	0.36566	  1	0.80000	  0	 15	 37	 48	  1	
08-May-2013	sub2340	2340	  1	  0	 51	  2	  1	  5	  4	  2	  1	  1	  1	0.47440	  1	0.70000	  0	 15	 35	 36	  1	
08-May-2013	sub2340	2340	  1	  0	 52	  2	  1	  5	  4	  2	  0	  1	  0	0.47065	  1	0.70000	  0	 15	 37	 48	  1	
08-May-2013	sub2340	2340	  1	  0	 53	  2	  1	  5	  4	  2	  1	  1	  1	0.44920	  1	0.70000	  0	 15	 35	 36	  1	
08-May-2013	sub2340	2340	  1	  0	 54	  2	  1	  2	  5	  1	  1	  1	  0	0.41571	  0	0.70000	  0	 12	 40	 41	  1	
08-May-2013	sub2340	2340	  1	  0	 55	  2	  1	  3	  6	  1	  1	  1	  1	0.63159	  1	0.70000	  0	 13	 32	 33	  0	
08-May-2013	sub2340	2340	  1	  0	 56	  2	  1	  5	  4	  2	  1	  1	  1	0.46626	  1	0.70000	  0	 15	 35	 36	  1	
08-May-2013	sub2340	2340	  1	  0	 57	  2	  1	  4	  3	  6	  1	  1	  0	0.57769	  0	0.70000	  0	 14	 42	 43	  0	
08-May-2013	sub2340	2340	  1	  0	 58	  2	  1	  4	  3	  6	  1	  2	  1	0.59039	  1	0.70000	  0	 14	 32	 33	  0	
08-May-2013	sub2340	2340	  1	  0	 59	  2	  1	  2	  5	  1	  1	  1	  0	0.57742	  0	0.70000	  0	 12	 40	 41	  0	
08-May-2013	sub2340	2340	  1	  0	 60	  2	  1	  2	  5	  1	  1	  1	  0	0.56739	  0	0.70000	  0	 12	 40	 41	  0	
08-May-2013	sub2340	2340	  1	  0	 61	  2	  1	  1	  2	  6	  1	  1	  1	0.56201	  1	0.60000	  0	 11	 30	 31	  0	
08-May-2013	sub2340	2340	  1	  0	 62	  2	  1	  6	  1	  4	  1	  1	  0	0.53167	  0	0.60000	  0	 16	 45	 46	  0	
08-May-2013	sub2340	2340	  1	  0	 63	  2	  1	  6	  1	  4	  0	  1	  1	0.51510	  0	0.60000	  0	 16	 47	 38	  0	
08-May-2013	sub2340	2340	  1	  0	 64	  2	  1	  2	  5	  1	  1	  2	  1	0.69450	  1	0.60000	  1	 12	 30	 51	  0	
08-May-2013	sub2340	2340	  1	  0	 65	  2	  1	  4	  3	  6	  1	  2	  1	0.96980	  1	0.80000	  1	 14	 32	 51	  0	
08-May-2013	sub2340	2340	  1	  0	 66	  2	  1	  3	  6	  1	  1	  2	  0	0.51162	  0	0.90000	  0	 13	 42	 43	  0	
08-May-2013	sub2340	2340	  1	  0	 67	  2	  1	  2	  5	  1	  1	  2	  1	0.60057	  1	0.90000	  0	 12	 30	 31	  0	
08-May-2013	sub2340	2340	  1	  0	 68	  2	  1	  3	  6	  1	  1	  1	  1	0.55145	  1	0.90000	  0	 13	 32	 33	  0	
08-May-2013	sub2340	2340	  1	  0	 69	  2	  1	  4	  3	  6	  1	  2	  1	0.90444	  1	0.90000	  1	 14	 32	 51	  0	
08-May-2013	sub2340	2340	  1	  0	 70	  2	  1	  4	  3	  6	  1	  2	  1	0.56905	  1	0.90000	  0	 14	 32	 33	  0	
08-May-2013	sub2340	2340	  1	  0	 71	  2	  1	  4	  3	  6	  1	  2	  1	0.55908	  1	0.90000	  0	 14	 32	 33	  0	
08-May-2013	sub2340	2340	  1	  0	 72	  2	  1	  3	  6	  1	  1	  2	  0	0.32753	  0	0.90000	  0	 13	 42	 43	  1	
08-May-2013	sub2340	2340	  1	  0	 73	  2	  1	  5	  4	  2	  0	  1	  0	0.40813	  1	0.90000	  0	 15	 37	 48	  1	
08-May-2013	sub2340	2340	  1	  0	 74	  2	  1	  1	  2	  6	  1	  1	  1	0.49768	  1	0.90000	  0	 11	 30	 31	  1	
08-May-2013	sub2340	2340	  1	  0	 75	  2	  1	  3	  6	  1	  1	  1	  1	0.36278	  1	0.90000	  0	 13	 32	 33	  1	
08-May-2013	sub2340	2340	  1	  0	 76	  2	  2	  1	  2	  6	  1	  1	  1	0.15757	  1	0.90000	  0	 21	 60	 61	  1	
08-May-2013	sub2340	2340	  1	  0	 77	  2	  2	  2	  5	  1	  1	  1	  0	0.21600	  0	0.90000	  0	 22	 80	 81	  1	
08-May-2013	sub2340	2340	  1	  0	 78	  2	  2	  6	  1	  4	  1	  1	  0	10.63985	  0	0.90000	  1	 26	 85	 51	  0	
08-May-2013	sub2340	2340	  1	  0	 79	  2	  2	  3	  6	  1	  1	  2	  0	0.36068	  0	0.90000	  0	 23	 82	 83	  1	
08-May-2013	sub2340	2340	  1	  0	 80	  2	  2	  2	  5	  1	  1	  1	  0	1.29487	  0	0.90000	  1	 22	 80	 51	  0	
08-May-2013	sub2340	2340	  1	  0	 81	  2	  2	  5	  4	  2	  0	  1	  0	1.22767	  1	0.90000	  1	 25	 67	 51	  0	
08-May-2013	sub2340	2340	  1	  0	 82	  2	  2	  5	  4	  2	  0	  1	  0	0.10591	  1	0.90000	  0	 25	 67	 88	  1	
08-May-2013	sub2340	2340	  1	  0	 83	  2	  2	  6	  1	  4	  0	  2	  0	0.33860	  1	0.90000	  0	 26	 67	 88	  1	
08-May-2013	sub2340	2340	  1	  0	 84	  2	  2	  4	  3	  6	  1	  2	  1	0.25943	  1	0.90000	  0	 24	 62	 63	  1	
08-May-2013	sub2340	2340	  1	  0	 85	  2	  2	  4	  3	  6	  1	  2	  1	0.33348	  1	0.90000	  0	 24	 62	 63	  1	
08-May-2013	sub2340	2340	  1	  0	 86	  2	  2	  6	  1	  4	  1	  2	  1	0.57761	  1	0.90000	  0	 26	 65	 66	  0	
08-May-2013	sub2340	2340	  1	  0	 87	  2	  2	  4	  3	  6	  1	  2	  1	0.64050	  1	0.90000	  0	 24	 62	 63	  0	
08-May-2013	sub2340	2340	  1	  0	 88	  2	  2	  3	  6	  1	  1	  1	  1	0.44854	  1	0.90000	  0	 23	 62	 63	  1	
08-May-2013	sub2340	2340	  1	  0	 89	  2	  2	  5	  4	  2	  0	  2	  1	0.82106	  0	0.90000	  0	 25	 87	 68	  0	
08-May-2013	sub2340	2340	  1	  0	 90	  2	  2	  4	  3	  6	  1	  2	  1	0.58853	  1	0.90000	  0	 24	 62	 63	  0	
08-May-2013	sub2340	2340	  1	  0	 91	  2	  2	  5	  4	  2	  0	  2	  1	0.41058	  0	0.90000	  0	 25	 87	 68	  1	
08-May-2013	sub2340	2340	  1	  0	 92	  2	  2	  1	  2	  6	  1	  1	  1	0.54748	  1	0.90000	  0	 21	 60	 61	  0	
08-May-2013	sub2340	2340	  1	  0	 93	  2	  2	  1	  2	  6	  1	  1	  1	0.46165	  1	0.90000	  0	 21	 60	 61	  1	
08-May-2013	sub2340	2340	  1	  0	 94	  2	  2	  4	  3	  6	  1	  2	  1	0.35823	  1	0.90000	  0	 24	 62	 63	  1	
08-May-2013	sub2340	2340	  1	  0	 95	  2	  2	  2	  5	  1	  1	  2	  1	0.35732	  1	0.90000	  0	 22	 60	 61	  1	
08-May-2013	sub2340	2340	  1	  0	 96	  2	  2	  6	  1	  4	  1	  2	  1	0.42443	  1	0.90000	  0	 26	 65	 66	  1	
08-May-2013	sub2340	2340	  1	  0	 97	  2	  2	  4	  3	  6	  1	  2	  1	0.50212	  1	0.90000	  0	 24	 62	 63	  0	
08-May-2013	sub2340	2340	  1	  0	 98	  2	  2	  1	  2	  6	  1	  2	  0	0.41329	  0	0.90000	  0	 21	 80	 81	  1	
08-May-2013	sub2340	2340	  1	  0	 99	  2	  2	  2	  5	  1	  1	  2	  1	0.36905	  1	0.90000	  0	 22	 60	 61	  1	
08-May-2013	sub2340	2340	  1	  0	100	  2	  2	  2	  5	  1	  1	  2	  1	0.57799	  1	0.90000	  0	 22	 60	 61	  0	
08-May-2013	sub2340	2340	  1	  0	101	  2	  2	  3	  6	  1	  1	  2	  0	0.37207	  0	0.90000	  0	 23	 82	 83	  1	
08-May-2013	sub2340	2340	  1	  0	102	  2	  2	  6	  1	  4	  0	  1	  1	0.48302	  0	0.90000	  0	 26	 87	 68	  1	
08-May-2013	sub2340	2340	  1	  0	103	  2	  2	  1	  2	  6	  1	  1	  1	0.38926	  1	0.90000	  0	 21	 60	 61	  1	
08-May-2013	sub2340	2340	  1	  0	104	  2	  2	  3	  6	  1	  1	  1	  1	0.61490	  1	0.90000	  0	 23	 62	 63	  0	
08-May-2013	sub2340	2340	  1	  0	105	  2	  2	  2	  5	  1	  1	  1	  0	0.31601	  0	0.90000	  0	 22	 80	 81	  1	
08-May-2013	sub2340	2340	  1	  0	106	  2	  2	  6	  1	  4	  1	  1	  0	0.53185	  0	0.90000	  0	 26	 85	 86	  0	
08-May-2013	sub2340	2340	  1	  0	107	  2	  2	  1	  2	  6	  1	  1	  1	0.51273	  1	0.90000	  0	 21	 60	 61	  0	
08-May-2013	sub2340	2340	  1	  0	108	  2	  2	  3	  6	  1	  1	  1	  1	0.81995	  1	0.90000	  0	 23	 62	 63	  0	
08-May-2013	sub2340	2340	  1	  0	109	  2	  2	  5	  4	  2	  0	  2	  1	0.38273	  0	0.90000	  0	 25	 87	 68	  1	
08-May-2013	sub2340	2340	  1	  0	110	  2	  2	  3	  6	  1	  1	  1	  1	0.62321	  1	0.90000	  0	 23	 62	 63	  0	
08-May-2013	sub2340	2340	  1	  0	111	  2	  2	  2	  5	  1	  1	  2	  1	0.36691	  1	0.90000	  0	 22	 60	 61	  1	
08-May-2013	sub2340	2340	  1	  0	112	  2	  2	  6	  1	  4	  0	  1	  1	0.42234	  0	0.90000	  0	 26	 87	 68	  1	
08-May-2013	sub2340	2340	  1	  0	113	  2	  2	  3	  6	  1	  1	  1	  1	0.58868	  1	0.90000	  0	 23	 62	 63	  0	
08-May-2013	sub2340	2340	  1	  0	114	  2	  2	  5	  4	  2	  0	  2	  1	0.50144	  0	0.90000	  0	 25	 87	 68	  0	
08-May-2013	sub2340	2340	  1	  0	115	  2	  2	  6	  1	  4	  1	  2	  1	0.40444	  1	0.90000	  0	 26	 65	 66	  1	
08-May-2013	sub2340	2340	  1	  0	116	  2	  2	  5	  4	  2	  0	  2	  1	0.55987	  0	0.90000	  0	 25	 87	 68	  0	
08-May-2013	sub2340	2340	  1	  0	117	  2	  2	  2	  5	  1	  1	  1	  0	0.66648	  0	0.90000	  0	 22	 80	 81	  0	
08-May-2013	sub2340	2340	  1	  0	118	  2	  2	  6	  1	  4	  0	  2	  0	0.38244	  1	0.90000	  0	 26	 67	 88	  1	
08-May-2013	sub2340	2340	  1	  0	119	  2	  2	  2	  5	  1	  1	  2	  1	0.69380	  1	0.90000	  0	 22	 60	 61	  0	
08-May-2013	sub2340	2340	  1	  0	120	  2	  2	  5	  4	  2	  0	  1	  0	0.77303	  1	0.90000	  0	 25	 67	 88	  0	
08-May-2013	sub2340	2340	  1	  0	121	  2	  2	  1	  2	  6	  1	  1	  1	0.76960	  1	0.90000	  0	 21	 60	 61	  0	
08-May-2013	sub2340	2340	  1	  0	122	  2	  2	  6	  1	  4	  0	  2	  0	0.57271	  1	0.90000	  0	 26	 67	 88	  0	
08-May-2013	sub2340	2340	  1	  0	123	  2	  2	  5	  4	  2	  0	  1	  0	0.41275	  1	0.90000	  0	 25	 67	 88	  1	
08-May-2013	sub2340	2340	  1	  0	124	  2	  2	  6	  1	  4	  1	  2	  1	0.40966	  1	0.90000	  0	 26	 65	 66	  1	
08-May-2013	sub2340	2340	  1	  0	125	  2	  2	  3	  6	  1	  1	  1	  1	0.62125	  1	0.90000	  0	 23	 62	 63	  0	
08-May-2013	sub2340	2340	  1	  0	126	  2	  2	  2	  5	  1	  1	  2	  1	0.48581	  1	0.90000	  0	 22	 60	 61	  1	
08-May-2013	sub2340	2340	  1	  0	127	  2	  2	  4	  3	  6	  1	  2	  1	0.63545	  1	0.90000	  0	 24	 62	 63	  0	
08-May-2013	sub2340	2340	  1	  0	128	  2	  2	  4	  3	  6	  0	  2	  0	0.49030	  1	0.90000	  0	 24	 64	 89	  1	
08-May-2013	sub2340	2340	  1	  0	129	  2	  2	  5	  4	  2	  0	  2	  1	0.39690	  0	0.90000	  0	 25	 87	 68	  1	
08-May-2013	sub2340	2340	  1	  0	130	  2	  2	  6	  1	  4	  0	  1	  1	0.77554	  0	0.80000	  0	 26	 87	 68	  0	
08-May-2013	sub2340	2340	  1	  0	131	  2	  2	  1	  2	  6	  1	  2	  0	0.55141	  0	0.80000	  0	 21	 80	 81	  0	
08-May-2013	sub2340	2340	  1	  0	132	  2	  2	  1	  2	  6	  1	  2	  0	0.71803	  0	0.80000	  0	 21	 80	 81	  0	
08-May-2013	sub2340	2340	  1	  0	133	  2	  2	  1	  2	  6	  1	  1	  1	0.36412	  1	0.80000	  0	 21	 60	 61	  1	
08-May-2013	sub2340	2340	  1	  0	134	  2	  2	  4	  3	  6	  1	  2	  1	0.45180	  1	0.80000	  0	 24	 62	 63	  1	
08-May-2013	sub2340	2340	  1	  0	135	  2	  2	  3	  6	  1	  0	  1	  0	0.69086	  1	0.80000	  0	 23	 64	 89	  0	
08-May-2013	sub2340	2340	  1	  0	136	  2	  2	  5	  4	  2	  0	  2	  1	0.52162	  0	0.80000	  0	 25	 87	 68	  0	
08-May-2013	sub2340	2340	  1	  0	137	  2	  2	  4	  3	  6	  1	  2	  1	0.52864	  1	0.80000	  0	 24	 62	 63	  0	
08-May-2013	sub2340	2340	  1	  0	138	  2	  2	  4	  3	  6	  0	  2	  0	13.81119	  1	0.80000	  1	 24	 64	 51	  0	
08-May-2013	sub2340	2340	  1	  0	139	  2	  2	  4	  3	  6	  0	  2	  0	0.41523	  1	0.90000	  0	 24	 64	 89	  1	
08-May-2013	sub2340	2340	  1	  0	140	  2	  2	  3	  6	  1	  0	  2	  1	0.38535	  0	0.90000	  0	 23	 84	 69	  1	
08-May-2013	sub2340	2340	  1	  0	141	  2	  2	  4	  3	  6	  1	  2	  1	0.32909	  1	0.90000	  0	 24	 62	 63	  1	
08-May-2013	sub2340	2340	  1	  0	142	  2	  2	  2	  5	  1	  1	  2	  1	0.56484	  1	0.90000	  0	 22	 60	 61	  0	
08-May-2013	sub2340	2340	  1	  0	143	  2	  2	  1	  2	  6	  1	  2	  0	0.41562	  0	0.90000	  0	 21	 80	 81	  1	
08-May-2013	sub2340	2340	  1	  0	144	  2	  2	  1	  2	  6	  1	  2	  0	0.35623	  0	0.80000	  0	 21	 80	 81	  1	
08-May-2013	sub2340	2340	  1	  0	145	  2	  2	  5	  4	  2	  0	  2	  1	0.50258	  0	0.80000	  0	 25	 87	 68	  0	
08-May-2013	sub2340	2340	  1	  0	146	  2	  2	  5	  4	  2	  0	  2	  1	0.55257	  0	0.80000	  0	 25	 87	 68	  0	
08-May-2013	sub2340	2340	  1	  0	147	  2	  2	  3	  6	  1	  1	  1	  1	0.59415	  1	0.80000	  0	 23	 62	 63	  0	
08-May-2013	sub2340	2340	  1	  0	148	  2	  2	  1	  2	  6	  1	  2	  0	0.39902	  0	0.80000	  0	 21	 80	 81	  1	
08-May-2013	sub2340	2340	  1	  0	149	  2	  2	  2	  5	  1	  1	  2	  1	0.82772	  1	0.80000	  1	 22	 60	 51	  0	
08-May-2013	sub2340	2340	  1	  0	150	  2	  2	  3	  6	  1	  1	  1	  1	0.61698	  1	0.90000	  0	 23	 62	 63	  0	
08-May-2013	sub2340	2340	  1	  0	  1	  3	  1	  4	  5	  2	  1	  2	  1	0.35094	  1	0.60000	  0	 14	 32	 33	  1	
08-May-2013	sub2340	2340	  1	  0	  2	  3	  1	  5	  6	  2	  1	  2	  0	0.42018	  0	0.30000	  1	 15	 45	 51	  1	
08-May-2013	sub2340	2340	  1	  0	  3	  3	  1	  5	  6	  2	  1	  2	  0	0.28855	  0	0.90000	  0	 15	 45	 46	  1	
08-May-2013	sub2340	2340	  1	  0	  4	  3	  1	  6	  4	  6	  0	  2	  0	0.24911	  1	0.90000	  0	 16	 37	 48	  1	
08-May-2013	sub2340	2340	  1	  0	  5	  3	  1	  5	  6	  2	  1	  2	  0	0.45348	  0	0.90000	  0	 15	 45	 46	  1	
08-May-2013	sub2340	2340	  1	  0	  6	  3	  1	  6	  4	  6	  0	  2	  0	0.42979	  1	0.90000	  0	 16	 37	 48	  1	
08-May-2013	sub2340	2340	  1	  0	  7	  3	  1	  4	  5	  2	  1	  1	  0	0.55686	  0	0.90000	  0	 14	 42	 43	  0	
08-May-2013	sub2340	2340	  1	  0	  8	  3	  1	  1	  1	  5	  1	  2	  0	0.46170	  0	0.90000	  0	 11	 40	 41	  1	
08-May-2013	sub2340	2340	  1	  0	  9	  3	  1	  5	  6	  2	  0	  1	  0	0.65828	  1	0.90000	  0	 15	 37	 48	  0	
08-May-2013	sub2340	2340	  1	  0	 10	  3	  1	  1	  1	  5	  1	  1	  1	0.59504	  1	0.90000	  0	 11	 30	 31	  0	
08-May-2013	sub2340	2340	  1	  0	 11	  3	  1	  5	  6	  2	  1	  1	  1	0.45056	  1	0.90000	  0	 15	 35	 36	  1	
08-May-2013	sub2340	2340	  1	  0	 12	  3	  1	  1	  1	  5	  1	  1	  1	0.44988	  1	0.90000	  0	 11	 30	 31	  1	
08-May-2013	sub2340	2340	  1	  0	 13	  3	  1	  5	  6	  2	  0	  1	  0	0.47719	  1	0.90000	  0	 15	 37	 48	  1	
08-May-2013	sub2340	2340	  1	  0	 14	  3	  1	  6	  4	  6	  0	  1	  1	0.53288	  0	0.90000	  0	 16	 47	 38	  0	
08-May-2013	sub2340	2340	  1	  0	 15	  3	  1	  2	  3	  1	  1	  2	  1	0.67723	  1	0.90000	  0	 12	 30	 31	  0	
08-May-2013	sub2340	2340	  1	  0	 16	  3	  1	  3	  2	  1	  1	  2	  0	0.70777	  0	0.80000	  0	 13	 42	 43	  0	
08-May-2013	sub2340	2340	  1	  0	 17	  3	  1	  6	  4	  6	  1	  1	  0	0.50160	  0	0.80000	  0	 16	 45	 46	  0	
08-May-2013	sub2340	2340	  1	  0	 18	  3	  1	  1	  1	  5	  1	  1	  1	0.35279	  1	0.70000	  0	 11	 30	 31	  1	
08-May-2013	sub2340	2340	  1	  0	 19	  3	  1	  5	  6	  2	  0	  1	  0	0.63441	  1	0.70000	  0	 15	 37	 48	  0	
08-May-2013	sub2340	2340	  1	  0	 20	  3	  1	  2	  3	  1	  1	  2	  1	0.59743	  1	0.70000	  0	 12	 30	 31	  0	
08-May-2013	sub2340	2340	  1	  0	 21	  3	  1	  6	  4	  6	  1	  1	  0	0.48572	  0	0.60000	  0	 16	 45	 46	  1	
08-May-2013	sub2340	2340	  1	  0	 22	  3	  1	  2	  3	  1	  1	  2	  1	0.54813	  1	0.60000	  0	 12	 30	 31	  0	
08-May-2013	sub2340	2340	  1	  0	 23	  3	  1	  4	  5	  2	  1	  1	  0	0.71839	  0	0.60000	  1	 14	 42	 51	  0	
08-May-2013	sub2340	2340	  1	  0	 24	  3	  1	  3	  2	  1	  1	  2	  0	0.54759	  0	0.90000	  0	 13	 42	 43	  0	
08-May-2013	sub2340	2340	  1	  0	 25	  3	  1	  3	  2	  1	  1	  1	  1	0.39242	  1	0.90000	  0	 13	 32	 33	  1	
08-May-2013	sub2340	2340	  1	  0	 26	  3	  1	  3	  2	  1	  1	  1	  1	0.41723	  1	0.90000	  0	 13	 32	 33	  1	
08-May-2013	sub2340	2340	  1	  0	 27	  3	  1	  6	  4	  6	  1	  1	  0	0.57872	  0	0.90000	  0	 16	 45	 46	  0	
08-May-2013	sub2340	2340	  1	  0	 28	  3	  1	  5	  6	  2	  1	  2	  0	0.65785	  0	0.90000	  0	 15	 45	 46	  0	
08-May-2013	sub2340	2340	  1	  0	 29	  3	  1	  1	  1	  5	  1	  1	  1	0.60287	  1	0.90000	  0	 11	 30	 31	  0	
08-May-2013	sub2340	2340	  1	  0	 30	  3	  1	  4	  5	  2	  0	  1	  1	0.62734	  0	0.80000	  0	 14	 44	 39	  0	
08-May-2013	sub2340	2340	  1	  0	 31	  3	  1	  2	  3	  1	  1	  2	  1	0.50937	  1	0.80000	  0	 12	 30	 31	  0	
08-May-2013	sub2340	2340	  1	  0	 32	  3	  1	  2	  3	  1	  1	  1	  0	0.39787	  0	0.80000	  0	 12	 40	 41	  1	
08-May-2013	sub2340	2340	  1	  0	 33	  3	  1	  3	  2	  1	  1	  1	  1	0.42635	  1	0.80000	  0	 13	 32	 33	  1	
08-May-2013	sub2340	2340	  1	  0	 34	  3	  1	  5	  6	  2	  0	  2	  1	0.53379	  0	0.80000	  0	 15	 47	 38	  0	
08-May-2013	sub2340	2340	  1	  0	 35	  3	  1	  2	  3	  1	  1	  2	  1	0.67252	  1	0.70000	  0	 12	 30	 31	  0	
08-May-2013	sub2340	2340	  1	  0	 36	  3	  1	  6	  4	  6	  0	  2	  0	0.82780	  1	0.70000	  1	 16	 37	 51	  0	
08-May-2013	sub2340	2340	  1	  0	 37	  3	  1	  2	  3	  1	  1	  2	  1	0.29363	  1	0.90000	  0	 12	 30	 31	  1	
08-May-2013	sub2340	2340	  1	  0	 38	  3	  1	  1	  1	  5	  1	  1	  1	0.39458	  1	0.90000	  0	 11	 30	 31	  1	
08-May-2013	sub2340	2340	  1	  0	 39	  3	  1	  3	  2	  1	  1	  1	  1	0.30882	  1	0.90000	  0	 13	 32	 33	  1	
08-May-2013	sub2340	2340	  1	  0	 40	  3	  1	  5	  6	  2	  0	  1	  0	0.37928	  1	0.90000	  0	 15	 37	 48	  1	
08-May-2013	sub2340	2340	  1	  0	 41	  3	  1	  2	  3	  1	  1	  2	  1	0.59326	  1	0.90000	  0	 12	 30	 31	  0	
08-May-2013	sub2340	2340	  1	  0	 42	  3	  1	  1	  1	  5	  1	  1	  1	0.43412	  1	0.90000	  0	 11	 30	 31	  1	
08-May-2013	sub2340	2340	  1	  0	 43	  3	  1	  3	  2	  1	  1	  1	  1	0.34385	  1	0.90000	  0	 13	 32	 33	  1	
08-May-2013	sub2340	2340	  1	  0	 44	  3	  1	  3	  2	  1	  1	  1	  1	0.42601	  1	0.80000	  0	 13	 32	 33	  1	
08-May-2013	sub2340	2340	  1	  0	 45	  3	  1	  5	  6	  2	  0	  2	  1	0.45617	  0	0.80000	  0	 15	 47	 38	  1	
08-May-2013	sub2340	2340	  1	  0	 46	  3	  1	  1	  1	  5	  1	  1	  1	0.41740	  1	0.80000	  0	 11	 30	 31	  1	
08-May-2013	sub2340	2340	  1	  0	 47	  3	  1	  4	  5	  2	  1	  1	  0	0.48266	  0	0.80000	  0	 14	 42	 43	  1	
08-May-2013	sub2340	2340	  1	  0	 48	  3	  1	  6	  4	  6	  0	  2	  0	0.75137	  1	0.80000	  0	 16	 37	 48	  0	
08-May-2013	sub2340	2340	  1	  0	 49	  3	  1	  1	  1	  5	  1	  1	  1	0.51775	  1	0.80000	  0	 11	 30	 31	  0	
08-May-2013	sub2340	2340	  1	  0	 50	  3	  1	  6	  4	  6	  0	  1	  1	0.61542	  0	0.80000	  0	 16	 47	 38	  0	
08-May-2013	sub2340	2340	  1	  0	 51	  3	  1	  2	  3	  1	  1	  2	  1	0.57991	  1	0.70000	  0	 12	 30	 31	  0	
08-May-2013	sub2340	2340	  1	  0	 52	  3	  1	  6	  4	  6	  1	  1	  0	0.55841	  0	0.70000	  0	 16	 45	 46	  0	
08-May-2013	sub2340	2340	  1	  0	 53	  3	  1	  6	  4	  6	  1	  1	  0	0.48038	  0	0.70000	  0	 16	 45	 46	  1	
08-May-2013	sub2340	2340	  1	  0	 54	  3	  1	  4	  5	  2	  1	  1	  0	0.38859	  0	0.70000	  0	 14	 42	 43	  1	
08-May-2013	sub2340	2340	  1	  0	 55	  3	  1	  3	  2	  1	  1	  1	  1	0.33278	  1	0.70000	  0	 13	 32	 33	  1	
08-May-2013	sub2340	2340	  1	  0	 56	  3	  1	  2	  3	  1	  1	  1	  0	0.31989	  0	0.70000	  0	 12	 40	 41	  1	
08-May-2013	sub2340	2340	  1	  0	 57	  3	  1	  5	  6	  2	  1	  2	  0	0.52761	  0	0.70000	  0	 15	 45	 46	  0	
08-May-2013	sub2340	2340	  1	  0	 58	  3	  1	  2	  3	  1	  1	  1	  0	0.53124	  0	0.70000	  0	 12	 40	 41	  0	
08-May-2013	sub2340	2340	  1	  0	 59	  3	  1	  4	  5	  2	  1	  1	  0	0.52330	  0	0.70000	  0	 14	 42	 43	  0	
08-May-2013	sub2340	2340	  1	  0	 60	  3	  1	  2	  3	  1	  1	  2	  1	0.35335	  1	0.70000	  0	 12	 30	 31	  1	
08-May-2013	sub2340	2340	  1	  0	 61	  3	  1	  1	  1	  5	  1	  1	  1	0.56188	  1	0.60000	  0	 11	 30	 31	  0	
08-May-2013	sub2340	2340	  1	  0	 62	  3	  1	  6	  4	  6	  0	  2	  0	0.59802	  1	0.60000	  0	 16	 37	 48	  0	
08-May-2013	sub2340	2340	  1	  0	 63	  3	  1	  1	  1	  5	  1	  1	  1	0.49411	  1	0.60000	  0	 11	 30	 31	  1	
08-May-2013	sub2340	2340	  1	  0	 64	  3	  1	  4	  5	  2	  1	  1	  0	0.53289	  0	0.60000	  0	 14	 42	 43	  0	
08-May-2013	sub2340	2340	  1	  0	 65	  3	  1	  3	  2	  1	  0	  1	  0	0.51334	  1	0.60000	  0	 13	 34	 49	  0	
08-May-2013	sub2340	2340	  1	  0	 66	  3	  1	  3	  2	  1	  1	  1	  1	0.54889	  1	0.60000	  0	 13	 32	 33	  0	
08-May-2013	sub2340	2340	  1	  0	 67	  3	  1	  6	  4	  6	  1	  2	  1	0.63260	  1	0.60000	  1	 16	 35	 51	  0	
08-May-2013	sub2340	2340	  1	  0	 68	  3	  1	  4	  5	  2	  1	  2	  1	0.32029	  1	0.70000	  0	 14	 32	 33	  1	
08-May-2013	sub2340	2340	  1	  0	 69	  3	  1	  3	  2	  1	  0	  1	  0	0.37607	  1	0.70000	  0	 13	 34	 49	  1	
08-May-2013	sub2340	2340	  1	  0	 70	  3	  1	  1	  1	  5	  1	  1	  1	0.57673	  1	0.70000	  0	 11	 30	 31	  0	
08-May-2013	sub2340	2340	  1	  0	 71	  3	  1	  4	  5	  2	  1	  1	  0	0.48639	  0	0.70000	  0	 14	 42	 43	  1	
08-May-2013	sub2340	2340	  1	  0	 72	  3	  1	  4	  5	  2	  0	  2	  0	0.30081	  1	0.70000	  0	 14	 34	 49	  1	
08-May-2013	sub2340	2340	  1	  0	 73	  3	  1	  3	  2	  1	  0	  1	  0	0.53763	  1	0.70000	  0	 13	 34	 49	  0	
08-May-2013	sub2340	2340	  1	  0	 74	  3	  1	  2	  3	  1	  1	  2	  1	0.41931	  1	0.70000	  0	 12	 30	 31	  1	
08-May-2013	sub2340	2340	  1	  0	 75	  3	  1	  4	  5	  2	  1	  2	  1	0.41167	  1	0.70000	  0	 14	 32	 33	  1	
08-May-2013	sub2340	2340	  1	  0	 76	  3	  2	  1	  1	  5	  1	  2	  0	0.37732	  0	0.70000	  0	 21	 80	 81	  1	
08-May-2013	sub2340	2340	  1	  0	 77	  3	  2	  1	  1	  5	  1	  1	  1	0.53822	  1	0.70000	  0	 21	 60	 61	  0	
08-May-2013	sub2340	2340	  1	  0	 78	  3	  2	  3	  2	  1	  0	  2	  1	0.66866	  0	0.70000	  0	 23	 84	 69	  0	
08-May-2013	sub2340	2340	  1	  0	 79	  3	  2	  2	  3	  1	  1	  2	  1	0.53659	  1	0.70000	  0	 22	 60	 61	  0	
08-May-2013	sub2340	2340	  1	  0	 80	  3	  2	  4	  5	  2	  0	  2	  0	0.80160	  1	0.70000	  1	 24	 64	 51	  0	
08-May-2013	sub2340	2340	  1	  0	 81	  3	  2	  2	  3	  1	  1	  2	  1	0.52628	  1	0.80000	  0	 22	 60	 61	  0	
08-May-2013	sub2340	2340	  1	  0	 82	  3	  2	  6	  4	  6	  1	  2	  1	0.70685	  1	0.80000	  0	 26	 65	 66	  0	
08-May-2013	sub2340	2340	  1	  0	 83	  3	  2	  4	  5	  2	  0	  2	  0	0.50945	  1	0.80000	  0	 24	 64	 89	  0	
08-May-2013	sub2340	2340	  1	  0	 84	  3	  2	  1	  1	  5	  1	  1	  1	0.48992	  1	0.80000	  0	 21	 60	 61	  1	
08-May-2013	sub2340	2340	  1	  0	 85	  3	  2	  5	  6	  2	  0	  2	  1	0.57797	  0	0.70000	  0	 25	 87	 68	  0	
08-May-2013	sub2340	2340	  1	  0	 86	  3	  2	  2	  3	  1	  1	  2	  1	0.51970	  1	0.70000	  0	 22	 60	 61	  0	
08-May-2013	sub2340	2340	  1	  0	 87	  3	  2	  4	  5	  2	  1	  2	  1	0.62867	  1	0.70000	  0	 24	 62	 63	  0	
08-May-2013	sub2340	2340	  1	  0	 88	  3	  2	  1	  1	  5	  1	  2	  0	4.58433	  0	0.70000	  1	 21	 80	 51	  0	
08-May-2013	sub2340	2340	  1	  0	 89	  3	  2	  3	  2	  1	  1	  2	  0	0.38646	  0	0.80000	  0	 23	 82	 83	  1	
08-May-2013	sub2340	2340	  1	  0	 90	  3	  2	  6	  4	  6	  0	  2	  0	0.67563	  1	0.80000	  0	 26	 67	 88	  0	
08-May-2013	sub2340	2340	  1	  0	 91	  3	  2	  3	  2	  1	  1	  2	  0	0.43170	  0	0.80000	  0	 23	 82	 83	  1	
08-May-2013	sub2340	2340	  1	  0	 92	  3	  2	  2	  3	  1	  1	  1	  0	0.36873	  0	0.80000	  0	 22	 80	 81	  1	
08-May-2013	sub2340	2340	  1	  0	 93	  3	  2	  2	  3	  1	  1	  2	  1	0.24572	  1	0.80000	  0	 22	 60	 61	  1	
08-May-2013	sub2340	2340	  1	  0	 94	  3	  2	  3	  2	  1	  1	  1	  1	0.60068	  1	0.80000	  0	 23	 62	 63	  0	
08-May-2013	sub2340	2340	  1	  0	 95	  3	  2	  1	  1	  5	  1	  1	  1	0.47909	  1	0.80000	  0	 21	 60	 61	  1	
08-May-2013	sub2340	2340	  1	  0	 96	  3	  2	  5	  6	  2	  0	  2	  1	0.47357	  0	0.80000	  0	 25	 87	 68	  1	
08-May-2013	sub2340	2340	  1	  0	 97	  3	  2	  5	  6	  2	  0	  2	  1	0.55766	  0	0.80000	  0	 25	 87	 68	  0	
08-May-2013	sub2340	2340	  1	  0	 98	  3	  2	  5	  6	  2	  0	  2	  1	0.48324	  0	0.80000	  0	 25	 87	 68	  1	
08-May-2013	sub2340	2340	  1	  0	 99	  3	  2	  6	  4	  6	  1	  2	  1	0.86914	  1	0.80000	  1	 26	 65	 51	  0	
08-May-2013	sub2340	2340	  1	  0	100	  3	  2	  2	  3	  1	  1	  2	  1	0.51397	  1	0.90000	  0	 22	 60	 61	  0	
08-May-2013	sub2340	2340	  1	  0	101	  3	  2	  4	  5	  2	  1	  2	  1	0.69193	  1	0.80000	  0	 24	 62	 63	  0	
08-May-2013	sub2340	2340	  1	  0	102	  3	  2	  6	  4	  6	  0	  2	  0	0.75612	  1	0.80000	  0	 26	 67	 88	  0	
08-May-2013	sub2340	2340	  1	  0	103	  3	  2	  1	  1	  5	  1	  1	  1	0.53373	  1	0.80000	  0	 21	 60	 61	  0	
08-May-2013	sub2340	2340	  1	  0	104	  3	  2	  3	  2	  1	  1	  1	  1	0.40848	  1	0.80000	  0	 23	 62	 63	  1	
08-May-2013	sub2340	2340	  1	  0	105	  3	  2	  6	  4	  6	  1	  2	  1	0.60336	  1	0.80000	  0	 26	 65	 66	  0	
08-May-2013	sub2340	2340	  1	  0	106	  3	  2	  5	  6	  2	  0	  2	  1	0.54286	  0	0.80000	  0	 25	 87	 68	  0	
08-May-2013	sub2340	2340	  1	  0	107	  3	  2	  6	  4	  6	  1	  1	  0	0.54997	  0	0.80000	  0	 26	 85	 86	  0	
08-May-2013	sub2340	2340	  1	  0	108	  3	  2	  5	  6	  2	  0	  2	  1	0.40771	  0	0.80000	  0	 25	 87	 68	  1	
08-May-2013	sub2340	2340	  1	  0	109	  3	  2	  5	  6	  2	  0	  2	  1	0.45702	  0	0.80000	  0	 25	 87	 68	  1	
08-May-2013	sub2340	2340	  1	  0	110	  3	  2	  3	  2	  1	  1	  2	  0	0.42241	  0	0.80000	  0	 23	 82	 83	  1	
08-May-2013	sub2340	2340	  1	  0	111	  3	  2	  2	  3	  1	  1	  2	  1	0.40505	  1	0.80000	  0	 22	 60	 61	  1	
08-May-2013	sub2340	2340	  1	  0	112	  3	  2	  1	  1	  5	  1	  1	  1	0.55848	  1	0.80000	  0	 21	 60	 61	  0	
08-May-2013	sub2340	2340	  1	  0	113	  3	  2	  1	  1	  5	  1	  1	  1	0.50459	  1	0.80000	  0	 21	 60	 61	  0	
08-May-2013	sub2340	2340	  1	  0	114	  3	  2	  4	  5	  2	  1	  2	  1	0.61344	  1	0.80000	  0	 24	 62	 63	  0	
08-May-2013	sub2340	2340	  1	  0	115	  3	  2	  1	  1	  5	  1	  1	  1	0.55450	  1	0.80000	  0	 21	 60	 61	  0	
08-May-2013	sub2340	2340	  1	  0	116	  3	  2	  1	  1	  5	  1	  1	  1	0.46628	  1	0.80000	  0	 21	 60	 61	  1	
08-May-2013	sub2340	2340	  1	  0	117	  3	  2	  5	  6	  2	  0	  2	  1	0.47707	  0	0.80000	  0	 25	 87	 68	  1	
08-May-2013	sub2340	2340	  1	  0	118	  3	  2	  4	  5	  2	  1	  2	  1	0.61601	  1	0.70000	  0	 24	 62	 63	  0	
08-May-2013	sub2340	2340	  1	  0	119	  3	  2	  2	  3	  1	  1	  2	  1	0.34003	  1	0.70000	  0	 22	 60	 61	  1	
08-May-2013	sub2340	2340	  1	  0	120	  3	  2	  5	  6	  2	  0	  2	  1	0.44037	  0	0.70000	  0	 25	 87	 68	  1	
08-May-2013	sub2340	2340	  1	  0	121	  3	  2	  6	  4	  6	  0	  2	  0	0.60682	  1	0.70000	  0	 26	 67	 88	  0	
08-May-2013	sub2340	2340	  1	  0	122	  3	  2	  3	  2	  1	  1	  2	  0	0.39604	  0	0.70000	  0	 23	 82	 83	  1	
08-May-2013	sub2340	2340	  1	  0	123	  3	  2	  4	  5	  2	  1	  2	  1	0.35251	  1	0.70000	  0	 24	 62	 63	  1	
08-May-2013	sub2340	2340	  1	  0	124	  3	  2	  2	  3	  1	  1	  2	  1	0.39887	  1	0.70000	  0	 22	 60	 61	  1	
08-May-2013	sub2340	2340	  1	  0	125	  3	  2	  6	  4	  6	  0	  2	  0	0.39216	  1	0.70000	  0	 26	 67	 88	  1	
08-May-2013	sub2340	2340	  1	  0	126	  3	  2	  6	  4	  6	  1	  2	  1	0.48223	  1	0.70000	  0	 26	 65	 66	  1	
08-May-2013	sub2340	2340	  1	  0	127	  3	  2	  5	  6	  2	  0	  2	  1	0.52569	  0	0.70000	  0	 25	 87	 68	  0	
08-May-2013	sub2340	2340	  1	  0	128	  3	  2	  3	  2	  1	  0	  1	  0	0.53682	  1	0.70000	  0	 23	 64	 89	  0	
08-May-2013	sub2340	2340	  1	  0	129	  3	  2	  4	  5	  2	  1	  2	  1	0.55995	  1	0.70000	  0	 24	 62	 63	  0	
08-May-2013	sub2340	2340	  1	  0	130	  3	  2	  5	  6	  2	  0	  2	  1	0.50005	  0	0.70000	  0	 25	 87	 68	  1	
08-May-2013	sub2340	2340	  1	  0	131	  3	  2	  5	  6	  2	  0	  2	  1	0.45436	  0	0.70000	  0	 25	 87	 68	  1	
08-May-2013	sub2340	2340	  1	  0	132	  3	  2	  1	  1	  5	  1	  1	  1	0.49444	  1	0.70000	  0	 21	 60	 61	  1	
08-May-2013	sub2340	2340	  1	  0	133	  3	  2	  4	  5	  2	  1	  2	  1	0.55572	  1	0.70000	  0	 24	 62	 63	  0	
08-May-2013	sub2340	2340	  1	  0	134	  3	  2	  4	  5	  2	  1	  2	  1	0.42759	  1	0.70000	  0	 24	 62	 63	  1	
08-May-2013	sub2340	2340	  1	  0	135	  3	  2	  6	  4	  6	  0	  2	  0	0.54405	  1	0.70000	  0	 26	 67	 88	  0	
08-May-2013	sub2340	2340	  1	  0	136	  3	  2	  2	  3	  1	  1	  2	  1	0.43510	  1	0.70000	  0	 22	 60	 61	  1	
08-May-2013	sub2340	2340	  1	  0	137	  3	  2	  6	  4	  6	  1	  2	  1	0.45966	  1	0.70000	  0	 26	 65	 66	  1	
08-May-2013	sub2340	2340	  1	  0	138	  3	  2	  2	  3	  1	  1	  2	  1	0.51127	  1	0.70000	  0	 22	 60	 61	  0	
08-May-2013	sub2340	2340	  1	  0	139	  3	  2	  4	  5	  2	  0	  2	  0	0.52857	  1	0.70000	  0	 24	 64	 89	  0	
08-May-2013	sub2340	2340	  1	  0	140	  3	  2	  6	  4	  6	  0	  2	  0	0.56057	  1	0.70000	  0	 26	 67	 88	  0	
08-May-2013	sub2340	2340	  1	  0	141	  3	  2	  3	  2	  1	  1	  1	  1	0.81765	  1	0.60000	  1	 23	 62	 51	  0	
08-May-2013	sub2340	2340	  1	  0	142	  3	  2	  3	  2	  1	  1	  1	  1	0.35377	  1	0.70000	  0	 23	 62	 63	  1	
08-May-2013	sub2340	2340	  1	  0	143	  3	  2	  4	  5	  2	  1	  2	  1	0.48104	  1	0.70000	  0	 24	 62	 63	  1	
08-May-2013	sub2340	2340	  1	  0	144	  3	  2	  5	  6	  2	  0	  2	  1	0.66007	  0	0.70000	  0	 25	 87	 68	  0	
08-May-2013	sub2340	2340	  1	  0	145	  3	  2	  1	  1	  5	  1	  1	  1	0.54871	  1	0.70000	  0	 21	 60	 61	  0	
08-May-2013	sub2340	2340	  1	  0	146	  3	  2	  3	  2	  1	  1	  1	  1	0.52719	  1	0.70000	  0	 23	 62	 63	  0	
08-May-2013	sub2340	2340	  1	  0	147	  3	  2	  2	  3	  1	  1	  2	  1	0.58811	  1	0.70000	  0	 22	 60	 61	  0	
08-May-2013	sub2340	2340	  1	  0	148	  3	  2	  4	  5	  2	  1	  2	  1	0.40493	  1	0.70000	  0	 24	 62	 63	  1	
08-May-2013	sub2340	2340	  1	  0	149	  3	  2	  1	  1	  5	  1	  1	  1	0.59928	  1	0.70000	  0	 21	 60	 61	  0	
08-May-2013	sub2340	2340	  1	  0	150	  3	  2	  3	  2	  1	  1	  1	  1	0.51700	  1	0.70000	  0	 23	 62	 63	  0	
08-May-2013	sub2340	2340	  1	  0	  1	  4	  1	  2	  4	  1	  1	  1	  0	0.25181	  0	0.60000	  0	 12	 40	 41	  1	
08-May-2013	sub2340	2340	  1	  0	  2	  4	  1	  1	  3	  3	  1	  1	  1	0.36083	  1	0.30000	  1	 11	 30	 51	  1	
08-May-2013	sub2340	2340	  1	  0	  3	  4	  1	  1	  3	  3	  1	  1	  1	0.27023	  1	0.90000	  0	 11	 30	 31	  1	
08-May-2013	sub2340	2340	  1	  0	  4	  4	  1	  4	  1	  2	  1	  1	  0	0.51980	  0	0.90000	  0	 14	 42	 43	  0	
08-May-2013	sub2340	2340	  1	  0	  5	  4	  1	  6	  2	  3	  1	  1	  0	0.45991	  0	0.90000	  0	 16	 45	 46	  1	
08-May-2013	sub2340	2340	  1	  0	  6	  4	  1	  4	  1	  2	  1	  1	  0	0.38203	  0	0.90000	  0	 14	 42	 43	  1	
08-May-2013	sub2340	2340	  1	  0	  7	  4	  1	  1	  3	  3	  1	  1	  1	0.51466	  1	0.90000	  0	 11	 30	 31	  0	
08-May-2013	sub2340	2340	  1	  0	  8	  4	  1	  6	  2	  3	  1	  1	  0	0.66082	  0	0.90000	  0	 16	 45	 46	  0	
08-May-2013	sub2340	2340	  1	  0	  9	  4	  1	  1	  3	  3	  1	  1	  1	0.54072	  1	0.90000	  0	 11	 30	 31	  0	
08-May-2013	sub2340	2340	  1	  0	 10	  4	  1	  6	  2	  3	  0	  1	  1	0.41842	  0	0.90000	  0	 16	 47	 38	  1	
08-May-2013	sub2340	2340	  1	  0	 11	  4	  1	  2	  4	  1	  1	  1	  0	0.44762	  0	0.90000	  0	 12	 40	 41	  1	
08-May-2013	sub2340	2340	  1	  0	 12	  4	  1	  4	  1	  2	  1	  1	  0	0.31458	  0	0.90000	  0	 14	 42	 43	  1	
08-May-2013	sub2340	2340	  1	  0	 13	  4	  1	  1	  3	  3	  1	  1	  1	0.25457	  1	0.90000	  0	 11	 30	 31	  1	
08-May-2013	sub2340	2340	  1	  0	 14	  4	  1	  5	  5	  6	  0	  1	  0	0.33689	  1	0.90000	  0	 15	 37	 48	  1	
08-May-2013	sub2340	2340	  1	  0	 15	  4	  1	  6	  2	  3	  1	  1	  0	0.49857	  0	0.90000	  0	 16	 45	 46	  1	
08-May-2013	sub2340	2340	  1	  0	 16	  4	  1	  4	  1	  2	  1	  1	  0	0.25095	  0	0.80000	  0	 14	 42	 43	  1	
08-May-2013	sub2340	2340	  1	  0	 17	  4	  1	  5	  5	  6	  1	  1	  1	0.11090	  1	0.80000	  0	 15	 35	 36	  1	
08-May-2013	sub2340	2340	  1	  0	 18	  4	  1	  1	  3	  3	  1	  1	  1	0.42057	  1	0.70000	  0	 11	 30	 31	  1	
08-May-2013	sub2340	2340	  1	  0	 19	  4	  1	  4	  1	  2	  0	  1	  1	2.91733	  0	0.70000	  1	 14	 44	 51	  0	
08-May-2013	sub2340	2340	  1	  0	 20	  4	  1	  4	  1	  2	  1	  1	  0	0.24890	  0	0.90000	  0	 14	 42	 43	  1	
08-May-2013	sub2340	2340	  1	  0	 21	  4	  1	  2	  4	  1	  1	  1	  0	0.48351	  0	0.90000	  0	 12	 40	 41	  1	
08-May-2013	sub2340	2340	  1	  0	 22	  4	  1	  1	  3	  3	  1	  1	  1	0.19334	  1	0.90000	  0	 11	 30	 31	  1	
08-May-2013	sub2340	2340	  1	  0	 23	  4	  1	  5	  5	  6	  0	  1	  0	0.08714	  1	0.90000	  0	 15	 37	 48	  1	
08-May-2013	sub2340	2340	  1	  0	 24	  4	  1	  2	  4	  1	  1	  1	  0	1.05333	  0	0.90000	  1	 12	 40	 51	  0	
08-May-2013	sub2340	2340	  1	  0	 25	  4	  1	  3	  6	  6	  0	  1	  0	0.23765	  1	0.90000	  0	 13	 34	 49	  1	
08-May-2013	sub2340	2340	  1	  0	 26	  4	  1	  2	  4	  1	  1	  1	  0	0.26098	  0	0.90000	  0	 12	 40	 41	  1	
08-May-2013	sub2340	2340	  1	  0	 27	  4	  1	  6	  2	  3	  1	  1	  0	0.75702	  0	0.90000	  0	 16	 45	 46	  0	
08-May-2013	sub2340	2340	  1	  0	 28	  4	  1	  5	  5	  6	  0	  2	  1	2.11878	  0	0.90000	  1	 15	 47	 51	  0	
08-May-2013	sub2340	2340	  1	  0	 29	  4	  1	  2	  4	  1	  1	  2	  1	0.38065	  1	0.90000	  0	 12	 30	 31	  1	
08-May-2013	sub2340	2340	  1	  0	 30	  4	  1	  3	  6	  6	  1	  2	  0	0.43057	  0	0.90000	  0	 13	 42	 43	  1	
08-May-2013	sub2340	2340	  1	  0	 31	  4	  1	  3	  6	  6	  1	  1	  1	0.42834	  1	0.90000	  0	 13	 32	 33	  1	
08-May-2013	sub2340	2340	  1	  0	 32	  4	  1	  6	  2	  3	  1	  2	  1	0.89737	  1	0.90000	  0	 16	 35	 36	  0	
08-May-2013	sub2340	2340	  1	  0	 33	  4	  1	  1	  3	  3	  1	  2	  0	0.42395	  0	0.90000	  0	 11	 40	 41	  1	
08-May-2013	sub2340	2340	  1	  0	 34	  4	  1	  3	  6	  6	  1	  1	  1	0.45303	  1	0.90000	  0	 13	 32	 33	  1	
08-May-2013	sub2340	2340	  1	  0	 35	  4	  1	  6	  2	  3	  1	  2	  1	0.69819	  1	0.90000	  0	 16	 35	 36	  0	
08-May-2013	sub2340	2340	  1	  0	 36	  4	  1	  6	  2	  3	  0	  2	  0	0.47927	  1	0.90000	  0	 16	 37	 48	  1	
08-May-2013	sub2340	2340	  1	  0	 37	  4	  1	  5	  5	  6	  1	  2	  0	0.57278	  0	0.90000	  0	 15	 45	 46	  0	
08-May-2013	sub2340	2340	  1	  0	 38	  4	  1	  5	  5	  6	  0	  2	  1	0.50554	  0	0.90000	  0	 15	 47	 38	  0	
08-May-2013	sub2340	2340	  1	  0	 39	  4	  1	  4	  1	  2	  1	  2	  1	0.65244	  1	0.90000	  0	 14	 32	 33	  0	
08-May-2013	sub2340	2340	  1	  0	 40	  4	  1	  4	  1	  2	  1	  2	  1	0.46498	  1	0.90000	  0	 14	 32	 33	  1	
08-May-2013	sub2340	2340	  1	  0	 41	  4	  1	  5	  5	  6	  1	  2	  0	0.56201	  0	0.90000	  0	 15	 45	 46	  0	
08-May-2013	sub2340	2340	  1	  0	 42	  4	  1	  5	  5	  6	  1	  2	  0	0.60381	  0	0.90000	  0	 15	 45	 46	  0	
08-May-2013	sub2340	2340	  1	  0	 43	  4	  1	  3	  6	  6	  1	  1	  1	0.63594	  1	0.90000	  0	 13	 32	 33	  0	
08-May-2013	sub2340	2340	  1	  0	 44	  4	  1	  3	  6	  6	  1	  1	  1	0.45811	  1	0.90000	  0	 13	 32	 33	  1	
08-May-2013	sub2340	2340	  1	  0	 45	  4	  1	  6	  2	  3	  0	  2	  0	0.76109	  1	0.90000	  0	 16	 37	 48	  0	
08-May-2013	sub2340	2340	  1	  0	 46	  4	  1	  2	  4	  1	  1	  1	  0	0.40859	  0	0.90000	  0	 12	 40	 41	  1	
08-May-2013	sub2340	2340	  1	  0	 47	  4	  1	  3	  6	  6	  1	  1	  1	0.53401	  1	0.90000	  0	 13	 32	 33	  0	
08-May-2013	sub2340	2340	  1	  0	 48	  4	  1	  6	  2	  3	  0	  2	  0	0.59535	  1	0.90000	  0	 16	 37	 48	  0	
08-May-2013	sub2340	2340	  1	  0	 49	  4	  1	  5	  5	  6	  1	  2	  0	0.53280	  0	0.90000	  0	 15	 45	 46	  0	
08-May-2013	sub2340	2340	  1	  0	 50	  4	  1	  6	  2	  3	  0	  2	  0	0.86549	  1	0.90000	  0	 16	 37	 48	  0	
08-May-2013	sub2340	2340	  1	  0	 51	  4	  1	  6	  2	  3	  1	  1	  0	0.53957	  0	0.90000	  0	 16	 45	 46	  0	
08-May-2013	sub2340	2340	  1	  0	 52	  4	  1	  3	  6	  6	  1	  1	  1	0.47784	  1	0.90000	  0	 13	 32	 33	  1	
08-May-2013	sub2340	2340	  1	  0	 53	  4	  1	  1	  3	  3	  1	  1	  1	0.39260	  1	0.90000	  0	 11	 30	 31	  1	
08-May-2013	sub2340	2340	  1	  0	 54	  4	  1	  4	  1	  2	  0	  2	  0	0.62291	  1	0.90000	  0	 14	 34	 49	  0	
08-May-2013	sub2340	2340	  1	  0	 55	  4	  1	  1	  3	  3	  1	  1	  1	0.39221	  1	0.90000	  0	 11	 30	 31	  1	
08-May-2013	sub2340	2340	  1	  0	 56	  4	  1	  1	  3	  3	  1	  1	  1	0.48671	  1	0.90000	  0	 11	 30	 31	  1	
08-May-2013	sub2340	2340	  1	  0	 57	  4	  1	  3	  6	  6	  1	  1	  1	0.41402	  1	0.90000	  0	 13	 32	 33	  1	
08-May-2013	sub2340	2340	  1	  0	 58	  4	  1	  4	  1	  2	  1	  2	  1	0.69225	  1	0.90000	  0	 14	 32	 33	  0	
08-May-2013	sub2340	2340	  1	  0	 59	  4	  1	  2	  4	  1	  1	  2	  1	0.76379	  1	0.80000	  0	 12	 30	 31	  0	
08-May-2013	sub2340	2340	  1	  0	 60	  4	  1	  2	  4	  1	  1	  2	  1	0.79012	  1	0.80000	  0	 12	 30	 31	  0	
08-May-2013	sub2340	2340	  1	  0	 61	  4	  1	  1	  3	  3	  1	  1	  1	0.42069	  1	0.80000	  0	 11	 30	 31	  1	
08-May-2013	sub2340	2340	  1	  0	 62	  4	  1	  3	  6	  6	  1	  1	  1	0.35355	  1	0.80000	  0	 13	 32	 33	  1	
08-May-2013	sub2340	2340	  1	  0	 63	  4	  1	  5	  5	  6	  1	  1	  1	0.35199	  1	0.80000	  0	 15	 35	 36	  1	
08-May-2013	sub2340	2340	  1	  0	 64	  4	  1	  2	  4	  1	  1	  2	  1	0.56710	  1	0.80000	  0	 12	 30	 31	  0	
08-May-2013	sub2340	2340	  1	  0	 65	  4	  1	  4	  1	  2	  1	  2	  1	0.46728	  1	0.80000	  0	 14	 32	 33	  1	
08-May-2013	sub2340	2340	  1	  0	 66	  4	  1	  5	  5	  6	  0	  1	  0	0.42215	  1	0.80000	  0	 15	 37	 48	  1	
08-May-2013	sub2340	2340	  1	  0	 67	  4	  1	  3	  6	  6	  0	  1	  0	0.45371	  1	0.80000	  0	 13	 34	 49	  1	
08-May-2013	sub2340	2340	  1	  0	 68	  4	  1	  6	  2	  3	  0	  2	  0	0.63357	  1	0.70000	  0	 16	 37	 48	  0	
08-May-2013	sub2340	2340	  1	  0	 69	  4	  1	  2	  4	  1	  1	  2	  1	0.58587	  1	0.70000	  0	 12	 30	 31	  0	
08-May-2013	sub2340	2340	  1	  0	 70	  4	  1	  2	  4	  1	  1	  2	  1	0.46557	  1	0.70000	  0	 12	 30	 31	  1	
08-May-2013	sub2340	2340	  1	  0	 71	  4	  1	  3	  6	  6	  1	  1	  1	0.47494	  1	0.70000	  0	 13	 32	 33	  1	
08-May-2013	sub2340	2340	  1	  0	 72	  4	  1	  4	  1	  2	  1	  2	  1	0.45628	  1	0.70000	  0	 14	 32	 33	  1	
08-May-2013	sub2340	2340	  1	  0	 73	  4	  1	  3	  6	  6	  0	  1	  0	0.54443	  1	0.70000	  0	 13	 34	 49	  0	
08-May-2013	sub2340	2340	  1	  0	 74	  4	  1	  5	  5	  6	  0	  1	  0	0.43637	  1	0.70000	  0	 15	 37	 48	  1	
08-May-2013	sub2340	2340	  1	  0	 75	  4	  1	  2	  4	  1	  1	  2	  1	0.49755	  1	0.70000	  0	 12	 30	 31	  1	
08-May-2013	sub2340	2340	  1	  0	 76	  4	  2	  5	  5	  6	  0	  2	  1	0.58628	  0	0.70000	  0	 25	 87	 68	  0	
08-May-2013	sub2340	2340	  1	  0	 77	  4	  2	  5	  5	  6	  0	  2	  1	0.52410	  0	0.70000	  0	 25	 87	 68	  0	
08-May-2013	sub2340	2340	  1	  0	 78	  4	  2	  6	  2	  3	  1	  2	  1	0.41932	  1	0.70000	  0	 26	 65	 66	  1	
08-May-2013	sub2340	2340	  1	  0	 79	  4	  2	  4	  1	  2	  1	  2	  1	0.59752	  1	0.70000	  0	 24	 62	 63	  0	
08-May-2013	sub2340	2340	  1	  0	 80	  4	  2	  2	  4	  1	  1	  2	  1	0.38713	  1	0.70000	  0	 22	 60	 61	  1	
08-May-2013	sub2340	2340	  1	  0	 81	  4	  2	  1	  3	  3	  1	  2	  0	0.28046	  0	0.60000	  0	 21	 80	 81	  1	
08-May-2013	sub2340	2340	  1	  0	 82	  4	  2	  3	  6	  6	  1	  1	  1	0.50793	  1	0.60000	  0	 23	 62	 63	  0	
08-May-2013	sub2340	2340	  1	  0	 83	  4	  2	  4	  1	  2	  1	  2	  1	0.47826	  1	0.60000	  0	 24	 62	 63	  1	
08-May-2013	sub2340	2340	  1	  0	 84	  4	  2	  1	  3	  3	  1	  1	  1	0.61427	  1	0.60000	  1	 21	 60	 51	  0	
08-May-2013	sub2340	2340	  1	  0	 85	  4	  2	  5	  5	  6	  0	  2	  1	0.43435	  0	0.70000	  0	 25	 87	 68	  1	
08-May-2013	sub2340	2340	  1	  0	 86	  4	  2	  5	  5	  6	  0	  2	  1	0.52410	  0	0.70000	  0	 25	 87	 68	  0	
08-May-2013	sub2340	2340	  1	  0	 87	  4	  2	  6	  2	  3	  0	  1	  1	0.64826	  0	0.70000	  0	 26	 87	 68	  0	
08-May-2013	sub2340	2340	  1	  0	 88	  4	  2	  1	  3	  3	  1	  2	  0	0.39625	  0	0.70000	  0	 21	 80	 81	  1	
08-May-2013	sub2340	2340	  1	  0	 89	  4	  2	  1	  3	  3	  1	  1	  1	0.35079	  1	0.70000	  0	 21	 60	 61	  1	
08-May-2013	sub2340	2340	  1	  0	 90	  4	  2	  6	  2	  3	  0	  2	  0	0.57192	  1	0.70000	  0	 26	 67	 88	  0	
08-May-2013	sub2340	2340	  1	  0	 91	  4	  2	  4	  1	  2	  1	  2	  1	0.56841	  1	0.70000	  0	 24	 62	 63	  0	
08-May-2013	sub2340	2340	  1	  0	 92	  4	  2	  4	  1	  2	  1	  2	  1	0.39709	  1	0.70000	  0	 24	 62	 63	  1	
08-May-2013	sub2340	2340	  1	  0	 93	  4	  2	  2	  4	  1	  1	  2	  1	0.39333	  1	0.70000	  0	 22	 60	 61	  1	
08-May-2013	sub2340	2340	  1	  0	 94	  4	  2	  5	  5	  6	  0	  2	  1	0.49967	  0	0.70000	  0	 25	 87	 68	  1	
08-May-2013	sub2340	2340	  1	  0	 95	  4	  2	  6	  2	  3	  0	  1	  1	0.40766	  0	0.70000	  0	 26	 87	 68	  1	
08-May-2013	sub2340	2340	  1	  0	 96	  4	  2	  4	  1	  2	  1	  2	  1	0.58256	  1	0.70000	  0	 24	 62	 63	  0	
08-May-2013	sub2340	2340	  1	  0	 97	  4	  2	  6	  2	  3	  1	  1	  0	0.55070	  0	0.70000	  0	 26	 85	 86	  0	
08-May-2013	sub2340	2340	  1	  0	 98	  4	  2	  1	  3	  3	  1	  1	  1	0.52386	  1	0.70000	  0	 21	 60	 61	  0	
08-May-2013	sub2340	2340	  1	  0	 99	  4	  2	  5	  5	  6	  0	  2	  1	0.54044	  0	0.70000	  0	 25	 87	 68	  0	
08-May-2013	sub2340	2340	  1	  0	100	  4	  2	  6	  2	  3	  1	  1	  0	0.65425	  0	0.70000	  0	 26	 85	 86	  0	
08-May-2013	sub2340	2340	  1	  0	101	  4	  2	  5	  5	  6	  0	  2	  1	0.58998	  0	0.60000	  0	 25	 87	 68	  0	
08-May-2013	sub2340	2340	  1	  0	102	  4	  2	  6	  2	  3	  1	  2	  1	0.51744	  1	0.60000	  0	 26	 65	 66	  0	
08-May-2013	sub2340	2340	  1	  0	103	  4	  2	  3	  6	  6	  1	  2	  0	0.46676	  0	0.60000	  0	 23	 82	 83	  1	
08-May-2013	sub2340	2340	  1	  0	104	  4	  2	  3	  6	  6	  1	  1	  1	0.43456	  1	0.60000	  0	 23	 62	 63	  1	
08-May-2013	sub2340	2340	  1	  0	105	  4	  2	  2	  4	  1	  1	  2	  1	0.55634	  1	0.60000	  0	 22	 60	 61	  0	
08-May-2013	sub2340	2340	  1	  0	106	  4	  2	  2	  4	  1	  1	  2	  1	0.57027	  1	0.60000	  0	 22	 60	 61	  0	
08-May-2013	sub2340	2340	  1	  0	107	  4	  2	  4	  1	  2	  0	  2	  0	0.83816	  1	0.60000	  1	 24	 64	 51	  0	
08-May-2013	sub2340	2340	  1	  0	108	  4	  2	  3	  6	  6	  1	  1	  1	0.51051	  1	0.70000	  0	 23	 62	 63	  0	
08-May-2013	sub2340	2340	  1	  0	109	  4	  2	  1	  3	  3	  1	  1	  1	0.54177	  1	0.70000	  0	 21	 60	 61	  0	
08-May-2013	sub2340	2340	  1	  0	110	  4	  2	  1	  3	  3	  1	  1	  1	0.44381	  1	0.70000	  0	 21	 60	 61	  1	
08-May-2013	sub2340	2340	  1	  0	111	  4	  2	  1	  3	  3	  1	  1	  1	0.39832	  1	0.70000	  0	 21	 60	 61	  1	
08-May-2013	sub2340	2340	  1	  0	112	  4	  2	  2	  4	  1	  1	  2	  1	0.52393	  1	0.70000	  0	 22	 60	 61	  0	
08-May-2013	sub2340	2340	  1	  0	113	  4	  2	  3	  6	  6	  1	  1	  1	0.58154	  1	0.70000	  0	 23	 62	 63	  0	
08-May-2013	sub2340	2340	  1	  0	114	  4	  2	  2	  4	  1	  1	  2	  1	0.65368	  1	0.70000	  0	 22	 60	 61	  0	
08-May-2013	sub2340	2340	  1	  0	115	  4	  2	  3	  6	  6	  1	  1	  1	0.50449	  1	0.70000	  0	 23	 62	 63	  0	
08-May-2013	sub2340	2340	  1	  0	116	  4	  2	  2	  4	  1	  1	  2	  1	0.50385	  1	0.70000	  0	 22	 60	 61	  0	
08-May-2013	sub2340	2340	  1	  0	117	  4	  2	  4	  1	  2	  1	  2	  1	0.64297	  1	0.70000	  0	 24	 62	 63	  0	
08-May-2013	sub2340	2340	  1	  0	118	  4	  2	  1	  3	  3	  1	  1	  1	0.49634	  1	0.70000	  0	 21	 60	 61	  1	
08-May-2013	sub2340	2340	  1	  0	119	  4	  2	  5	  5	  6	  0	  2	  1	0.55918	  0	0.70000	  0	 25	 87	 68	  0	
08-May-2013	sub2340	2340	  1	  0	120	  4	  2	  3	  6	  6	  1	  1	  1	0.51674	  1	0.70000	  0	 23	 62	 63	  0	
08-May-2013	sub2340	2340	  1	  0	121	  4	  2	  4	  1	  2	  1	  2	  1	0.45784	  1	0.60000	  0	 24	 62	 63	  1	
08-May-2013	sub2340	2340	  1	  0	122	  4	  2	  4	  1	  2	  1	  2	  1	0.45583	  1	0.60000	  0	 24	 62	 63	  1	
08-May-2013	sub2340	2340	  1	  0	123	  4	  2	  4	  1	  2	  1	  2	  1	0.47522	  1	0.60000	  0	 24	 62	 63	  1	
08-May-2013	sub2340	2340	  1	  0	124	  4	  2	  2	  4	  1	  1	  2	  1	0.51087	  1	0.60000	  0	 22	 60	 61	  0	
08-May-2013	sub2340	2340	  1	  0	125	  4	  2	  5	  5	  6	  0	  2	  1	0.53819	  0	0.60000	  0	 25	 87	 68	  0	
08-May-2013	sub2340	2340	  1	  0	126	  4	  2	  6	  2	  3	  0	  2	  0	0.85797	  1	0.60000	  1	 26	 67	 51	  0	
08-May-2013	sub2340	2340	  1	  0	127	  4	  2	  2	  4	  1	  1	  2	  1	0.46384	  1	0.70000	  0	 22	 60	 61	  1	
08-May-2013	sub2340	2340	  1	  0	128	  4	  2	  5	  5	  6	  0	  2	  1	0.48008	  0	0.70000	  0	 25	 87	 68	  1	
08-May-2013	sub2340	2340	  1	  0	129	  4	  2	  3	  6	  6	  0	  2	  1	0.45080	  0	0.70000	  0	 23	 84	 69	  1	
08-May-2013	sub2340	2340	  1	  0	130	  4	  2	  6	  2	  3	  0	  2	  0	0.74980	  1	0.70000	  1	 26	 67	 51	  0	
08-May-2013	sub2340	2340	  1	  0	131	  4	  2	  5	  5	  6	  0	  2	  1	0.50213	  0	0.80000	  0	 25	 87	 68	  0	
08-May-2013	sub2340	2340	  1	  0	132	  4	  2	  5	  5	  6	  0	  2	  1	0.60695	  0	0.80000	  0	 25	 87	 68	  0	
08-May-2013	sub2340	2340	  1	  0	133	  4	  2	  3	  6	  6	  0	  1	  0	0.38097	  1	0.80000	  0	 23	 64	 89	  1	
08-May-2013	sub2340	2340	  1	  0	134	  4	  2	  3	  6	  6	  1	  1	  1	0.40244	  1	0.80000	  0	 23	 62	 63	  1	
08-May-2013	sub2340	2340	  1	  0	135	  4	  2	  3	  6	  6	  1	  1	  1	0.41828	  1	0.70000	  0	 23	 62	 63	  1	
08-May-2013	sub2340	2340	  1	  0	136	  4	  2	  4	  1	  2	  1	  2	  1	0.54117	  1	0.70000	  0	 24	 62	 63	  0	
08-May-2013	sub2340	2340	  1	  0	137	  4	  2	  1	  3	  3	  1	  1	  1	0.49120	  1	0.70000	  0	 21	 60	 61	  1	
08-May-2013	sub2340	2340	  1	  0	138	  4	  2	  1	  3	  3	  1	  1	  1	0.38711	  1	0.70000	  0	 21	 60	 61	  1	
08-May-2013	sub2340	2340	  1	  0	139	  4	  2	  1	  3	  3	  1	  1	  1	0.39197	  1	0.70000	  0	 21	 60	 61	  1	
08-May-2013	sub2340	2340	  1	  0	140	  4	  2	  4	  1	  2	  0	  2	  0	0.35799	  1	0.70000	  0	 24	 64	 89	  1	
08-May-2013	sub2340	2340	  1	  0	141	  4	  2	  3	  6	  6	  1	  1	  1	0.53565	  1	0.70000	  0	 23	 62	 63	  0	
08-May-2013	sub2340	2340	  1	  0	142	  4	  2	  1	  3	  3	  1	  1	  1	0.46704	  1	0.70000	  0	 21	 60	 61	  1	
08-May-2013	sub2340	2340	  1	  0	143	  4	  2	  2	  4	  1	  1	  2	  1	0.38334	  1	0.70000	  0	 22	 60	 61	  1	
08-May-2013	sub2340	2340	  1	  0	144	  4	  2	  6	  2	  3	  1	  2	  1	0.74702	  1	0.70000	  1	 26	 65	 51	  0	
08-May-2013	sub2340	2340	  1	  0	145	  4	  2	  2	  4	  1	  1	  2	  1	0.53862	  1	0.80000	  0	 22	 60	 61	  0	
08-May-2013	sub2340	2340	  1	  0	146	  4	  2	  2	  4	  1	  1	  2	  1	0.39893	  1	0.80000	  0	 22	 60	 61	  1	
08-May-2013	sub2340	2340	  1	  0	147	  4	  2	  4	  1	  2	  0	  2	  0	0.45570	  1	0.80000	  0	 24	 64	 89	  1	
08-May-2013	sub2340	2340	  1	  0	148	  4	  2	  5	  5	  6	  0	  2	  1	0.52343	  0	0.80000	  0	 25	 87	 68	  0	
08-May-2013	sub2340	2340	  1	  0	149	  4	  2	  6	  2	  3	  0	  1	  1	0.55212	  0	0.80000	  0	 26	 87	 68	  0	
08-May-2013	sub2340	2340	  1	  0	150	  4	  2	  6	  2	  3	  1	  1	  0	0.61782	  0	0.80000	  0	 26	 85	 86	  0	
08-May-2013	sub2340	2340	  1	  0	  1	  5	  1	  3	  5	  5	  1	  2	  0	4.50709	  0	0.60000	  1	 13	 42	 51	  0	
08-May-2013	sub2340	2340	  1	  0	  2	  5	  1	  6	  1	  1	  1	  2	  1	0.49432	  1	0.90000	  0	 16	 35	 36	  1	
08-May-2013	sub2340	2340	  1	  0	  3	  5	  1	  4	  3	  5	  0	  2	  0	0.45492	  1	0.90000	  0	 14	 34	 49	  1	
08-May-2013	sub2340	2340	  1	  0	  4	  5	  1	  4	  3	  5	  1	  2	  1	0.37050	  1	0.90000	  0	 14	 32	 33	  1	
08-May-2013	sub2340	2340	  1	  0	  5	  5	  1	  2	  4	  5	  1	  2	  1	0.46790	  1	0.90000	  0	 12	 30	 31	  1	
08-May-2013	sub2340	2340	  1	  0	  6	  5	  1	  5	  6	  5	  1	  2	  0	0.46552	  0	0.90000	  0	 15	 45	 46	  1	
08-May-2013	sub2340	2340	  1	  0	  7	  5	  1	  3	  5	  5	  1	  2	  0	0.40739	  0	0.90000	  0	 13	 42	 43	  1	
08-May-2013	sub2340	2340	  1	  0	  8	  5	  1	  6	  1	  1	  1	  2	  1	0.35212	  1	0.90000	  0	 16	 35	 36	  1	
08-May-2013	sub2340	2340	  1	  0	  9	  5	  1	  6	  1	  1	  0	  2	  0	0.38258	  1	0.90000	  0	 16	 37	 48	  1	
08-May-2013	sub2340	2340	  1	  0	 10	  5	  1	  5	  6	  5	  0	  2	  1	0.32840	  0	0.90000	  0	 15	 47	 38	  1	
08-May-2013	sub2340	2340	  1	  0	 11	  5	  1	  6	  1	  1	  0	  2	  0	0.42240	  1	0.90000	  0	 16	 37	 48	  1	
08-May-2013	sub2340	2340	  1	  0	 12	  5	  1	  1	  2	  5	  1	  2	  0	0.35870	  0	0.90000	  0	 11	 40	 41	  1	
08-May-2013	sub2340	2340	  1	  0	 13	  5	  1	  1	  2	  5	  1	  2	  0	0.28792	  0	0.90000	  0	 11	 40	 41	  1	
08-May-2013	sub2340	2340	  1	  0	 14	  5	  1	  5	  6	  5	  1	  2	  0	0.33332	  0	0.90000	  0	 15	 45	 46	  1	
08-May-2013	sub2340	2340	  1	  0	 15	  5	  1	  5	  6	  5	  0	  2	  1	0.40849	  0	0.90000	  0	 15	 47	 38	  1	
08-May-2013	sub2340	2340	  1	  0	 16	  5	  1	  3	  5	  5	  1	  2	  0	0.51462	  0	0.80000	  0	 13	 42	 43	  0	
08-May-2013	sub2340	2340	  1	  0	 17	  5	  1	  6	  1	  1	  0	  2	  0	0.35131	  1	0.80000	  0	 16	 37	 48	  1	
08-May-2013	sub2340	2340	  1	  0	 18	  5	  1	  6	  1	  1	  1	  2	  1	0.12329	  1	0.70000	  0	 16	 35	 36	  1	
08-May-2013	sub2340	2340	  1	  0	 19	  5	  1	  5	  6	  5	  0	  2	  1	0.41665	  0	0.70000	  0	 15	 47	 38	  1	
08-May-2013	sub2340	2340	  1	  0	 20	  5	  1	  4	  3	  5	  1	  2	  1	0.58053	  1	0.70000	  0	 14	 32	 33	  0	
08-May-2013	sub2340	2340	  1	  0	 21	  5	  1	  6	  1	  1	  0	  2	  0	0.38587	  1	0.60000	  0	 16	 37	 48	  1	
08-May-2013	sub2340	2340	  1	  0	 22	  5	  1	  2	  4	  5	  1	  2	  1	0.36777	  1	0.60000	  0	 12	 30	 31	  1	
08-May-2013	sub2340	2340	  1	  0	 23	  5	  1	  4	  3	  5	  1	  2	  1	0.29583	  1	0.60000	  0	 14	 32	 33	  1	
08-May-2013	sub2340	2340	  1	  0	 24	  5	  1	  2	  4	  5	  1	  2	  1	0.26506	  1	0.60000	  0	 12	 30	 31	  1	
08-May-2013	sub2340	2340	  1	  0	 25	  5	  1	  4	  3	  5	  1	  2	  1	0.33186	  1	0.60000	  0	 14	 32	 33	  1	
08-May-2013	sub2340	2340	  1	  0	 26	  5	  1	  4	  3	  5	  1	  2	  1	0.30791	  1	0.50000	  0	 14	 32	 33	  1	
08-May-2013	sub2340	2340	  1	  0	 27	  5	  1	  3	  5	  5	  0	  1	  0	0.45806	  1	0.50000	  0	 13	 34	 49	  1	
08-May-2013	sub2340	2340	  1	  0	 28	  5	  1	  4	  3	  5	  1	  2	  1	0.54410	  1	0.50000	  1	 14	 32	 51	  0	
08-May-2013	sub2340	2340	  1	  0	 29	  5	  1	  2	  4	  5	  1	  2	  1	0.72767	  1	0.90000	  0	 12	 30	 31	  0	
08-May-2013	sub2340	2340	  1	  0	 30	  5	  1	  5	  6	  5	  1	  1	  1	0.51117	  1	0.80000	  0	 15	 35	 36	  0	
08-May-2013	sub2340	2340	  1	  0	 31	  5	  1	  2	  4	  5	  1	  2	  1	0.50525	  1	0.80000	  0	 12	 30	 31	  0	
08-May-2013	sub2340	2340	  1	  0	 32	  5	  1	  2	  4	  5	  1	  2	  1	0.46297	  1	0.80000	  0	 12	 30	 31	  1	
08-May-2013	sub2340	2340	  1	  0	 33	  5	  1	  2	  4	  5	  1	  2	  1	0.36768	  1	0.80000	  0	 12	 30	 31	  1	
08-May-2013	sub2340	2340	  1	  0	 34	  5	  1	  2	  4	  5	  1	  2	  1	0.44308	  1	0.80000	  0	 12	 30	 31	  1	
08-May-2013	sub2340	2340	  1	  0	 35	  5	  1	  3	  5	  5	  1	  2	  0	0.38259	  0	0.70000	  0	 13	 42	 43	  1	
08-May-2013	sub2340	2340	  1	  0	 36	  5	  1	  2	  4	  5	  1	  2	  1	0.35187	  1	0.70000	  0	 12	 30	 31	  1	
08-May-2013	sub2340	2340	  1	  0	 37	  5	  1	  2	  4	  5	  1	  2	  1	0.35427	  1	0.70000	  0	 12	 30	 31	  1	
08-May-2013	sub2340	2340	  1	  0	 38	  5	  1	  3	  5	  5	  1	  2	  0	0.40112	  0	0.70000	  0	 13	 42	 43	  1	
08-May-2013	sub2340	2340	  1	  0	 39	  5	  1	  5	  6	  5	  1	  2	  0	0.32219	  0	0.70000	  0	 15	 45	 46	  1	
08-May-2013	sub2340	2340	  1	  0	 40	  5	  1	  2	  4	  5	  1	  2	  1	0.33426	  1	0.70000	  0	 12	 30	 31	  1	
08-May-2013	sub2340	2340	  1	  0	 41	  5	  1	  3	  5	  5	  0	  1	  0	0.54136	  1	0.60000	  0	 13	 34	 49	  0	
08-May-2013	sub2340	2340	  1	  0	 42	  5	  1	  4	  3	  5	  1	  2	  1	0.74814	  1	0.60000	  1	 14	 32	 51	  0	
08-May-2013	sub2340	2340	  1	  0	 43	  5	  1	  3	  5	  5	  1	  2	  0	0.41223	  0	0.90000	  0	 13	 42	 43	  1	
08-May-2013	sub2340	2340	  1	  0	 44	  5	  1	  6	  1	  1	  1	  2	  1	0.35075	  1	0.80000	  0	 16	 35	 36	  1	
08-May-2013	sub2340	2340	  1	  0	 45	  5	  1	  4	  3	  5	  1	  2	  1	0.37709	  1	0.80000	  0	 14	 32	 33	  1	
08-May-2013	sub2340	2340	  1	  0	 46	  5	  1	  2	  4	  5	  1	  2	  1	0.33661	  1	0.80000	  0	 12	 30	 31	  1	
08-May-2013	sub2340	2340	  1	  0	 47	  5	  1	  4	  3	  5	  0	  2	  0	0.35214	  1	0.80000	  0	 14	 34	 49	  1	
08-May-2013	sub2340	2340	  1	  0	 48	  5	  1	  4	  3	  5	  1	  2	  1	0.36896	  1	0.80000	  0	 14	 32	 33	  1	
08-May-2013	sub2340	2340	  1	  0	 49	  5	  1	  1	  2	  5	  1	  2	  0	0.69928	  0	0.80000	  0	 11	 40	 41	  0	
08-May-2013	sub2340	2340	  1	  0	 50	  5	  1	  6	  1	  1	  0	  2	  0	0.44049	  1	0.80000	  0	 16	 37	 48	  1	
08-May-2013	sub2340	2340	  1	  0	 51	  5	  1	  3	  5	  5	  1	  2	  0	0.47733	  0	0.70000	  0	 13	 42	 43	  1	
08-May-2013	sub2340	2340	  1	  0	 52	  5	  1	  4	  3	  5	  1	  2	  1	0.36504	  1	0.70000	  0	 14	 32	 33	  1	
08-May-2013	sub2340	2340	  1	  0	 53	  5	  1	  1	  2	  5	  1	  2	  0	0.39326	  0	0.70000	  0	 11	 40	 41	  1	
08-May-2013	sub2340	2340	  1	  0	 54	  5	  1	  1	  2	  5	  1	  2	  0	0.35816	  0	0.70000	  0	 11	 40	 41	  1	
08-May-2013	sub2340	2340	  1	  0	 55	  5	  1	  1	  2	  5	  1	  1	  1	0.59503	  1	0.70000	  0	 11	 30	 31	  0	
08-May-2013	sub2340	2340	  1	  0	 56	  5	  1	  5	  6	  5	  0	  1	  0	0.87293	  1	0.70000	  1	 15	 37	 51	  0	
08-May-2013	sub2340	2340	  1	  0	 57	  5	  1	  3	  5	  5	  1	  1	  1	0.66790	  1	0.90000	  0	 13	 32	 33	  0	
08-May-2013	sub2340	2340	  1	  0	 58	  5	  1	  1	  2	  5	  1	  1	  1	0.66186	  1	0.90000	  0	 11	 30	 31	  0	
08-May-2013	sub2340	2340	  1	  0	 59	  5	  1	  3	  5	  5	  1	  1	  1	0.59036	  1	0.80000	  0	 13	 32	 33	  0	
08-May-2013	sub2340	2340	  1	  0	 60	  5	  1	  6	  1	  1	  1	  2	  1	0.64878	  1	0.80000	  0	 16	 35	 36	  0	
08-May-2013	sub2340	2340	  1	  0	 61	  5	  1	  1	  2	  5	  1	  1	  1	0.57573	  1	0.80000	  0	 11	 30	 31	  0	
08-May-2013	sub2340	2340	  1	  0	 62	  5	  1	  6	  1	  1	  0	  1	  1	0.45475	  0	0.80000	  0	 16	 47	 38	  1	
08-May-2013	sub2340	2340	  1	  0	 63	  5	  1	  6	  1	  1	  1	  1	  0	0.38064	  0	0.80000	  0	 16	 45	 46	  1	
08-May-2013	sub2340	2340	  1	  0	 64	  5	  1	  1	  2	  5	  1	  1	  1	0.30655	  1	0.80000	  0	 11	 30	 31	  1	
08-May-2013	sub2340	2340	  1	  0	 65	  5	  1	  5	  6	  5	  0	  1	  0	0.73943	  1	0.80000	  0	 15	 37	 48	  0	
08-May-2013	sub2340	2340	  1	  0	 66	  5	  1	  3	  5	  5	  1	  1	  1	0.60536	  1	0.80000	  0	 13	 32	 33	  0	
08-May-2013	sub2340	2340	  1	  0	 67	  5	  1	  1	  2	  5	  1	  1	  1	0.47939	  1	0.80000	  0	 11	 30	 31	  1	
08-May-2013	sub2340	2340	  1	  0	 68	  5	  1	  1	  2	  5	  1	  1	  1	0.34823	  1	0.70000	  0	 11	 30	 31	  1	
08-May-2013	sub2340	2340	  1	  0	 69	  5	  1	  1	  2	  5	  1	  1	  1	0.38281	  1	0.70000	  0	 11	 30	 31	  1	
08-May-2013	sub2340	2340	  1	  0	 70	  5	  1	  5	  6	  5	  0	  1	  0	0.66948	  1	0.70000	  0	 15	 37	 48	  0	
08-May-2013	sub2340	2340	  1	  0	 71	  5	  1	  3	  5	  5	  0	  1	  0	0.37085	  1	0.70000	  0	 13	 34	 49	  1	
08-May-2013	sub2340	2340	  1	  0	 72	  5	  1	  5	  6	  5	  1	  1	  1	0.30083	  1	0.70000	  0	 15	 35	 36	  1	
08-May-2013	sub2340	2340	  1	  0	 73	  5	  1	  2	  4	  5	  1	  2	  1	0.55588	  1	0.70000	  0	 12	 30	 31	  0	
08-May-2013	sub2340	2340	  1	  0	 74	  5	  1	  6	  1	  1	  0	  1	  1	0.56769	  0	0.70000	  0	 16	 47	 38	  0	
08-May-2013	sub2340	2340	  1	  0	 75	  5	  1	  5	  6	  5	  1	  2	  0	0.81104	  0	0.70000	  1	 15	 45	 51	  0	
08-May-2013	sub2340	2340	  1	  0	 76	  5	  2	  6	  1	  1	  1	  1	  0	0.48433	  0	0.80000	  0	 26	 85	 86	  1	
08-May-2013	sub2340	2340	  1	  0	 77	  5	  2	  2	  4	  5	  1	  1	  0	0.49212	  0	0.80000	  0	 22	 80	 81	  1	
08-May-2013	sub2340	2340	  1	  0	 78	  5	  2	  5	  6	  5	  0	  1	  0	0.47028	  1	0.80000	  0	 25	 67	 88	  1	
08-May-2013	sub2340	2340	  1	  0	 79	  5	  2	  5	  6	  5	  0	  2	  1	0.69868	  0	0.80000	  0	 25	 87	 68	  0	
08-May-2013	sub2340	2340	  1	  0	 80	  5	  2	  3	  5	  5	  1	  1	  1	0.75835	  1	0.80000	  0	 23	 62	 63	  0	
08-May-2013	sub2340	2340	  1	  0	 81	  5	  2	  4	  3	  5	  0	  2	  0	0.55886	  1	0.80000	  0	 24	 64	 89	  0	
08-May-2013	sub2340	2340	  1	  0	 82	  5	  2	  4	  3	  5	  1	  2	  1	0.44581	  1	0.80000	  0	 24	 62	 63	  1	
08-May-2013	sub2340	2340	  1	  0	 83	  5	  2	  5	  6	  5	  0	  1	  0	0.67469	  1	0.80000	  0	 25	 67	 88	  0	
08-May-2013	sub2340	2340	  1	  0	 84	  5	  2	  2	  4	  5	  1	  2	  1	0.54215	  1	0.80000	  0	 22	 60	 61	  0	
08-May-2013	sub2340	2340	  1	  0	 85	  5	  2	  3	  5	  5	  1	  1	  1	0.48265	  1	0.70000	  0	 23	 62	 63	  1	
08-May-2013	sub2340	2340	  1	  0	 86	  5	  2	  4	  3	  5	  1	  2	  1	0.33772	  1	0.70000	  0	 24	 62	 63	  1	
08-May-2013	sub2340	2340	  1	  0	 87	  5	  2	  6	  1	  1	  1	  1	  0	0.53056	  0	0.70000	  0	 26	 85	 86	  0	
08-May-2013	sub2340	2340	  1	  0	 88	  5	  2	  1	  2	  5	  1	  1	  1	0.50510	  1	0.70000	  0	 21	 60	 61	  0	
08-May-2013	sub2340	2340	  1	  0	 89	  5	  2	  5	  6	  5	  0	  2	  1	0.65955	  0	0.70000	  0	 25	 87	 68	  0	
08-May-2013	sub2340	2340	  1	  0	 90	  5	  2	  2	  4	  5	  1	  2	  1	0.35001	  1	0.70000	  0	 22	 60	 61	  1	
08-May-2013	sub2340	2340	  1	  0	 91	  5	  2	  2	  4	  5	  1	  2	  1	0.50328	  1	0.70000	  0	 22	 60	 61	  0	
08-May-2013	sub2340	2340	  1	  0	 92	  5	  2	  2	  4	  5	  1	  2	  1	0.49338	  1	0.70000	  0	 22	 60	 61	  1	
08-May-2013	sub2340	2340	  1	  0	 93	  5	  2	  3	  5	  5	  1	  1	  1	0.57219	  1	0.70000	  0	 23	 62	 63	  0	
08-May-2013	sub2340	2340	  1	  0	 94	  5	  2	  5	  6	  5	  0	  1	  0	0.56522	  1	0.70000	  0	 25	 67	 88	  0	
08-May-2013	sub2340	2340	  1	  0	 95	  5	  2	  5	  6	  5	  0	  2	  1	0.39723	  0	0.70000	  0	 25	 87	 68	  1	
08-May-2013	sub2340	2340	  1	  0	 96	  5	  2	  3	  5	  5	  1	  1	  1	0.71401	  1	0.70000	  1	 23	 62	 51	  0	
08-May-2013	sub2340	2340	  1	  0	 97	  5	  2	  1	  2	  5	  1	  1	  1	0.61702	  1	0.80000	  0	 21	 60	 61	  0	
08-May-2013	sub2340	2340	  1	  0	 98	  5	  2	  1	  2	  5	  1	  1	  1	0.44976	  1	0.80000	  0	 21	 60	 61	  1	
08-May-2013	sub2340	2340	  1	  0	 99	  5	  2	  5	  6	  5	  0	  2	  1	0.55316	  0	0.80000	  0	 25	 87	 68	  0	
08-May-2013	sub2340	2340	  1	  0	100	  5	  2	  1	  2	  5	  1	  2	  0	0.47667	  0	0.80000	  0	 21	 80	 81	  1	
08-May-2013	sub2340	2340	  1	  0	101	  5	  2	  3	  5	  5	  0	  2	  1	0.57050	  0	0.70000	  0	 23	 84	 69	  0	
08-May-2013	sub2340	2340	  1	  0	102	  5	  2	  5	  6	  5	  0	  2	  1	0.43145	  0	0.70000	  0	 25	 87	 68	  1	
08-May-2013	sub2340	2340	  1	  0	103	  5	  2	  6	  1	  1	  0	  1	  1	0.59097	  0	0.70000	  0	 26	 87	 68	  0	
08-May-2013	sub2340	2340	  1	  0	104	  5	  2	  1	  2	  5	  1	  1	  1	0.57957	  1	0.70000	  0	 21	 60	 61	  0	
08-May-2013	sub2340	2340	  1	  0	105	  5	  2	  6	  1	  1	  1	  1	  0	0.43238	  0	0.70000	  0	 26	 85	 86	  1	
08-May-2013	sub2340	2340	  1	  0	106	  5	  2	  2	  4	  5	  1	  2	  1	0.48039	  1	0.70000	  0	 22	 60	 61	  1	
08-May-2013	sub2340	2340	  1	  0	107	  5	  2	  3	  5	  5	  1	  1	  1	0.50542	  1	0.70000	  0	 23	 62	 63	  0	
08-May-2013	sub2340	2340	  1	  0	108	  5	  2	  4	  3	  5	  0	  2	  0	0.52812	  1	0.70000	  0	 24	 64	 89	  0	
08-May-2013	sub2340	2340	  1	  0	109	  5	  2	  6	  1	  1	  1	  1	  0	0.48777	  0	0.70000	  0	 26	 85	 86	  1	
08-May-2013	sub2340	2340	  1	  0	110	  5	  2	  2	  4	  5	  1	  2	  1	0.49334	  1	0.70000	  0	 22	 60	 61	  1	
08-May-2013	sub2340	2340	  1	  0	111	  5	  2	  4	  3	  5	  1	  2	  1	0.53155	  1	0.70000	  0	 24	 62	 63	  0	
08-May-2013	sub2340	2340	  1	  0	112	  5	  2	  4	  3	  5	  1	  2	  1	0.47915	  1	0.70000	  0	 24	 62	 63	  1	
08-May-2013	sub2340	2340	  1	  0	113	  5	  2	  4	  3	  5	  1	  2	  1	0.57045	  1	0.70000	  0	 24	 62	 63	  0	
08-May-2013	sub2340	2340	  1	  0	114	  5	  2	  3	  5	  5	  1	  1	  1	0.53733	  1	0.70000	  0	 23	 62	 63	  0	
08-May-2013	sub2340	2340	  1	  0	115	  5	  2	  4	  3	  5	  1	  2	  1	0.51496	  1	0.70000	  0	 24	 62	 63	  0	
08-May-2013	sub2340	2340	  1	  0	116	  5	  2	  2	  4	  5	  1	  2	  1	0.52751	  1	0.70000	  0	 22	 60	 61	  0	
08-May-2013	sub2340	2340	  1	  0	117	  5	  2	  6	  1	  1	  1	  1	  0	0.51561	  0	0.70000	  0	 26	 85	 86	  0	
08-May-2013	sub2340	2340	  1	  0	118	  5	  2	  3	  5	  5	  1	  1	  1	0.60309	  1	0.70000	  0	 23	 62	 63	  0	
08-May-2013	sub2340	2340	  1	  0	119	  5	  2	  6	  1	  1	  0	  1	  1	0.52569	  0	0.70000	  0	 26	 87	 68	  0	
08-May-2013	sub2340	2340	  1	  0	120	  5	  2	  6	  1	  1	  0	  1	  1	0.42846	  0	0.70000	  0	 26	 87	 68	  1	
08-May-2013	sub2340	2340	  1	  0	121	  5	  2	  1	  2	  5	  1	  1	  1	0.52843	  1	0.60000	  0	 21	 60	 61	  0	
08-May-2013	sub2340	2340	  1	  0	122	  5	  2	  2	  4	  5	  1	  2	  1	0.41213	  1	0.60000	  0	 22	 60	 61	  1	
08-May-2013	sub2340	2340	  1	  0	123	  5	  2	  6	  1	  1	  0	  1	  1	0.46134	  0	0.60000	  0	 26	 87	 68	  1	
08-May-2013	sub2340	2340	  1	  0	124	  5	  2	  5	  6	  5	  0	  2	  1	0.43670	  0	0.60000	  0	 25	 87	 68	  1	
08-May-2013	sub2340	2340	  1	  0	125	  5	  2	  3	  5	  5	  1	  1	  1	0.57063	  1	0.60000	  0	 23	 62	 63	  0	
08-May-2013	sub2340	2340	  1	  0	126	  5	  2	  6	  1	  1	  0	  1	  1	0.46920	  0	0.60000	  0	 26	 87	 68	  1	
08-May-2013	sub2340	2340	  1	  0	127	  5	  2	  3	  5	  5	  1	  2	  0	0.40739	  0	0.60000	  0	 23	 82	 83	  1	
08-May-2013	sub2340	2340	  1	  0	128	  5	  2	  1	  2	  5	  1	  1	  1	0.55732	  1	0.60000	  0	 21	 60	 61	  0	
08-May-2013	sub2340	2340	  1	  0	129	  5	  2	  1	  2	  5	  1	  1	  1	0.51791	  1	0.60000	  0	 21	 60	 61	  0	
08-May-2013	sub2340	2340	  1	  0	130	  5	  2	  1	  2	  5	  1	  1	  1	0.44096	  1	0.60000	  0	 21	 60	 61	  1	
08-May-2013	sub2340	2340	  1	  0	131	  5	  2	  3	  5	  5	  0	  2	  1	0.48458	  0	0.60000	  0	 23	 84	 69	  1	
08-May-2013	sub2340	2340	  1	  0	132	  5	  2	  3	  5	  5	  1	  2	  0	0.43240	  0	0.60000	  0	 23	 82	 83	  1	
08-May-2013	sub2340	2340	  1	  0	133	  5	  2	  2	  4	  5	  1	  2	  1	0.49652	  1	0.60000	  0	 22	 60	 61	  1	
08-May-2013	sub2340	2340	  1	  0	134	  5	  2	  1	  2	  5	  1	  1	  1	0.63645	  1	0.60000	  1	 21	 60	 51	  0	
08-May-2013	sub2340	2340	  1	  0	135	  5	  2	  5	  6	  5	  0	  2	  1	0.54150	  0	0.70000	  0	 25	 87	 68	  0	
08-May-2013	sub2340	2340	  1	  0	136	  5	  2	  1	  2	  5	  1	  1	  1	0.50492	  1	0.70000	  0	 21	 60	 61	  0	
08-May-2013	sub2340	2340	  1	  0	137	  5	  2	  5	  6	  5	  0	  2	  1	0.59174	  0	0.70000	  0	 25	 87	 68	  0	
08-May-2013	sub2340	2340	  1	  0	138	  5	  2	  5	  6	  5	  0	  2	  1	0.51409	  0	0.70000	  0	 25	 87	 68	  0	
08-May-2013	sub2340	2340	  1	  0	139	  5	  2	  4	  3	  5	  1	  2	  1	0.45088	  1	0.70000	  0	 24	 62	 63	  1	
08-May-2013	sub2340	2340	  1	  0	140	  5	  2	  4	  3	  5	  1	  2	  1	0.41960	  1	0.70000	  0	 24	 62	 63	  1	
08-May-2013	sub2340	2340	  1	  0	141	  5	  2	  2	  4	  5	  1	  2	  1	0.45305	  1	0.60000	  0	 22	 60	 61	  1	
08-May-2013	sub2340	2340	  1	  0	142	  5	  2	  4	  3	  5	  1	  2	  1	0.45357	  1	0.60000	  0	 24	 62	 63	  1	
08-May-2013	sub2340	2340	  1	  0	143	  5	  2	  5	  6	  5	  0	  2	  1	0.52982	  0	0.60000	  0	 25	 87	 68	  0	
08-May-2013	sub2340	2340	  1	  0	144	  5	  2	  1	  2	  5	  1	  1	  1	0.78610	  1	0.60000	  1	 21	 60	 51	  0	
08-May-2013	sub2340	2340	  1	  0	145	  5	  2	  4	  3	  5	  1	  2	  1	0.59599	  1	0.70000	  0	 24	 62	 63	  0	
08-May-2013	sub2340	2340	  1	  0	146	  5	  2	  1	  2	  5	  1	  1	  1	0.39931	  1	0.70000	  0	 21	 60	 61	  1	
08-May-2013	sub2340	2340	  1	  0	147	  5	  2	  4	  3	  5	  0	  2	  0	0.53035	  1	0.70000	  0	 24	 64	 89	  0	
08-May-2013	sub2340	2340	  1	  0	148	  5	  2	  6	  1	  1	  1	  1	  0	0.48761	  0	0.70000	  0	 26	 85	 86	  1	
08-May-2013	sub2340	2340	  1	  0	149	  5	  2	  2	  4	  5	  1	  2	  1	0.50835	  1	0.70000	  0	 22	 60	 61	  0	
08-May-2013	sub2340	2340	  1	  0	150	  5	  2	  6	  1	  1	  0	  1	  1	0.38832	  0	0.70000	  0	 26	 87	 68	  1	
08-May-2013	sub2340	2340	  1	  0	  1	  6	  1	  3	  1	  3	  1	  2	  0	0.37903	  0	0.60000	  0	 13	 42	 43	  1	
08-May-2013	sub2340	2340	  1	  0	  2	  6	  1	  6	  4	  4	  0	  2	  0	0.39906	  1	0.30000	  1	 16	 37	 51	  1	
08-May-2013	sub2340	2340	  1	  0	  3	  6	  1	  2	  5	  4	  1	  2	  1	0.25804	  1	0.90000	  0	 12	 30	 31	  1	
08-May-2013	sub2340	2340	  1	  0	  4	  6	  1	  2	  5	  4	  1	  2	  1	0.29852	  1	0.90000	  0	 12	 30	 31	  1	
08-May-2013	sub2340	2340	  1	  0	  5	  6	  1	  5	  2	  2	  1	  1	  1	0.59554	  1	0.90000	  0	 15	 35	 36	  0	
08-May-2013	sub2340	2340	  1	  0	  6	  6	  1	  4	  6	  4	  1	  2	  1	0.71156	  1	0.90000	  0	 14	 32	 33	  0	
08-May-2013	sub2340	2340	  1	  0	  7	  6	  1	  5	  2	  2	  1	  2	  0	0.40648	  0	0.90000	  0	 15	 45	 46	  1	
08-May-2013	sub2340	2340	  1	  0	  8	  6	  1	  6	  4	  4	  1	  2	  1	0.35810	  1	0.90000	  0	 16	 35	 36	  1	
08-May-2013	sub2340	2340	  1	  0	  9	  6	  1	  6	  4	  4	  0	  2	  0	0.27355	  1	0.90000	  0	 16	 37	 48	  1	
08-May-2013	sub2340	2340	  1	  0	 10	  6	  1	  4	  6	  4	  0	  2	  0	0.28895	  1	0.90000	  0	 14	 34	 49	  1	
08-May-2013	sub2340	2340	  1	  0	 11	  6	  1	  6	  4	  4	  1	  2	  1	0.42600	  1	0.90000	  0	 16	 35	 36	  1	
08-May-2013	sub2340	2340	  1	  0	 12	  6	  1	  1	  3	  2	  1	  2	  0	0.41145	  0	0.90000	  0	 11	 40	 41	  1	
08-May-2013	sub2340	2340	  1	  0	 13	  6	  1	  6	  4	  4	  0	  2	  0	0.38106	  1	0.90000	  0	 16	 37	 48	  1	
08-May-2013	sub2340	2340	  1	  0	 14	  6	  1	  5	  2	  2	  0	  2	  1	0.39432	  0	0.90000	  0	 15	 47	 38	  1	
08-May-2013	sub2340	2340	  1	  0	 15	  6	  1	  5	  2	  2	  1	  2	  0	0.36056	  0	0.90000	  0	 15	 45	 46	  1	
08-May-2013	sub2340	2340	  1	  0	 16	  6	  1	  5	  2	  2	  0	  2	  1	0.44549	  0	0.80000	  0	 15	 47	 38	  1	
08-May-2013	sub2340	2340	  1	  0	 17	  6	  1	  3	  1	  3	  0	  2	  1	0.47372	  0	0.80000	  0	 13	 44	 39	  1	
08-May-2013	sub2340	2340	  1	  0	 18	  6	  1	  1	  3	  2	  1	  2	  0	0.32202	  0	0.70000	  0	 11	 40	 41	  1	
08-May-2013	sub2340	2340	  1	  0	 19	  6	  1	  1	  3	  2	  1	  2	  0	0.27851	  0	0.70000	  0	 11	 40	 41	  1	
08-May-2013	sub2340	2340	  1	  0	 20	  6	  1	  1	  3	  2	  1	  2	  0	0.45688	  0	0.70000	  0	 11	 40	 41	  1	
08-May-2013	sub2340	2340	  1	  0	 21	  6	  1	  5	  2	  2	  1	  2	  0	0.48488	  0	0.60000	  0	 15	 45	 46	  1	
08-May-2013	sub2340	2340	  1	  0	 22	  6	  1	  1	  3	  2	  1	  2	  0	0.48150	  0	0.60000	  0	 11	 40	 41	  1	
08-May-2013	sub2340	2340	  1	  0	 23	  6	  1	  3	  1	  3	  1	  2	  0	0.39042	  0	0.60000	  0	 13	 42	 43	  1	
08-May-2013	sub2340	2340	  1	  0	 24	  6	  1	  1	  3	  2	  1	  2	  0	0.41043	  0	0.60000	  0	 11	 40	 41	  1	
08-May-2013	sub2340	2340	  1	  0	 25	  6	  1	  6	  4	  4	  1	  2	  1	0.41177	  1	0.60000	  0	 16	 35	 36	  1	
08-May-2013	sub2340	2340	  1	  0	 26	  6	  1	  6	  4	  4	  0	  2	  0	0.40416	  1	0.50000	  0	 16	 37	 48	  1	
08-May-2013	sub2340	2340	  1	  0	 27	  6	  1	  2	  5	  4	  1	  2	  1	0.50465	  1	0.50000	  1	 12	 30	 51	  0	
08-May-2013	sub2340	2340	  1	  0	 28	  6	  1	  3	  1	  3	  1	  1	  1	0.61872	  1	0.90000	  0	 13	 32	 33	  0	
08-May-2013	sub2340	2340	  1	  0	 29	  6	  1	  5	  2	  2	  0	  1	  0	0.41855	  1	0.90000	  0	 15	 37	 48	  1	
08-May-2013	sub2340	2340	  1	  0	 30	  6	  1	  1	  3	  2	  1	  1	  1	0.47789	  1	0.80000	  0	 11	 30	 31	  1	
08-May-2013	sub2340	2340	  1	  0	 31	  6	  1	  3	  1	  3	  1	  1	  1	0.39954	  1	0.80000	  0	 13	 32	 33	  1	
08-May-2013	sub2340	2340	  1	  0	 32	  6	  1	  1	  3	  2	  1	  1	  1	0.50205	  1	0.80000	  0	 11	 30	 31	  0	
08-May-2013	sub2340	2340	  1	  0	 33	  6	  1	  4	  6	  4	  1	  1	  0	0.34686	  0	0.80000	  0	 14	 42	 43	  1	
08-May-2013	sub2340	2340	  1	  0	 34	  6	  1	  4	  6	  4	  1	  1	  0	0.49317	  0	0.80000	  0	 14	 42	 43	  1	
08-May-2013	sub2340	2340	  1	  0	 35	  6	  1	  2	  5	  4	  1	  1	  0	0.60117	  0	0.70000	  0	 12	 40	 41	  0	
08-May-2013	sub2340	2340	  1	  0	 36	  6	  1	  2	  5	  4	  1	  2	  1	0.65369	  1	0.70000	  0	 12	 30	 31	  0	
08-May-2013	sub2340	2340	  1	  0	 37	  6	  1	  3	  1	  3	  1	  1	  1	0.52244	  1	0.70000	  0	 13	 32	 33	  0	
08-May-2013	sub2340	2340	  1	  0	 38	  6	  1	  6	  4	  4	  1	  2	  1	0.55530	  1	0.70000	  0	 16	 35	 36	  0	
08-May-2013	sub2340	2340	  1	  0	 39	  6	  1	  5	  2	  2	  0	  1	  0	0.90904	  1	0.70000	  1	 15	 37	 51	  0	
08-May-2013	sub2340	2340	  1	  0	 40	  6	  1	  2	  5	  4	  1	  1	  0	0.51493	  0	0.90000	  0	 12	 40	 41	  0	
08-May-2013	sub2340	2340	  1	  0	 41	  6	  1	  4	  6	  4	  1	  1	  0	0.60094	  0	0.90000	  0	 14	 42	 43	  0	
08-May-2013	sub2340	2340	  1	  0	 42	  6	  1	  2	  5	  4	  1	  2	  1	0.62587	  1	0.90000	  0	 12	 30	 31	  0	
08-May-2013	sub2340	2340	  1	  0	 43	  6	  1	  4	  6	  4	  0	  2	  0	0.66580	  1	0.90000	  0	 14	 34	 49	  0	
08-May-2013	sub2340	2340	  1	  0	 44	  6	  1	  5	  2	  2	  1	  1	  1	0.56976	  1	0.80000	  0	 15	 35	 36	  0	
08-May-2013	sub2340	2340	  1	  0	 45	  6	  1	  2	  5	  4	  1	  2	  1	0.60317	  1	0.80000	  0	 12	 30	 31	  0	
08-May-2013	sub2340	2340	  1	  0	 46	  6	  1	  2	  5	  4	  1	  2	  1	0.59217	  1	0.80000	  0	 12	 30	 31	  0	
08-May-2013	sub2340	2340	  1	  0	 47	  6	  1	  2	  5	  4	  1	  2	  1	0.35270	  1	0.80000	  0	 12	 30	 31	  1	
08-May-2013	sub2340	2340	  1	  0	 48	  6	  1	  3	  1	  3	  1	  1	  1	0.58493	  1	0.80000	  0	 13	 32	 33	  0	
08-May-2013	sub2340	2340	  1	  0	 49	  6	  1	  6	  4	  4	  1	  1	  0	0.43015	  0	0.80000	  0	 16	 45	 46	  1	
08-May-2013	sub2340	2340	  1	  0	 50	  6	  1	  5	  2	  2	  0	  1	  0	0.62310	  1	0.80000	  0	 15	 37	 48	  0	
08-May-2013	sub2340	2340	  1	  0	 51	  6	  1	  3	  1	  3	  1	  1	  1	0.51892	  1	0.70000	  0	 13	 32	 33	  0	
08-May-2013	sub2340	2340	  1	  0	 52	  6	  1	  4	  6	  4	  1	  2	  1	0.59593	  1	0.70000	  0	 14	 32	 33	  0	
08-May-2013	sub2340	2340	  1	  0	 53	  6	  1	  4	  6	  4	  1	  2	  1	0.64305	  1	0.70000	  0	 14	 32	 33	  0	
08-May-2013	sub2340	2340	  1	  0	 54	  6	  1	  4	  6	  4	  1	  2	  1	0.44261	  1	0.70000	  0	 14	 32	 33	  1	
08-May-2013	sub2340	2340	  1	  0	 55	  6	  1	  6	  4	  4	  0	  2	  0	0.64323	  1	0.70000	  0	 16	 37	 48	  0	
08-May-2013	sub2340	2340	  1	  0	 56	  6	  1	  6	  4	  4	  1	  2	  1	0.49547	  1	0.70000	  0	 16	 35	 36	  1	
08-May-2013	sub2340	2340	  1	  0	 57	  6	  1	  3	  1	  3	  0	  1	  0	0.43475	  1	0.70000	  0	 13	 34	 49	  1	
08-May-2013	sub2340	2340	  1	  0	 58	  6	  1	  1	  3	  2	  1	  1	  1	0.49539	  1	0.70000	  0	 11	 30	 31	  1	
08-May-2013	sub2340	2340	  1	  0	 59	  6	  1	  1	  3	  2	  1	  1	  1	0.44029	  1	0.70000	  0	 11	 30	 31	  1	
08-May-2013	sub2340	2340	  1	  0	 60	  6	  1	  6	  4	  4	  1	  2	  1	0.44672	  1	0.70000	  0	 16	 35	 36	  1	
08-May-2013	sub2340	2340	  1	  0	 61	  6	  1	  2	  5	  4	  1	  2	  1	0.54194	  1	0.60000	  0	 12	 30	 31	  0	
08-May-2013	sub2340	2340	  1	  0	 62	  6	  1	  3	  1	  3	  1	  1	  1	0.51948	  1	0.60000	  0	 13	 32	 33	  0	
08-May-2013	sub2340	2340	  1	  0	 63	  6	  1	  2	  5	  4	  1	  2	  1	0.53304	  1	0.60000	  0	 12	 30	 31	  0	
08-May-2013	sub2340	2340	  1	  0	 64	  6	  1	  3	  1	  3	  1	  1	  1	0.53908	  1	0.60000	  0	 13	 32	 33	  0	
08-May-2013	sub2340	2340	  1	  0	 65	  6	  1	  4	  6	  4	  1	  2	  1	0.53756	  1	0.60000	  0	 14	 32	 33	  0	
08-May-2013	sub2340	2340	  1	  0	 66	  6	  1	  3	  1	  3	  0	  1	  0	0.62889	  1	0.60000	  1	 13	 34	 51	  0	
08-May-2013	sub2340	2340	  1	  0	 67	  6	  1	  1	  3	  2	  1	  1	  1	0.50954	  1	0.80000	  0	 11	 30	 31	  0	
08-May-2013	sub2340	2340	  1	  0	 68	  6	  1	  5	  2	  2	  1	  1	  1	0.49096	  1	0.70000	  0	 15	 35	 36	  1	
08-May-2013	sub2340	2340	  1	  0	 69	  6	  1	  6	  4	  4	  0	  2	  0	0.58433	  1	0.70000	  0	 16	 37	 48	  0	
08-May-2013	sub2340	2340	  1	  0	 70	  6	  1	  5	  2	  2	  0	  1	  0	0.57953	  1	0.70000	  0	 15	 37	 48	  0	
08-May-2013	sub2340	2340	  1	  0	 71	  6	  1	  1	  3	  2	  1	  1	  1	0.36836	  1	0.70000	  0	 11	 30	 31	  1	
08-May-2013	sub2340	2340	  1	  0	 72	  6	  1	  3	  1	  3	  1	  1	  1	0.36643	  1	0.70000	  0	 13	 32	 33	  1	
08-May-2013	sub2340	2340	  1	  0	 73	  6	  1	  4	  6	  4	  1	  2	  1	0.52110	  1	0.70000	  0	 14	 32	 33	  0	
08-May-2013	sub2340	2340	  1	  0	 74	  6	  1	  2	  5	  4	  1	  2	  1	0.53978	  1	0.70000	  0	 12	 30	 31	  0	
08-May-2013	sub2340	2340	  1	  0	 75	  6	  1	  4	  6	  4	  1	  2	  1	0.82133	  1	0.70000	  1	 14	 32	 51	  0	
08-May-2013	sub2340	2340	  1	  0	 76	  6	  2	  4	  6	  4	  1	  2	  1	0.38318	  1	0.80000	  0	 24	 62	 63	  1	
08-May-2013	sub2340	2340	  1	  0	 77	  6	  2	  4	  6	  4	  1	  2	  1	0.42640	  1	0.80000	  0	 24	 62	 63	  1	
08-May-2013	sub2340	2340	  1	  0	 78	  6	  2	  1	  3	  2	  1	  1	  1	0.44930	  1	0.80000	  0	 21	 60	 61	  1	
08-May-2013	sub2340	2340	  1	  0	 79	  6	  2	  3	  1	  3	  1	  1	  1	0.54567	  1	0.80000	  0	 23	 62	 63	  0	
08-May-2013	sub2340	2340	  1	  0	 80	  6	  2	  3	  1	  3	  1	  1	  1	0.39794	  1	0.80000	  0	 23	 62	 63	  1	
08-May-2013	sub2340	2340	  1	  0	 81	  6	  2	  4	  6	  4	  0	  2	  0	0.51416	  1	0.80000	  0	 24	 64	 89	  0	
08-May-2013	sub2340	2340	  1	  0	 82	  6	  2	  3	  1	  3	  1	  1	  1	0.41448	  1	0.80000	  0	 23	 62	 63	  1	
08-May-2013	sub2340	2340	  1	  0	 83	  6	  2	  1	  3	  2	  1	  1	  1	0.39602	  1	0.80000	  0	 21	 60	 61	  1	
08-May-2013	sub2340	2340	  1	  0	 84	  6	  2	  5	  2	  2	  0	  1	  0	0.46503	  1	0.80000	  0	 25	 67	 88	  1	
08-May-2013	sub2340	2340	  1	  0	 85	  6	  2	  2	  5	  4	  1	  1	  0	0.46518	  0	0.70000	  0	 22	 80	 81	  1	
08-May-2013	sub2340	2340	  1	  0	 86	  6	  2	  4	  6	  4	  1	  2	  1	0.58500	  1	0.70000	  0	 24	 62	 63	  0	
08-May-2013	sub2340	2340	  1	  0	 87	  6	  2	  2	  5	  4	  1	  2	  1	0.44696	  1	0.70000	  0	 22	 60	 61	  1	
08-May-2013	sub2340	2340	  1	  0	 88	  6	  2	  3	  1	  3	  0	  1	  0	0.62654	  1	0.70000	  0	 23	 64	 89	  0	
08-May-2013	sub2340	2340	  1	  0	 89	  6	  2	  2	  5	  4	  1	  2	  1	0.50220	  1	0.70000	  0	 22	 60	 61	  0	
08-May-2013	sub2340	2340	  1	  0	 90	  6	  2	  1	  3	  2	  1	  1	  1	0.51089	  1	0.70000	  0	 21	 60	 61	  0	
08-May-2013	sub2340	2340	  1	  0	 91	  6	  2	  5	  2	  2	  0	  1	  0	0.48759	  1	0.70000	  0	 25	 67	 88	  1	
08-May-2013	sub2340	2340	  1	  0	 92	  6	  2	  5	  2	  2	  0	  1	  0	0.49502	  1	0.70000	  0	 25	 67	 88	  1	
08-May-2013	sub2340	2340	  1	  0	 93	  6	  2	  5	  2	  2	  0	  1	  0	0.66659	  1	0.70000	  0	 25	 67	 88	  0	
08-May-2013	sub2340	2340	  1	  0	 94	  6	  2	  5	  2	  2	  0	  2	  1	0.51768	  0	0.70000	  0	 25	 87	 68	  0	
08-May-2013	sub2340	2340	  1	  0	 95	  6	  2	  4	  6	  4	  0	  2	  0	0.51528	  1	0.70000	  0	 24	 64	 89	  0	
08-May-2013	sub2340	2340	  1	  0	 96	  6	  2	  6	  4	  4	  0	  2	  0	0.51793	  1	0.70000	  0	 26	 67	 88	  0	
08-May-2013	sub2340	2340	  1	  0	 97	  6	  2	  3	  1	  3	  1	  1	  1	0.71467	  1	0.70000	  1	 23	 62	 51	  0	
08-May-2013	sub2340	2340	  1	  0	 98	  6	  2	  5	  2	  2	  0	  2	  1	0.65894	  0	0.80000	  0	 25	 87	 68	  0	
08-May-2013	sub2340	2340	  1	  0	 99	  6	  2	  1	  3	  2	  1	  1	  1	0.41896	  1	0.80000	  0	 21	 60	 61	  1	
08-May-2013	sub2340	2340	  1	  0	100	  6	  2	  4	  6	  4	  1	  2	  1	0.55145	  1	0.80000	  0	 24	 62	 63	  0	
08-May-2013	sub2340	2340	  1	  0	101	  6	  2	  6	  4	  4	  1	  1	  0	0.69841	  0	0.70000	  0	 26	 85	 86	  0	
08-May-2013	sub2340	2340	  1	  0	102	  6	  2	  4	  6	  4	  1	  2	  1	0.62264	  1	0.70000	  0	 24	 62	 63	  0	
08-May-2013	sub2340	2340	  1	  0	103	  6	  2	  4	  6	  4	  1	  2	  1	0.40883	  1	0.70000	  0	 24	 62	 63	  1	
08-May-2013	sub2340	2340	  1	  0	104	  6	  2	  4	  6	  4	  1	  2	  1	0.44364	  1	0.70000	  0	 24	 62	 63	  1	
08-May-2013	sub2340	2340	  1	  0	105	  6	  2	  3	  1	  3	  1	  1	  1	0.42815	  1	0.70000	  0	 23	 62	 63	  1	
08-May-2013	sub2340	2340	  1	  0	106	  6	  2	  6	  4	  4	  1	  2	  1	0.56897	  1	0.70000	  0	 26	 65	 66	  0	
08-May-2013	sub2340	2340	  1	  0	107	  6	  2	  5	  2	  2	  0	  1	  0	0.67293	  1	0.70000	  0	 25	 67	 88	  0	
08-May-2013	sub2340	2340	  1	  0	108	  6	  2	  3	  1	  3	  1	  1	  1	0.65169	  1	0.70000	  0	 23	 62	 63	  0	
08-May-2013	sub2340	2340	  1	  0	109	  6	  2	  3	  1	  3	  1	  1	  1	0.48581	  1	0.70000	  0	 23	 62	 63	  1	
08-May-2013	sub2340	2340	  1	  0	110	  6	  2	  2	  5	  4	  1	  2	  1	0.49958	  1	0.70000	  0	 22	 60	 61	  1	
08-May-2013	sub2340	2340	  1	  0	111	  6	  2	  2	  5	  4	  1	  2	  1	0.46574	  1	0.70000	  0	 22	 60	 61	  1	
08-May-2013	sub2340	2340	  1	  0	112	  6	  2	  2	  5	  4	  1	  2	  1	0.42379	  1	0.70000	  0	 22	 60	 61	  1	
08-May-2013	sub2340	2340	  1	  0	113	  6	  2	  3	  1	  3	  1	  1	  1	0.50425	  1	0.70000	  0	 23	 62	 63	  0	
08-May-2013	sub2340	2340	  1	  0	114	  6	  2	  5	  2	  2	  0	  2	  1	0.66424	  0	0.70000	  0	 25	 87	 68	  0	
08-May-2013	sub2340	2340	  1	  0	115	  6	  2	  1	  3	  2	  1	  1	  1	0.49717	  1	0.70000	  0	 21	 60	 61	  1	
08-May-2013	sub2340	2340	  1	  0	116	  6	  2	  5	  2	  2	  0	  2	  1	0.42052	  0	0.70000	  0	 25	 87	 68	  1	
08-May-2013	sub2340	2340	  1	  0	117	  6	  2	  5	  2	  2	  0	  2	  1	0.54000	  0	0.70000	  0	 25	 87	 68	  0	
08-May-2013	sub2340	2340	  1	  0	118	  6	  2	  6	  4	  4	  1	  2	  1	0.71666	  1	0.70000	  1	 26	 65	 51	  0	
08-May-2013	sub2340	2340	  1	  0	119	  6	  2	  6	  4	  4	  0	  2	  0	0.38255	  1	0.70000	  0	 26	 67	 88	  1	
08-May-2013	sub2340	2340	  1	  0	120	  6	  2	  2	  5	  4	  1	  2	  1	0.49809	  1	0.70000	  0	 22	 60	 61	  1	
08-May-2013	sub2340	2340	  1	  0	121	  6	  2	  6	  4	  4	  1	  1	  0	0.49135	  0	0.70000	  0	 26	 85	 86	  1	
08-May-2013	sub2340	2340	  1	  0	122	  6	  2	  1	  3	  2	  1	  2	  0	0.38935	  0	0.70000	  0	 21	 80	 81	  1	
08-May-2013	sub2340	2340	  1	  0	123	  6	  2	  6	  4	  4	  0	  2	  0	0.46823	  1	0.70000	  0	 26	 67	 88	  1	
08-May-2013	sub2340	2340	  1	  0	124	  6	  2	  1	  3	  2	  1	  1	  1	0.45094	  1	0.70000	  0	 21	 60	 61	  1	
08-May-2013	sub2340	2340	  1	  0	125	  6	  2	  6	  4	  4	  0	  1	  1	0.42176	  0	0.70000	  0	 26	 87	 68	  1	
08-May-2013	sub2340	2340	  1	  0	126	  6	  2	  1	  3	  2	  1	  1	  1	0.49521	  1	0.70000	  0	 21	 60	 61	  1	
08-May-2013	sub2340	2340	  1	  0	127	  6	  2	  2	  5	  4	  1	  1	  0	0.39958	  0	0.70000	  0	 22	 80	 81	  1	
08-May-2013	sub2340	2340	  1	  0	128	  6	  2	  5	  2	  2	  0	  2	  1	0.61643	  0	0.70000	  0	 25	 87	 68	  0	
08-May-2013	sub2340	2340	  1	  0	129	  6	  2	  6	  4	  4	  0	  2	  0	0.51548	  1	0.70000	  0	 26	 67	 88	  0	
08-May-2013	sub2340	2340	  1	  0	130	  6	  2	  2	  5	  4	  1	  2	  1	0.57910	  1	0.70000	  0	 22	 60	 61	  0	
08-May-2013	sub2340	2340	  1	  0	131	  6	  2	  2	  5	  4	  1	  2	  1	0.54150	  1	0.70000	  0	 22	 60	 61	  0	
08-May-2013	sub2340	2340	  1	  0	132	  6	  2	  2	  5	  4	  1	  2	  1	0.56014	  1	0.70000	  0	 22	 60	 61	  0	
08-May-2013	sub2340	2340	  1	  0	133	  6	  2	  1	  3	  2	  1	  1	  1	0.41166	  1	0.70000	  0	 21	 60	 61	  1	
08-May-2013	sub2340	2340	  1	  0	134	  6	  2	  2	  5	  4	  1	  2	  1	0.63077	  1	0.70000	  0	 22	 60	 61	  0	
08-May-2013	sub2340	2340	  1	  0	135	  6	  2	  3	  1	  3	  1	  1	  1	0.59094	  1	0.70000	  0	 23	 62	 63	  0	
08-May-2013	sub2340	2340	  1	  0	136	  6	  2	  3	  1	  3	  1	  1	  1	0.53163	  1	0.70000	  0	 23	 62	 63	  0	
08-May-2013	sub2340	2340	  1	  0	137	  6	  2	  3	  1	  3	  0	  1	  0	0.48366	  1	0.70000	  0	 23	 64	 89	  1	
08-May-2013	sub2340	2340	  1	  0	138	  6	  2	  6	  4	  4	  0	  1	  1	0.41573	  0	0.70000	  0	 26	 87	 68	  1	
08-May-2013	sub2340	2340	  1	  0	139	  6	  2	  5	  2	  2	  0	  2	  1	0.42407	  0	0.70000	  0	 25	 87	 68	  1	
08-May-2013	sub2340	2340	  1	  0	140	  6	  2	  1	  3	  2	  1	  1	  1	0.58308	  1	0.70000	  0	 21	 60	 61	  0	
08-May-2013	sub2340	2340	  1	  0	141	  6	  2	  4	  6	  4	  1	  2	  1	0.50803	  1	0.60000	  0	 24	 62	 63	  0	
08-May-2013	sub2340	2340	  1	  0	142	  6	  2	  4	  6	  4	  0	  2	  0	0.58314	  1	0.60000	  0	 24	 64	 89	  0	
08-May-2013	sub2340	2340	  1	  0	143	  6	  2	  6	  4	  4	  1	  1	  0	0.49450	  0	0.60000	  0	 26	 85	 86	  1	
08-May-2013	sub2340	2340	  1	  0	144	  6	  2	  4	  6	  4	  1	  2	  1	0.60397	  1	0.60000	  1	 24	 62	 51	  0	
08-May-2013	sub2340	2340	  1	  0	145	  6	  2	  1	  3	  2	  1	  1	  1	0.51262	  1	0.70000	  0	 21	 60	 61	  0	
08-May-2013	sub2340	2340	  1	  0	146	  6	  2	  6	  4	  4	  1	  1	  0	0.59090	  0	0.70000	  0	 26	 85	 86	  0	
08-May-2013	sub2340	2340	  1	  0	147	  6	  2	  1	  3	  2	  1	  1	  1	0.36732	  1	0.70000	  0	 21	 60	 61	  1	
08-May-2013	sub2340	2340	  1	  0	148	  6	  2	  4	  6	  4	  1	  2	  1	0.44653	  1	0.70000	  0	 24	 62	 63	  1	
08-May-2013	sub2340	2340	  1	  0	149	  6	  2	  5	  2	  2	  0	  1	  0	0.19023	  1	0.70000	  0	 25	 67	 88	  1	
08-May-2013	sub2340	2340	  1	  0	150	  6	  2	  1	  3	  2	  1	  1	  1	0.45750	  1	0.70000	  0	 21	 60	 61	  1	
