Date 	 Name 	 ID 	 Gender 	 Appearance 	 Trial 	 Block 	 Bin 	 Condition 	 Category 	 Number 	 Valid 	 Keypress 	 Correct 	 RT 	 Realcorrect 	 Deadline 	 Timeout 	 Stimtrigger 	 Resptrigger 	 Fedtrigger 	 WithinTime 	 
08-May-2013	sub2341	2341	  1	  0	  1	  1	  1	  1	  6	  4	  1	  1	  1	1.76977	  1	0.60000	  1	 11	 30	 51	  0	
08-May-2013	sub2341	2341	  1	  0	  2	  1	  1	  3	  3	  6	  1	  1	  1	0.34063	  1	0.90000	  0	 13	 32	 33	  1	
08-May-2013	sub2341	2341	  1	  0	  3	  1	  1	  4	  1	  2	  1	  2	  1	0.41874	  1	0.90000	  0	 14	 32	 33	  1	
08-May-2013	sub2341	2341	  1	  0	  4	  1	  1	  5	  2	  2	  1	  1	  1	0.64610	  1	0.90000	  0	 15	 35	 36	  0	
08-May-2013	sub2341	2341	  1	  0	  5	  1	  1	  5	  2	  2	  1	  2	  0	0.52564	  0	0.90000	  0	 15	 45	 46	  0	
08-May-2013	sub2341	2341	  1	  0	  6	  1	  1	  5	  2	  2	  1	  1	  1	0.46198	  1	0.90000	  0	 15	 35	 36	  1	
08-May-2013	sub2341	2341	  1	  0	  7	  1	  1	  3	  3	  6	  0	  1	  0	0.64806	  1	0.90000	  0	 13	 34	 49	  0	
08-May-2013	sub2341	2341	  1	  0	  8	  1	  1	  5	  2	  2	  0	  1	  0	0.60801	  1	0.90000	  0	 15	 37	 48	  0	
08-May-2013	sub2341	2341	  1	  0	  9	  1	  1	  1	  6	  4	  1	  1	  1	0.58940	  1	0.90000	  0	 11	 30	 31	  0	
08-May-2013	sub2341	2341	  1	  0	 10	  1	  1	  4	  1	  2	  0	  2	  0	0.43563	  1	0.90000	  0	 14	 34	 49	  1	
08-May-2013	sub2341	2341	  1	  0	 11	  1	  1	  2	  5	  2	  1	  1	  0	0.47443	  0	0.90000	  0	 12	 40	 41	  1	
08-May-2013	sub2341	2341	  1	  0	 12	  1	  1	  2	  5	  2	  1	  2	  1	0.37432	  1	0.90000	  0	 12	 30	 31	  1	
08-May-2013	sub2341	2341	  1	  0	 13	  1	  1	  4	  1	  2	  1	  1	  0	0.65044	  0	0.90000	  0	 14	 42	 43	  0	
08-May-2013	sub2341	2341	  1	  0	 14	  1	  1	  1	  6	  4	  1	  2	  0	0.47446	  0	0.90000	  0	 11	 40	 41	  1	
08-May-2013	sub2341	2341	  1	  0	 15	  1	  1	  4	  1	  2	  1	  2	  1	0.74319	  1	0.90000	  0	 14	 32	 33	  0	
08-May-2013	sub2341	2341	  1	  0	 16	  1	  1	  6	  4	  2	  1	  1	  0	0.42096	  0	0.80000	  0	 16	 45	 46	  1	
08-May-2013	sub2341	2341	  1	  0	 17	  1	  1	  2	  5	  2	  1	  2	  1	0.38774	  1	0.80000	  0	 12	 30	 31	  1	
08-May-2013	sub2341	2341	  1	  0	 18	  1	  1	  4	  1	  2	  1	  1	  0	0.41473	  0	0.70000	  0	 14	 42	 43	  1	
08-May-2013	sub2341	2341	  1	  0	 19	  1	  1	  5	  2	  2	  0	  1	  0	0.87991	  1	0.70000	  1	 15	 37	 51	  0	
08-May-2013	sub2341	2341	  1	  0	 20	  1	  1	  4	  1	  2	  1	  1	  0	0.50862	  0	0.90000	  0	 14	 42	 43	  0	
08-May-2013	sub2341	2341	  1	  0	 21	  1	  1	  1	  6	  4	  1	  1	  1	0.80176	  1	0.90000	  0	 11	 30	 31	  0	
08-May-2013	sub2341	2341	  1	  0	 22	  1	  1	  6	  4	  2	  1	  2	  1	0.70571	  1	0.90000	  0	 16	 35	 36	  0	
08-May-2013	sub2341	2341	  1	  0	 23	  1	  1	  6	  4	  2	  0	  1	  1	0.47560	  0	0.90000	  0	 16	 47	 38	  1	
08-May-2013	sub2341	2341	  1	  0	 24	  1	  1	  3	  3	  6	  1	  1	  1	0.63363	  1	0.90000	  0	 13	 32	 33	  0	
08-May-2013	sub2341	2341	  1	  0	 25	  1	  1	  6	  4	  2	  0	  1	  1	0.68591	  0	0.90000	  0	 16	 47	 38	  0	
08-May-2013	sub2341	2341	  1	  0	 26	  1	  1	  2	  5	  2	  1	  2	  1	0.67449	  1	0.90000	  0	 12	 30	 31	  0	
08-May-2013	sub2341	2341	  1	  0	 27	  1	  1	  5	  2	  2	  1	  1	  1	0.42717	  1	0.90000	  0	 15	 35	 36	  1	
08-May-2013	sub2341	2341	  1	  0	 28	  1	  1	  6	  4	  2	  1	  1	  0	0.63272	  0	0.90000	  0	 16	 45	 46	  0	
08-May-2013	sub2341	2341	  1	  0	 29	  1	  1	  5	  2	  2	  0	  2	  1	0.39790	  0	0.90000	  0	 15	 47	 38	  1	
08-May-2013	sub2341	2341	  1	  0	 30	  1	  1	  2	  5	  2	  1	  1	  0	0.46043	  0	0.80000	  0	 12	 40	 41	  1	
08-May-2013	sub2341	2341	  1	  0	 31	  1	  1	  4	  1	  2	  1	  2	  1	0.45811	  1	0.80000	  0	 14	 32	 33	  1	
08-May-2013	sub2341	2341	  1	  0	 32	  1	  1	  2	  5	  2	  1	  1	  0	0.41593	  0	0.80000	  0	 12	 40	 41	  1	
08-May-2013	sub2341	2341	  1	  0	 33	  1	  1	  5	  2	  2	  1	  2	  0	0.42620	  0	0.80000	  0	 15	 45	 46	  1	
08-May-2013	sub2341	2341	  1	  0	 34	  1	  1	  3	  3	  6	  0	  1	  0	0.43012	  1	0.80000	  0	 13	 34	 49	  1	
08-May-2013	sub2341	2341	  1	  0	 35	  1	  1	  3	  3	  6	  0	  1	  0	0.32068	  1	0.70000	  0	 13	 34	 49	  1	
08-May-2013	sub2341	2341	  1	  0	 36	  1	  1	  6	  4	  2	  0	  2	  0	0.55396	  1	0.70000	  0	 16	 37	 48	  0	
08-May-2013	sub2341	2341	  1	  0	 37	  1	  1	  3	  3	  6	  1	  1	  1	0.47233	  1	0.70000	  0	 13	 32	 33	  1	
08-May-2013	sub2341	2341	  1	  0	 38	  1	  1	  6	  4	  2	  0	  1	  1	0.52805	  0	0.70000	  0	 16	 47	 38	  0	
08-May-2013	sub2341	2341	  1	  0	 39	  1	  1	  2	  5	  2	  1	  1	  0	0.55214	  0	0.70000	  0	 12	 40	 41	  0	
08-May-2013	sub2341	2341	  1	  0	 40	  1	  1	  6	  4	  2	  1	  2	  1	0.38722	  1	0.70000	  0	 16	 35	 36	  1	
08-May-2013	sub2341	2341	  1	  0	 41	  1	  1	  6	  4	  2	  0	  1	  1	0.40348	  0	0.60000	  0	 16	 47	 38	  1	
08-May-2013	sub2341	2341	  1	  0	 42	  1	  1	  5	  2	  2	  0	  2	  1	0.48267	  0	0.60000	  0	 15	 47	 38	  1	
08-May-2013	sub2341	2341	  1	  0	 43	  1	  1	  2	  5	  2	  1	  1	  0	0.49812	  0	0.60000	  0	 12	 40	 41	  1	
08-May-2013	sub2341	2341	  1	  0	 44	  1	  1	  5	  2	  2	  0	  1	  0	0.58156	  1	0.60000	  0	 15	 37	 48	  0	
08-May-2013	sub2341	2341	  1	  0	 45	  1	  1	  6	  4	  2	  1	  1	  0	0.58381	  0	0.60000	  0	 16	 45	 46	  0	
08-May-2013	sub2341	2341	  1	  0	 46	  1	  1	  4	  1	  2	  1	  2	  1	0.50063	  1	0.60000	  0	 14	 32	 33	  1	
08-May-2013	sub2341	2341	  1	  0	 47	  1	  1	  4	  1	  2	  1	  2	  1	0.51610	  1	0.60000	  0	 14	 32	 33	  0	
08-May-2013	sub2341	2341	  1	  0	 48	  1	  1	  3	  3	  6	  1	  1	  1	0.50830	  1	0.60000	  0	 13	 32	 33	  0	
08-May-2013	sub2341	2341	  1	  0	 49	  1	  1	  1	  6	  4	  1	  1	  1	0.55897	  1	0.60000	  0	 11	 30	 31	  0	
08-May-2013	sub2341	2341	  1	  0	 50	  1	  1	  3	  3	  6	  1	  1	  1	0.43464	  1	0.60000	  0	 13	 32	 33	  1	
08-May-2013	sub2341	2341	  1	  0	 51	  1	  1	  1	  6	  4	  1	  1	  1	0.48687	  1	0.50000	  0	 11	 30	 31	  1	
08-May-2013	sub2341	2341	  1	  0	 52	  1	  1	  2	  5	  2	  1	  2	  1	0.51232	  1	0.50000	  1	 12	 30	 51	  0	
08-May-2013	sub2341	2341	  1	  0	 53	  1	  1	  3	  3	  6	  1	  1	  1	0.36764	  1	0.70000	  0	 13	 32	 33	  1	
08-May-2013	sub2341	2341	  1	  0	 54	  1	  1	  4	  1	  2	  1	  1	  0	0.40290	  0	0.70000	  0	 14	 42	 43	  1	
08-May-2013	sub2341	2341	  1	  0	 55	  1	  1	  2	  5	  2	  1	  1	  0	0.53937	  0	0.70000	  0	 12	 40	 41	  0	
08-May-2013	sub2341	2341	  1	  0	 56	  1	  1	  1	  6	  4	  1	  1	  1	0.46347	  1	0.70000	  0	 11	 30	 31	  1	
08-May-2013	sub2341	2341	  1	  0	 57	  1	  1	  5	  2	  2	  1	  2	  0	0.46709	  0	0.70000	  0	 15	 45	 46	  1	
08-May-2013	sub2341	2341	  1	  0	 58	  1	  1	  2	  5	  2	  1	  1	  0	0.37888	  0	0.70000	  0	 12	 40	 41	  1	
08-May-2013	sub2341	2341	  1	  0	 59	  1	  1	  4	  1	  2	  1	  1	  0	0.42582	  0	0.70000	  0	 14	 42	 43	  1	
08-May-2013	sub2341	2341	  1	  0	 60	  1	  1	  1	  6	  4	  1	  1	  1	0.47925	  1	0.70000	  0	 11	 30	 31	  1	
08-May-2013	sub2341	2341	  1	  0	 61	  1	  1	  6	  4	  2	  0	  1	  1	0.49546	  0	0.60000	  0	 16	 47	 38	  1	
08-May-2013	sub2341	2341	  1	  0	 62	  1	  1	  2	  5	  2	  1	  1	  0	0.47649	  0	0.60000	  0	 12	 40	 41	  1	
08-May-2013	sub2341	2341	  1	  0	 63	  1	  1	  6	  4	  2	  0	  1	  1	0.38024	  0	0.60000	  0	 16	 47	 38	  1	
08-May-2013	sub2341	2341	  1	  0	 64	  1	  1	  5	  2	  2	  1	  1	  1	0.43159	  1	0.60000	  0	 15	 35	 36	  1	
08-May-2013	sub2341	2341	  1	  0	 65	  1	  1	  1	  6	  4	  1	  1	  1	0.38206	  1	0.60000	  0	 11	 30	 31	  1	
08-May-2013	sub2341	2341	  1	  0	 66	  1	  1	  3	  3	  6	  1	  1	  1	0.25638	  1	0.60000	  0	 13	 32	 33	  1	
08-May-2013	sub2341	2341	  1	  0	 67	  1	  1	  3	  3	  6	  1	  1	  1	0.31729	  1	0.60000	  0	 13	 32	 33	  1	
08-May-2013	sub2341	2341	  1	  0	 68	  1	  1	  3	  3	  6	  1	  1	  1	0.35201	  1	0.60000	  0	 13	 32	 33	  1	
08-May-2013	sub2341	2341	  1	  0	 69	  1	  1	  1	  6	  4	  1	  1	  1	0.42998	  1	0.60000	  0	 11	 30	 31	  1	
08-May-2013	sub2341	2341	  1	  0	 70	  1	  1	  3	  3	  6	  1	  1	  1	0.42706	  1	0.60000	  0	 13	 32	 33	  1	
08-May-2013	sub2341	2341	  1	  0	 71	  1	  1	  1	  6	  4	  1	  1	  1	0.49527	  1	0.60000	  0	 11	 30	 31	  1	
08-May-2013	sub2341	2341	  1	  0	 72	  1	  1	  1	  6	  4	  1	  1	  1	0.35206	  1	0.60000	  0	 11	 30	 31	  1	
08-May-2013	sub2341	2341	  1	  0	 73	  1	  1	  2	  5	  2	  1	  1	  0	0.56434	  0	0.60000	  0	 12	 40	 41	  0	
08-May-2013	sub2341	2341	  1	  0	 74	  1	  1	  6	  4	  2	  1	  2	  1	0.51507	  1	0.60000	  0	 16	 35	 36	  0	
08-May-2013	sub2341	2341	  1	  0	 75	  1	  1	  4	  1	  2	  0	  2	  0	0.42013	  1	0.60000	  0	 14	 34	 49	  1	
08-May-2013	sub2341	2341	  1	  0	  1	  2	  1	  6	  1	  4	  0	  1	  1	0.48568	  0	0.60000	  0	 16	 47	 38	  1	
08-May-2013	sub2341	2341	  1	  0	  2	  2	  1	  4	  2	  4	  1	  2	  1	0.43910	  1	0.30000	  1	 14	 32	 51	  1	
08-May-2013	sub2341	2341	  1	  0	  3	  2	  1	  2	  5	  4	  1	  1	  0	0.32927	  0	0.90000	  0	 12	 40	 41	  1	
08-May-2013	sub2341	2341	  1	  0	  4	  2	  1	  5	  3	  5	  1	  2	  0	0.42264	  0	0.90000	  0	 15	 45	 46	  1	
08-May-2013	sub2341	2341	  1	  0	  5	  2	  1	  1	  6	  2	  1	  1	  1	0.50699	  1	0.90000	  0	 11	 30	 31	  0	
08-May-2013	sub2341	2341	  1	  0	  6	  2	  1	  3	  4	  4	  1	  1	  1	0.34369	  1	0.90000	  0	 13	 32	 33	  1	
08-May-2013	sub2341	2341	  1	  0	  7	  2	  1	  3	  4	  4	  1	  1	  1	0.48413	  1	0.90000	  0	 13	 32	 33	  1	
08-May-2013	sub2341	2341	  1	  0	  8	  2	  1	  5	  3	  5	  0	  2	  1	0.38261	  0	0.90000	  0	 15	 47	 38	  1	
08-May-2013	sub2341	2341	  1	  0	  9	  2	  1	  5	  3	  5	  1	  1	  1	0.39274	  1	0.90000	  0	 15	 35	 36	  1	
08-May-2013	sub2341	2341	  1	  0	 10	  2	  1	  1	  6	  2	  1	  1	  1	0.61241	  1	0.90000	  0	 11	 30	 31	  0	
08-May-2013	sub2341	2341	  1	  0	 11	  2	  1	  2	  5	  4	  1	  1	  0	0.36799	  0	0.90000	  0	 12	 40	 41	  1	
08-May-2013	sub2341	2341	  1	  0	 12	  2	  1	  4	  2	  4	  1	  2	  1	0.37421	  1	0.90000	  0	 14	 32	 33	  1	
08-May-2013	sub2341	2341	  1	  0	 13	  2	  1	  4	  2	  4	  1	  2	  1	0.49791	  1	0.90000	  0	 14	 32	 33	  1	
08-May-2013	sub2341	2341	  1	  0	 14	  2	  1	  2	  5	  4	  1	  1	  0	0.41749	  0	0.90000	  0	 12	 40	 41	  1	
08-May-2013	sub2341	2341	  1	  0	 15	  2	  1	  6	  1	  4	  0	  1	  1	0.44189	  0	0.90000	  0	 16	 47	 38	  1	
08-May-2013	sub2341	2341	  1	  0	 16	  2	  1	  5	  3	  5	  1	  1	  1	0.60161	  1	0.80000	  0	 15	 35	 36	  0	
08-May-2013	sub2341	2341	  1	  0	 17	  2	  1	  5	  3	  5	  0	  1	  0	0.48180	  1	0.80000	  0	 15	 37	 48	  1	
08-May-2013	sub2341	2341	  1	  0	 18	  2	  1	  1	  6	  2	  1	  1	  1	0.39258	  1	0.70000	  0	 11	 30	 31	  1	
08-May-2013	sub2341	2341	  1	  0	 19	  2	  1	  3	  4	  4	  1	  1	  1	0.39829	  1	0.70000	  0	 13	 32	 33	  1	
08-May-2013	sub2341	2341	  1	  0	 20	  2	  1	  6	  1	  4	  1	  1	  0	0.35764	  0	0.70000	  0	 16	 45	 46	  1	
08-May-2013	sub2341	2341	  1	  0	 21	  2	  1	  1	  6	  2	  1	  2	  0	0.43599	  0	0.60000	  0	 11	 40	 41	  1	
08-May-2013	sub2341	2341	  1	  0	 22	  2	  1	  4	  2	  4	  1	  1	  0	0.34485	  0	0.60000	  0	 14	 42	 43	  1	
08-May-2013	sub2341	2341	  1	  0	 23	  2	  1	  5	  3	  5	  1	  2	  0	0.45095	  0	0.60000	  0	 15	 45	 46	  1	
08-May-2013	sub2341	2341	  1	  0	 24	  2	  1	  5	  3	  5	  1	  2	  0	0.49072	  0	0.60000	  0	 15	 45	 46	  1	
08-May-2013	sub2341	2341	  1	  0	 25	  2	  1	  3	  4	  4	  1	  1	  1	0.47690	  1	0.60000	  0	 13	 32	 33	  1	
08-May-2013	sub2341	2341	  1	  0	 26	  2	  1	  4	  2	  4	  1	  2	  1	0.48945	  1	0.50000	  0	 14	 32	 33	  1	
08-May-2013	sub2341	2341	  1	  0	 27	  2	  1	  1	  6	  2	  1	  1	  1	0.52633	  1	0.50000	  1	 11	 30	 51	  0	
08-May-2013	sub2341	2341	  1	  0	 28	  2	  1	  6	  1	  4	  1	  1	  0	0.43303	  0	0.90000	  0	 16	 45	 46	  1	
08-May-2013	sub2341	2341	  1	  0	 29	  2	  1	  3	  4	  4	  1	  1	  1	0.48714	  1	0.90000	  0	 13	 32	 33	  1	
08-May-2013	sub2341	2341	  1	  0	 30	  2	  1	  4	  2	  4	  1	  2	  1	0.41455	  1	0.80000	  0	 14	 32	 33	  1	
08-May-2013	sub2341	2341	  1	  0	 31	  2	  1	  3	  4	  4	  1	  1	  1	0.39630	  1	0.80000	  0	 13	 32	 33	  1	
08-May-2013	sub2341	2341	  1	  0	 32	  2	  1	  6	  1	  4	  0	  1	  1	0.54011	  0	0.80000	  0	 16	 47	 38	  0	
08-May-2013	sub2341	2341	  1	  0	 33	  2	  1	  3	  4	  4	  1	  1	  1	0.49324	  1	0.80000	  0	 13	 32	 33	  1	
08-May-2013	sub2341	2341	  1	  0	 34	  2	  1	  2	  5	  4	  1	  1	  0	0.45822	  0	0.80000	  0	 12	 40	 41	  1	
08-May-2013	sub2341	2341	  1	  0	 35	  2	  1	  2	  5	  4	  1	  2	  1	0.65633	  1	0.70000	  0	 12	 30	 31	  0	
08-May-2013	sub2341	2341	  1	  0	 36	  2	  1	  4	  2	  4	  1	  2	  1	0.41371	  1	0.70000	  0	 14	 32	 33	  1	
08-May-2013	sub2341	2341	  1	  0	 37	  2	  1	  4	  2	  4	  1	  2	  1	0.46349	  1	0.70000	  0	 14	 32	 33	  1	
08-May-2013	sub2341	2341	  1	  0	 38	  2	  1	  4	  2	  4	  0	  2	  0	0.47560	  1	0.70000	  0	 14	 34	 49	  1	
08-May-2013	sub2341	2341	  1	  0	 39	  2	  1	  2	  5	  4	  1	  1	  0	0.41922	  0	0.70000	  0	 12	 40	 41	  1	
08-May-2013	sub2341	2341	  1	  0	 40	  2	  1	  1	  6	  2	  1	  1	  1	0.50079	  1	0.70000	  0	 11	 30	 31	  0	
08-May-2013	sub2341	2341	  1	  0	 41	  2	  1	  3	  4	  4	  1	  1	  1	0.57269	  1	0.60000	  0	 13	 32	 33	  0	
08-May-2013	sub2341	2341	  1	  0	 42	  2	  1	  1	  6	  2	  1	  1	  1	0.60691	  1	0.60000	  1	 11	 30	 51	  0	
08-May-2013	sub2341	2341	  1	  0	 43	  2	  1	  5	  3	  5	  1	  1	  1	0.48156	  1	0.90000	  0	 15	 35	 36	  1	
08-May-2013	sub2341	2341	  1	  0	 44	  2	  1	  1	  6	  2	  1	  1	  1	0.47519	  1	0.80000	  0	 11	 30	 31	  1	
08-May-2013	sub2341	2341	  1	  0	 45	  2	  1	  2	  5	  4	  1	  1	  0	0.59464	  0	0.80000	  0	 12	 40	 41	  0	
08-May-2013	sub2341	2341	  1	  0	 46	  2	  1	  2	  5	  4	  1	  2	  1	0.56749	  1	0.80000	  0	 12	 30	 31	  0	
08-May-2013	sub2341	2341	  1	  0	 47	  2	  1	  2	  5	  4	  1	  2	  1	0.36381	  1	0.80000	  0	 12	 30	 31	  1	
08-May-2013	sub2341	2341	  1	  0	 48	  2	  1	  5	  3	  5	  1	  1	  1	0.54150	  1	0.80000	  0	 15	 35	 36	  0	
08-May-2013	sub2341	2341	  1	  0	 49	  2	  1	  6	  1	  4	  1	  1	  0	0.51561	  0	0.80000	  0	 16	 45	 46	  0	
08-May-2013	sub2341	2341	  1	  0	 50	  2	  1	  2	  5	  4	  1	  2	  1	0.43598	  1	0.80000	  0	 12	 30	 31	  1	
08-May-2013	sub2341	2341	  1	  0	 51	  2	  1	  6	  1	  4	  0	  1	  1	0.68291	  0	0.70000	  0	 16	 47	 38	  0	
08-May-2013	sub2341	2341	  1	  0	 52	  2	  1	  1	  6	  2	  1	  1	  1	0.49877	  1	0.70000	  0	 11	 30	 31	  1	
08-May-2013	sub2341	2341	  1	  0	 53	  2	  1	  6	  1	  4	  1	  1	  0	0.48669	  0	0.70000	  0	 16	 45	 46	  1	
08-May-2013	sub2341	2341	  1	  0	 54	  2	  1	  4	  2	  4	  0	  2	  0	0.46401	  1	0.70000	  0	 14	 34	 49	  1	
08-May-2013	sub2341	2341	  1	  0	 55	  2	  1	  3	  4	  4	  0	  1	  0	0.51165	  1	0.70000	  0	 13	 34	 49	  0	
08-May-2013	sub2341	2341	  1	  0	 56	  2	  1	  1	  6	  2	  1	  1	  1	0.53074	  1	0.70000	  0	 11	 30	 31	  0	
08-May-2013	sub2341	2341	  1	  0	 57	  2	  1	  6	  1	  4	  1	  1	  0	0.46713	  0	0.70000	  0	 16	 45	 46	  1	
08-May-2013	sub2341	2341	  1	  0	 58	  2	  1	  1	  6	  2	  1	  1	  1	0.44825	  1	0.70000	  0	 11	 30	 31	  1	
08-May-2013	sub2341	2341	  1	  0	 59	  2	  1	  3	  4	  4	  0	  1	  0	0.56190	  1	0.70000	  0	 13	 34	 49	  0	
08-May-2013	sub2341	2341	  1	  0	 60	  2	  1	  5	  3	  5	  0	  1	  0	0.30123	  1	0.70000	  0	 15	 37	 48	  1	
08-May-2013	sub2341	2341	  1	  0	 61	  2	  1	  4	  2	  4	  1	  2	  1	0.46696	  1	0.60000	  0	 14	 32	 33	  1	
08-May-2013	sub2341	2341	  1	  0	 62	  2	  1	  4	  2	  4	  1	  2	  1	0.42848	  1	0.60000	  0	 14	 32	 33	  1	
08-May-2013	sub2341	2341	  1	  0	 63	  2	  1	  5	  3	  5	  0	  2	  1	0.40884	  0	0.60000	  0	 15	 47	 38	  1	
08-May-2013	sub2341	2341	  1	  0	 64	  2	  1	  6	  1	  4	  1	  1	  0	0.49402	  0	0.60000	  0	 16	 45	 46	  1	
08-May-2013	sub2341	2341	  1	  0	 65	  2	  1	  3	  4	  4	  1	  2	  0	0.33374	  0	0.60000	  0	 13	 42	 43	  1	
08-May-2013	sub2341	2341	  1	  0	 66	  2	  1	  1	  6	  2	  1	  1	  1	0.44684	  1	0.60000	  0	 11	 30	 31	  1	
08-May-2013	sub2341	2341	  1	  0	 67	  2	  1	  6	  1	  4	  0	  1	  1	0.46134	  0	0.60000	  0	 16	 47	 38	  1	
08-May-2013	sub2341	2341	  1	  0	 68	  2	  1	  6	  1	  4	  0	  1	  1	0.42179	  0	0.60000	  0	 16	 47	 38	  1	
08-May-2013	sub2341	2341	  1	  0	 69	  2	  1	  2	  5	  4	  1	  1	  0	0.54866	  0	0.60000	  0	 12	 40	 41	  0	
08-May-2013	sub2341	2341	  1	  0	 70	  2	  1	  3	  4	  4	  1	  1	  1	0.58751	  1	0.60000	  0	 13	 32	 33	  0	
08-May-2013	sub2341	2341	  1	  0	 71	  2	  1	  5	  3	  5	  0	  1	  0	0.46644	  1	0.60000	  0	 15	 37	 48	  1	
08-May-2013	sub2341	2341	  1	  0	 72	  2	  1	  2	  5	  4	  1	  2	  1	0.64134	  1	0.60000	  1	 12	 30	 51	  0	
08-May-2013	sub2341	2341	  1	  0	 73	  2	  1	  2	  5	  4	  1	  2	  1	0.43523	  1	0.70000	  0	 12	 30	 31	  1	
08-May-2013	sub2341	2341	  1	  0	 74	  2	  1	  6	  1	  4	  0	  1	  1	0.56052	  0	0.70000	  0	 16	 47	 38	  0	
08-May-2013	sub2341	2341	  1	  0	 75	  2	  1	  3	  4	  4	  0	  1	  0	0.45747	  1	0.70000	  0	 13	 34	 49	  1	
08-May-2013	sub2341	2341	  1	  0	 76	  2	  2	  3	  4	  4	  1	  2	  0	0.04599	  0	0.70000	  0	 23	 82	 83	  1	
08-May-2013	sub2341	2341	  1	  0	 77	  2	  2	  4	  2	  4	  1	  1	  0	0.37160	  0	0.70000	  0	 24	 82	 83	  1	
08-May-2013	sub2341	2341	  1	  0	 78	  2	  2	  1	  6	  2	  1	  1	  1	0.51811	  1	0.70000	  0	 21	 60	 61	  0	
08-May-2013	sub2341	2341	  1	  0	 79	  2	  2	  5	  3	  5	  0	  1	  0	0.46919	  1	0.70000	  0	 25	 67	 88	  1	
08-May-2013	sub2341	2341	  1	  0	 80	  2	  2	  6	  1	  4	  0	  1	  1	0.56031	  0	0.70000	  0	 26	 87	 68	  0	
08-May-2013	sub2341	2341	  1	  0	 81	  2	  2	  3	  4	  4	  1	  2	  0	0.58040	  0	0.60000	  0	 23	 82	 83	  0	
08-May-2013	sub2341	2341	  1	  0	 82	  2	  2	  6	  1	  4	  1	  1	  0	0.37541	  0	0.60000	  0	 26	 85	 86	  1	
08-May-2013	sub2341	2341	  1	  0	 83	  2	  2	  3	  4	  4	  1	  1	  1	0.61227	  1	0.60000	  1	 23	 62	 51	  0	
08-May-2013	sub2341	2341	  1	  0	 84	  2	  2	  4	  2	  4	  1	  1	  0	0.36535	  0	0.80000	  0	 24	 82	 83	  1	
08-May-2013	sub2341	2341	  1	  0	 85	  2	  2	  1	  6	  2	  1	  1	  1	0.39444	  1	0.70000	  0	 21	 60	 61	  1	
08-May-2013	sub2341	2341	  1	  0	 86	  2	  2	  5	  3	  5	  0	  1	  0	0.49984	  1	0.70000	  0	 25	 67	 88	  1	
08-May-2013	sub2341	2341	  1	  0	 87	  2	  2	  5	  3	  5	  0	  1	  0	0.54114	  1	0.70000	  0	 25	 67	 88	  0	
08-May-2013	sub2341	2341	  1	  0	 88	  2	  2	  3	  4	  4	  0	  1	  0	0.49269	  1	0.70000	  0	 23	 64	 89	  1	
08-May-2013	sub2341	2341	  1	  0	 89	  2	  2	  4	  2	  4	  1	  1	  0	0.42301	  0	0.70000	  0	 24	 82	 83	  1	
08-May-2013	sub2341	2341	  1	  0	 90	  2	  2	  5	  3	  5	  0	  1	  0	0.49808	  1	0.70000	  0	 25	 67	 88	  1	
08-May-2013	sub2341	2341	  1	  0	 91	  2	  2	  5	  3	  5	  0	  1	  0	0.44461	  1	0.70000	  0	 25	 67	 88	  1	
08-May-2013	sub2341	2341	  1	  0	 92	  2	  2	  5	  3	  5	  0	  2	  1	0.45264	  0	0.70000	  0	 25	 87	 68	  1	
08-May-2013	sub2341	2341	  1	  0	 93	  2	  2	  5	  3	  5	  0	  2	  1	0.45554	  0	0.70000	  0	 25	 87	 68	  1	
08-May-2013	sub2341	2341	  1	  0	 94	  2	  2	  1	  6	  2	  1	  2	  0	0.56500	  0	0.70000	  0	 21	 80	 81	  0	
08-May-2013	sub2341	2341	  1	  0	 95	  2	  2	  5	  3	  5	  0	  1	  0	0.46622	  1	0.70000	  0	 25	 67	 88	  1	
08-May-2013	sub2341	2341	  1	  0	 96	  2	  2	  3	  4	  4	  1	  2	  0	0.49281	  0	0.70000	  0	 23	 82	 83	  1	
08-May-2013	sub2341	2341	  1	  0	 97	  2	  2	  1	  6	  2	  1	  1	  1	0.36322	  1	0.70000	  0	 21	 60	 61	  1	
08-May-2013	sub2341	2341	  1	  0	 98	  2	  2	  3	  4	  4	  1	  1	  1	0.37532	  1	0.70000	  0	 23	 62	 63	  1	
08-May-2013	sub2341	2341	  1	  0	 99	  2	  2	  2	  5	  4	  1	  1	  0	0.45800	  0	0.70000	  0	 22	 80	 81	  1	
08-May-2013	sub2341	2341	  1	  0	100	  2	  2	  5	  3	  5	  0	  1	  0	0.52614	  1	0.70000	  0	 25	 67	 88	  0	
08-May-2013	sub2341	2341	  1	  0	101	  2	  2	  1	  6	  2	  1	  1	  1	0.40921	  1	0.60000	  0	 21	 60	 61	  1	
08-May-2013	sub2341	2341	  1	  0	102	  2	  2	  4	  2	  4	  1	  2	  1	0.55411	  1	0.60000	  0	 24	 62	 63	  0	
08-May-2013	sub2341	2341	  1	  0	103	  2	  2	  1	  6	  2	  1	  1	  1	0.45567	  1	0.60000	  0	 21	 60	 61	  1	
08-May-2013	sub2341	2341	  1	  0	104	  2	  2	  4	  2	  4	  1	  1	  0	0.50881	  0	0.60000	  0	 24	 82	 83	  0	
08-May-2013	sub2341	2341	  1	  0	105	  2	  2	  2	  5	  4	  1	  1	  0	0.53459	  0	0.60000	  0	 22	 80	 81	  0	
08-May-2013	sub2341	2341	  1	  0	106	  2	  2	  4	  2	  4	  0	  2	  0	0.48597	  1	0.60000	  0	 24	 64	 89	  1	
08-May-2013	sub2341	2341	  1	  0	107	  2	  2	  2	  5	  4	  1	  2	  1	0.52915	  1	0.60000	  0	 22	 60	 61	  0	
08-May-2013	sub2341	2341	  1	  0	108	  2	  2	  1	  6	  2	  1	  1	  1	0.56593	  1	0.60000	  0	 21	 60	 61	  0	
08-May-2013	sub2341	2341	  1	  0	109	  2	  2	  3	  4	  4	  1	  2	  0	0.58107	  0	0.60000	  0	 23	 82	 83	  0	
08-May-2013	sub2341	2341	  1	  0	110	  2	  2	  5	  3	  5	  0	  1	  0	0.56695	  1	0.60000	  0	 25	 67	 88	  0	
08-May-2013	sub2341	2341	  1	  0	111	  2	  2	  3	  4	  4	  1	  1	  1	0.52762	  1	0.60000	  0	 23	 62	 63	  0	
08-May-2013	sub2341	2341	  1	  0	112	  2	  2	  4	  2	  4	  1	  2	  1	0.46524	  1	0.60000	  0	 24	 62	 63	  1	
08-May-2013	sub2341	2341	  1	  0	113	  2	  2	  4	  2	  4	  0	  2	  0	0.54401	  1	0.60000	  0	 24	 64	 89	  0	
08-May-2013	sub2341	2341	  1	  0	114	  2	  2	  6	  1	  4	  0	  1	  1	0.58491	  0	0.60000	  0	 26	 87	 68	  0	
08-May-2013	sub2341	2341	  1	  0	115	  2	  2	  2	  5	  4	  1	  1	  0	0.47904	  0	0.60000	  0	 22	 80	 81	  1	
08-May-2013	sub2341	2341	  1	  0	116	  2	  2	  4	  2	  4	  1	  1	  0	0.47699	  0	0.60000	  0	 24	 82	 83	  1	
08-May-2013	sub2341	2341	  1	  0	117	  2	  2	  3	  4	  4	  1	  1	  1	0.43362	  1	0.60000	  0	 23	 62	 63	  1	
08-May-2013	sub2341	2341	  1	  0	118	  2	  2	  2	  5	  4	  1	  2	  1	0.63815	  1	0.60000	  1	 22	 60	 51	  0	
08-May-2013	sub2341	2341	  1	  0	119	  2	  2	  2	  5	  4	  1	  2	  1	0.41198	  1	0.70000	  0	 22	 60	 61	  1	
08-May-2013	sub2341	2341	  1	  0	120	  2	  2	  6	  1	  4	  0	  2	  0	0.52207	  1	0.70000	  0	 26	 67	 88	  0	
08-May-2013	sub2341	2341	  1	  0	121	  2	  2	  4	  2	  4	  1	  1	  0	0.51613	  0	0.60000	  0	 24	 82	 83	  0	
08-May-2013	sub2341	2341	  1	  0	122	  2	  2	  6	  1	  4	  0	  1	  1	0.50148	  0	0.60000	  0	 26	 87	 68	  0	
08-May-2013	sub2341	2341	  1	  0	123	  2	  2	  6	  1	  4	  0	  1	  1	0.46801	  0	0.60000	  0	 26	 87	 68	  1	
08-May-2013	sub2341	2341	  1	  0	124	  2	  2	  6	  1	  4	  1	  1	  0	0.45169	  0	0.60000	  0	 26	 85	 86	  1	
08-May-2013	sub2341	2341	  1	  0	125	  2	  2	  6	  1	  4	  1	  1	  0	0.34350	  0	0.60000	  0	 26	 85	 86	  1	
08-May-2013	sub2341	2341	  1	  0	126	  2	  2	  1	  6	  2	  1	  1	  1	0.51740	  1	0.60000	  0	 21	 60	 61	  0	
08-May-2013	sub2341	2341	  1	  0	127	  2	  2	  2	  5	  4	  1	  2	  1	0.52191	  1	0.60000	  0	 22	 60	 61	  0	
08-May-2013	sub2341	2341	  1	  0	128	  2	  2	  3	  4	  4	  0	  1	  0	0.48721	  1	0.60000	  0	 23	 64	 89	  1	
08-May-2013	sub2341	2341	  1	  0	129	  2	  2	  4	  2	  4	  0	  2	  0	0.44321	  1	0.60000	  0	 24	 64	 89	  1	
08-May-2013	sub2341	2341	  1	  0	130	  2	  2	  2	  5	  4	  1	  1	  0	0.42906	  0	0.60000	  0	 22	 80	 81	  1	
08-May-2013	sub2341	2341	  1	  0	131	  2	  2	  2	  5	  4	  1	  2	  1	0.44214	  1	0.60000	  0	 22	 60	 61	  1	
08-May-2013	sub2341	2341	  1	  0	132	  2	  2	  1	  6	  2	  1	  1	  1	0.42216	  1	0.60000	  0	 21	 60	 61	  1	
08-May-2013	sub2341	2341	  1	  0	133	  2	  2	  6	  1	  4	  0	  1	  1	0.54726	  0	0.60000	  0	 26	 87	 68	  0	
08-May-2013	sub2341	2341	  1	  0	134	  2	  2	  5	  3	  5	  0	  1	  0	0.50649	  1	0.60000	  0	 25	 67	 88	  0	
08-May-2013	sub2341	2341	  1	  0	135	  2	  2	  6	  1	  4	  1	  1	  0	0.49504	  0	0.60000	  0	 26	 85	 86	  1	
08-May-2013	sub2341	2341	  1	  0	136	  2	  2	  3	  4	  4	  1	  1	  1	0.62748	  1	0.60000	  1	 23	 62	 51	  0	
08-May-2013	sub2341	2341	  1	  0	137	  2	  2	  1	  6	  2	  1	  1	  1	0.45814	  1	0.70000	  0	 21	 60	 61	  1	
08-May-2013	sub2341	2341	  1	  0	138	  2	  2	  2	  5	  4	  1	  2	  1	0.50393	  1	0.70000	  0	 22	 60	 61	  0	
08-May-2013	sub2341	2341	  1	  0	139	  2	  2	  4	  2	  4	  1	  1	  0	0.39574	  0	0.70000	  0	 24	 82	 83	  1	
08-May-2013	sub2341	2341	  1	  0	140	  2	  2	  2	  5	  4	  1	  2	  1	0.53455	  1	0.70000	  0	 22	 60	 61	  0	
08-May-2013	sub2341	2341	  1	  0	141	  2	  2	  1	  6	  2	  1	  1	  1	0.45004	  1	0.60000	  0	 21	 60	 61	  1	
08-May-2013	sub2341	2341	  1	  0	142	  2	  2	  5	  3	  5	  0	  2	  1	0.40747	  0	0.60000	  0	 25	 87	 68	  1	
08-May-2013	sub2341	2341	  1	  0	143	  2	  2	  2	  5	  4	  1	  2	  1	0.64776	  1	0.60000	  1	 22	 60	 51	  0	
08-May-2013	sub2341	2341	  1	  0	144	  2	  2	  5	  3	  5	  0	  2	  1	0.52752	  0	0.70000	  0	 25	 87	 68	  0	
08-May-2013	sub2341	2341	  1	  0	145	  2	  2	  6	  1	  4	  1	  2	  1	0.36779	  1	0.70000	  0	 26	 65	 66	  1	
08-May-2013	sub2341	2341	  1	  0	146	  2	  2	  3	  4	  4	  1	  1	  1	0.39351	  1	0.70000	  0	 23	 62	 63	  1	
08-May-2013	sub2341	2341	  1	  0	147	  2	  2	  1	  6	  2	  1	  1	  1	0.48680	  1	0.70000	  0	 21	 60	 61	  1	
08-May-2013	sub2341	2341	  1	  0	148	  2	  2	  4	  2	  4	  1	  1	  0	0.41854	  0	0.70000	  0	 24	 82	 83	  1	
08-May-2013	sub2341	2341	  1	  0	149	  2	  2	  6	  1	  4	  1	  1	  0	0.50356	  0	0.70000	  0	 26	 85	 86	  0	
08-May-2013	sub2341	2341	  1	  0	150	  2	  2	  1	  6	  2	  1	  1	  1	0.59085	  1	0.70000	  0	 21	 60	 61	  0	
08-May-2013	sub2341	2341	  1	  0	  1	  3	  1	  1	  4	  5	  1	  1	  1	0.49771	  1	0.60000	  0	 11	 30	 31	  1	
08-May-2013	sub2341	2341	  1	  0	  2	  3	  1	  1	  4	  5	  1	  1	  1	0.46344	  1	0.30000	  1	 11	 30	 51	  1	
08-May-2013	sub2341	2341	  1	  0	  3	  3	  1	  6	  5	  5	  1	  2	  1	0.46755	  1	0.90000	  0	 16	 35	 36	  1	
08-May-2013	sub2341	2341	  1	  0	  4	  3	  1	  1	  4	  5	  1	  1	  1	0.51720	  1	0.90000	  0	 11	 30	 31	  0	
08-May-2013	sub2341	2341	  1	  0	  5	  3	  1	  2	  1	  1	  1	  1	  0	0.42092	  0	0.90000	  0	 12	 40	 41	  1	
08-May-2013	sub2341	2341	  1	  0	  6	  3	  1	  3	  2	  1	  1	  1	  1	0.49006	  1	0.90000	  0	 13	 32	 33	  1	
08-May-2013	sub2341	2341	  1	  0	  7	  3	  1	  3	  2	  1	  1	  1	  1	0.44005	  1	0.90000	  0	 13	 32	 33	  1	
08-May-2013	sub2341	2341	  1	  0	  8	  3	  1	  3	  2	  1	  1	  1	  1	0.43471	  1	0.90000	  0	 13	 32	 33	  1	
08-May-2013	sub2341	2341	  1	  0	  9	  3	  1	  3	  2	  1	  1	  1	  1	0.38777	  1	0.90000	  0	 13	 32	 33	  1	
08-May-2013	sub2341	2341	  1	  0	 10	  3	  1	  2	  1	  1	  1	  1	  0	0.51953	  0	0.90000	  0	 12	 40	 41	  0	
08-May-2013	sub2341	2341	  1	  0	 11	  3	  1	  4	  3	  3	  1	  1	  0	0.49757	  0	0.90000	  0	 14	 42	 43	  1	
08-May-2013	sub2341	2341	  1	  0	 12	  3	  1	  4	  3	  3	  1	  2	  1	0.57052	  1	0.90000	  0	 14	 32	 33	  0	
08-May-2013	sub2341	2341	  1	  0	 13	  3	  1	  6	  5	  5	  0	  1	  1	0.52222	  0	0.90000	  0	 16	 47	 38	  0	
08-May-2013	sub2341	2341	  1	  0	 14	  3	  1	  5	  6	  1	  0	  2	  1	0.58761	  0	0.90000	  0	 15	 47	 38	  0	
08-May-2013	sub2341	2341	  1	  0	 15	  3	  1	  2	  1	  1	  1	  1	  0	0.50557	  0	0.90000	  0	 12	 40	 41	  0	
08-May-2013	sub2341	2341	  1	  0	 16	  3	  1	  2	  1	  1	  1	  2	  1	0.45605	  1	0.80000	  0	 12	 30	 31	  1	
08-May-2013	sub2341	2341	  1	  0	 17	  3	  1	  6	  5	  5	  0	  1	  1	0.73368	  0	0.80000	  0	 16	 47	 38	  0	
08-May-2013	sub2341	2341	  1	  0	 18	  3	  1	  4	  3	  3	  1	  1	  0	0.56447	  0	0.70000	  0	 14	 42	 43	  0	
08-May-2013	sub2341	2341	  1	  0	 19	  3	  1	  1	  4	  5	  1	  1	  1	0.43140	  1	0.70000	  0	 11	 30	 31	  1	
08-May-2013	sub2341	2341	  1	  0	 20	  3	  1	  6	  5	  5	  1	  1	  0	0.65448	  0	0.70000	  0	 16	 45	 46	  0	
08-May-2013	sub2341	2341	  1	  0	 21	  3	  1	  1	  4	  5	  1	  1	  1	0.48025	  1	0.60000	  0	 11	 30	 31	  1	
08-May-2013	sub2341	2341	  1	  0	 22	  3	  1	  4	  3	  3	  1	  1	  0	0.48996	  0	0.60000	  0	 14	 42	 43	  1	
08-May-2013	sub2341	2341	  1	  0	 23	  3	  1	  5	  6	  1	  1	  2	  0	0.65312	  0	0.60000	  1	 15	 45	 51	  0	
08-May-2013	sub2341	2341	  1	  0	 24	  3	  1	  6	  5	  5	  0	  1	  1	0.47637	  0	0.90000	  0	 16	 47	 38	  1	
08-May-2013	sub2341	2341	  1	  0	 25	  3	  1	  3	  2	  1	  0	  1	  0	0.41386	  1	0.90000	  0	 13	 34	 49	  1	
08-May-2013	sub2341	2341	  1	  0	 26	  3	  1	  6	  5	  5	  1	  1	  0	0.69587	  0	0.90000	  0	 16	 45	 46	  0	
08-May-2013	sub2341	2341	  1	  0	 27	  3	  1	  4	  3	  3	  1	  1	  0	0.48588	  0	0.90000	  0	 14	 42	 43	  1	
08-May-2013	sub2341	2341	  1	  0	 28	  3	  1	  6	  5	  5	  0	  1	  1	0.58581	  0	0.90000	  0	 16	 47	 38	  0	
08-May-2013	sub2341	2341	  1	  0	 29	  3	  1	  5	  6	  1	  1	  2	  0	0.63704	  0	0.90000	  0	 15	 45	 46	  0	
08-May-2013	sub2341	2341	  1	  0	 30	  3	  1	  1	  4	  5	  1	  1	  1	0.41038	  1	0.80000	  0	 11	 30	 31	  1	
08-May-2013	sub2341	2341	  1	  0	 31	  3	  1	  4	  3	  3	  1	  2	  1	0.55888	  1	0.80000	  0	 14	 32	 33	  0	
08-May-2013	sub2341	2341	  1	  0	 32	  3	  1	  2	  1	  1	  1	  2	  1	0.54309	  1	0.80000	  0	 12	 30	 31	  0	
08-May-2013	sub2341	2341	  1	  0	 33	  3	  1	  3	  2	  1	  1	  1	  1	0.52979	  1	0.80000	  0	 13	 32	 33	  0	
08-May-2013	sub2341	2341	  1	  0	 34	  3	  1	  4	  3	  3	  1	  2	  1	0.58951	  1	0.80000	  0	 14	 32	 33	  0	
08-May-2013	sub2341	2341	  1	  0	 35	  3	  1	  1	  4	  5	  1	  1	  1	0.51653	  1	0.70000	  0	 11	 30	 31	  0	
08-May-2013	sub2341	2341	  1	  0	 36	  3	  1	  5	  6	  1	  1	  2	  0	0.54901	  0	0.70000	  0	 15	 45	 46	  0	
08-May-2013	sub2341	2341	  1	  0	 37	  3	  1	  3	  2	  1	  0	  2	  1	0.45764	  0	0.70000	  0	 13	 44	 39	  1	
08-May-2013	sub2341	2341	  1	  0	 38	  3	  1	  3	  2	  1	  1	  1	  1	0.59334	  1	0.70000	  0	 13	 32	 33	  0	
08-May-2013	sub2341	2341	  1	  0	 39	  3	  1	  1	  4	  5	  1	  1	  1	0.49356	  1	0.70000	  0	 11	 30	 31	  1	
08-May-2013	sub2341	2341	  1	  0	 40	  3	  1	  3	  2	  1	  1	  1	  1	0.48408	  1	0.70000	  0	 13	 32	 33	  1	
08-May-2013	sub2341	2341	  1	  0	 41	  3	  1	  4	  3	  3	  1	  2	  1	0.53007	  1	0.60000	  0	 14	 32	 33	  0	
08-May-2013	sub2341	2341	  1	  0	 42	  3	  1	  6	  5	  5	  1	  1	  0	0.55254	  0	0.60000	  0	 16	 45	 46	  0	
08-May-2013	sub2341	2341	  1	  0	 43	  3	  1	  2	  1	  1	  1	  2	  1	0.56930	  1	0.60000	  0	 12	 30	 31	  0	
08-May-2013	sub2341	2341	  1	  0	 44	  3	  1	  3	  2	  1	  1	  1	  1	0.43273	  1	0.60000	  0	 13	 32	 33	  1	
08-May-2013	sub2341	2341	  1	  0	 45	  3	  1	  5	  6	  1	  0	  2	  1	0.49692	  0	0.60000	  0	 15	 47	 38	  1	
08-May-2013	sub2341	2341	  1	  0	 46	  3	  1	  5	  6	  1	  0	  2	  1	0.47879	  0	0.60000	  0	 15	 47	 38	  1	
08-May-2013	sub2341	2341	  1	  0	 47	  3	  1	  2	  1	  1	  1	  2	  1	0.46018	  1	0.60000	  0	 12	 30	 31	  1	
08-May-2013	sub2341	2341	  1	  0	 48	  3	  1	  6	  5	  5	  0	  1	  1	0.64623	  0	0.60000	  1	 16	 47	 51	  0	
08-May-2013	sub2341	2341	  1	  0	 49	  3	  1	  1	  4	  5	  1	  1	  1	0.40330	  1	0.80000	  0	 11	 30	 31	  1	
08-May-2013	sub2341	2341	  1	  0	 50	  3	  1	  2	  1	  1	  1	  1	  0	0.53204	  0	0.80000	  0	 12	 40	 41	  0	
08-May-2013	sub2341	2341	  1	  0	 51	  3	  1	  4	  3	  3	  1	  2	  1	0.50380	  1	0.70000	  0	 14	 32	 33	  0	
08-May-2013	sub2341	2341	  1	  0	 52	  3	  1	  5	  6	  1	  1	  2	  0	0.53018	  0	0.70000	  0	 15	 45	 46	  0	
08-May-2013	sub2341	2341	  1	  0	 53	  3	  1	  6	  5	  5	  1	  2	  1	0.44122	  1	0.70000	  0	 16	 35	 36	  1	
08-May-2013	sub2341	2341	  1	  0	 54	  3	  1	  3	  2	  1	  1	  1	  1	0.46829	  1	0.70000	  0	 13	 32	 33	  1	
08-May-2013	sub2341	2341	  1	  0	 55	  3	  1	  1	  4	  5	  1	  1	  1	0.47910	  1	0.70000	  0	 11	 30	 31	  1	
08-May-2013	sub2341	2341	  1	  0	 56	  3	  1	  6	  5	  5	  0	  1	  1	0.47869	  0	0.70000	  0	 16	 47	 38	  1	
08-May-2013	sub2341	2341	  1	  0	 57	  3	  1	  6	  5	  5	  0	  1	  1	1.32077	  0	0.70000	  1	 16	 47	 51	  0	
08-May-2013	sub2341	2341	  1	  0	 58	  3	  1	  4	  3	  3	  0	  2	  0	0.54711	  1	0.90000	  0	 14	 34	 49	  0	
08-May-2013	sub2341	2341	  1	  0	 59	  3	  1	  3	  2	  1	  1	  1	  1	0.43831	  1	0.80000	  0	 13	 32	 33	  1	
08-May-2013	sub2341	2341	  1	  0	 60	  3	  1	  1	  4	  5	  1	  1	  1	0.41510	  1	0.80000	  0	 11	 30	 31	  1	
08-May-2013	sub2341	2341	  1	  0	 61	  3	  1	  2	  1	  1	  1	  2	  1	0.54570	  1	0.80000	  0	 12	 30	 31	  0	
08-May-2013	sub2341	2341	  1	  0	 62	  3	  1	  1	  4	  5	  1	  1	  1	0.46064	  1	0.80000	  0	 11	 30	 31	  1	
08-May-2013	sub2341	2341	  1	  0	 63	  3	  1	  2	  1	  1	  1	  2	  1	0.80222	  1	0.80000	  1	 12	 30	 51	  0	
08-May-2013	sub2341	2341	  1	  0	 64	  3	  1	  4	  3	  3	  1	  2	  1	0.53854	  1	0.90000	  0	 14	 32	 33	  0	
08-May-2013	sub2341	2341	  1	  0	 65	  3	  1	  5	  6	  1	  1	  2	  0	0.46704	  0	0.90000	  0	 15	 45	 46	  1	
08-May-2013	sub2341	2341	  1	  0	 66	  3	  1	  3	  2	  1	  0	  1	  0	0.39871	  1	0.90000	  0	 13	 34	 49	  1	
08-May-2013	sub2341	2341	  1	  0	 67	  3	  1	  5	  6	  1	  0	  2	  1	0.50806	  0	0.90000	  0	 15	 47	 38	  0	
08-May-2013	sub2341	2341	  1	  0	 68	  3	  1	  5	  6	  1	  0	  2	  1	0.50238	  0	0.90000	  0	 15	 47	 38	  0	
08-May-2013	sub2341	2341	  1	  0	 69	  3	  1	  6	  5	  5	  1	  1	  0	0.44673	  0	0.90000	  0	 16	 45	 46	  1	
08-May-2013	sub2341	2341	  1	  0	 70	  3	  1	  2	  1	  1	  1	  1	  0	0.58999	  0	0.90000	  0	 12	 40	 41	  0	
08-May-2013	sub2341	2341	  1	  0	 71	  3	  1	  4	  3	  3	  0	  2	  0	0.53002	  1	0.90000	  0	 14	 34	 49	  0	
08-May-2013	sub2341	2341	  1	  0	 72	  3	  1	  5	  6	  1	  0	  2	  1	0.52055	  0	0.90000	  0	 15	 47	 38	  0	
08-May-2013	sub2341	2341	  1	  0	 73	  3	  1	  2	  1	  1	  1	  1	  0	0.48315	  0	0.80000	  0	 12	 40	 41	  1	
08-May-2013	sub2341	2341	  1	  0	 74	  3	  1	  2	  1	  1	  1	  2	  1	0.65260	  1	0.80000	  0	 12	 30	 31	  0	
08-May-2013	sub2341	2341	  1	  0	 75	  3	  1	  5	  6	  1	  1	  2	  0	0.45143	  0	0.80000	  0	 15	 45	 46	  1	
08-May-2013	sub2341	2341	  1	  0	 76	  3	  2	  5	  6	  1	  0	  2	  1	0.39962	  0	0.80000	  0	 25	 87	 68	  1	
08-May-2013	sub2341	2341	  1	  0	 77	  3	  2	  2	  1	  1	  1	  2	  1	0.55767	  1	0.80000	  0	 22	 60	 61	  0	
08-May-2013	sub2341	2341	  1	  0	 78	  3	  2	  4	  3	  3	  1	  2	  1	0.58427	  1	0.80000	  0	 24	 62	 63	  0	
08-May-2013	sub2341	2341	  1	  0	 79	  3	  2	  1	  4	  5	  1	  1	  1	0.44317	  1	0.80000	  0	 21	 60	 61	  1	
08-May-2013	sub2341	2341	  1	  0	 80	  3	  2	  3	  2	  1	  1	  1	  1	0.60067	  1	0.80000	  0	 23	 62	 63	  0	
08-May-2013	sub2341	2341	  1	  0	 81	  3	  2	  2	  1	  1	  1	  2	  1	0.58108	  1	0.80000	  0	 22	 60	 61	  0	
08-May-2013	sub2341	2341	  1	  0	 82	  3	  2	  5	  6	  1	  0	  2	  1	0.50977	  0	0.80000	  0	 25	 87	 68	  0	
08-May-2013	sub2341	2341	  1	  0	 83	  3	  2	  1	  4	  5	  1	  1	  1	0.51699	  1	0.80000	  0	 21	 60	 61	  0	
08-May-2013	sub2341	2341	  1	  0	 84	  3	  2	  6	  5	  5	  0	  1	  1	0.79373	  0	0.80000	  0	 26	 87	 68	  0	
08-May-2013	sub2341	2341	  1	  0	 85	  3	  2	  6	  5	  5	  0	  2	  0	0.50055	  1	0.70000	  0	 26	 67	 88	  0	
08-May-2013	sub2341	2341	  1	  0	 86	  3	  2	  3	  2	  1	  1	  1	  1	0.37554	  1	0.70000	  0	 23	 62	 63	  1	
08-May-2013	sub2341	2341	  1	  0	 87	  3	  2	  1	  4	  5	  1	  1	  1	0.43700	  1	0.70000	  0	 21	 60	 61	  1	
08-May-2013	sub2341	2341	  1	  0	 88	  3	  2	  2	  1	  1	  1	  2	  1	0.58979	  1	0.70000	  0	 22	 60	 61	  0	
08-May-2013	sub2341	2341	  1	  0	 89	  3	  2	  6	  5	  5	  1	  1	  0	0.48468	  0	0.70000	  0	 26	 85	 86	  1	
08-May-2013	sub2341	2341	  1	  0	 90	  3	  2	  1	  4	  5	  1	  1	  1	0.45741	  1	0.70000	  0	 21	 60	 61	  1	
08-May-2013	sub2341	2341	  1	  0	 91	  3	  2	  4	  3	  3	  1	  1	  0	0.55008	  0	0.70000	  0	 24	 82	 83	  0	
08-May-2013	sub2341	2341	  1	  0	 92	  3	  2	  1	  4	  5	  1	  1	  1	0.66476	  1	0.70000	  0	 21	 60	 61	  0	
08-May-2013	sub2341	2341	  1	  0	 93	  3	  2	  5	  6	  1	  0	  2	  1	0.50628	  0	0.70000	  0	 25	 87	 68	  0	
08-May-2013	sub2341	2341	  1	  0	 94	  3	  2	  3	  2	  1	  1	  1	  1	0.43798	  1	0.70000	  0	 23	 62	 63	  1	
08-May-2013	sub2341	2341	  1	  0	 95	  3	  2	  2	  1	  1	  1	  1	  0	0.52646	  0	0.70000	  0	 22	 80	 81	  0	
08-May-2013	sub2341	2341	  1	  0	 96	  3	  2	  6	  5	  5	  1	  1	  0	0.40461	  0	0.70000	  0	 26	 85	 86	  1	
08-May-2013	sub2341	2341	  1	  0	 97	  3	  2	  6	  5	  5	  1	  1	  0	0.50988	  0	0.70000	  0	 26	 85	 86	  0	
08-May-2013	sub2341	2341	  1	  0	 98	  3	  2	  4	  3	  3	  0	  1	  1	0.46396	  0	0.70000	  0	 24	 84	 69	  1	
08-May-2013	sub2341	2341	  1	  0	 99	  3	  2	  3	  2	  1	  1	  1	  1	0.91652	  1	0.70000	  1	 23	 62	 51	  0	
08-May-2013	sub2341	2341	  1	  0	100	  3	  2	  2	  1	  1	  1	  2	  1	0.46162	  1	0.80000	  0	 22	 60	 61	  1	
08-May-2013	sub2341	2341	  1	  0	101	  3	  2	  5	  6	  1	  0	  2	  1	0.49023	  0	0.70000	  0	 25	 87	 68	  1	
08-May-2013	sub2341	2341	  1	  0	102	  3	  2	  3	  2	  1	  1	  1	  1	0.41043	  1	0.70000	  0	 23	 62	 63	  1	
08-May-2013	sub2341	2341	  1	  0	103	  3	  2	  5	  6	  1	  0	  2	  1	0.52335	  0	0.70000	  0	 25	 87	 68	  0	
08-May-2013	sub2341	2341	  1	  0	104	  3	  2	  4	  3	  3	  0	  2	  0	0.57792	  1	0.70000	  0	 24	 64	 89	  0	
08-May-2013	sub2341	2341	  1	  0	105	  3	  2	  3	  2	  1	  0	  1	  0	0.42919	  1	0.70000	  0	 23	 64	 89	  1	
08-May-2013	sub2341	2341	  1	  0	106	  3	  2	  3	  2	  1	  1	  1	  1	0.39262	  1	0.70000	  0	 23	 62	 63	  1	
08-May-2013	sub2341	2341	  1	  0	107	  3	  2	  6	  5	  5	  0	  2	  0	0.47705	  1	0.70000	  0	 26	 67	 88	  1	
08-May-2013	sub2341	2341	  1	  0	108	  3	  2	  1	  4	  5	  1	  1	  1	0.41531	  1	0.70000	  0	 21	 60	 61	  1	
08-May-2013	sub2341	2341	  1	  0	109	  3	  2	  5	  6	  1	  0	  2	  1	0.50613	  0	0.70000	  0	 25	 87	 68	  0	
08-May-2013	sub2341	2341	  1	  0	110	  3	  2	  4	  3	  3	  1	  2	  1	0.57301	  1	0.70000	  0	 24	 62	 63	  0	
08-May-2013	sub2341	2341	  1	  0	111	  3	  2	  5	  6	  1	  0	  2	  1	0.56274	  0	0.70000	  0	 25	 87	 68	  0	
08-May-2013	sub2341	2341	  1	  0	112	  3	  2	  1	  4	  5	  1	  1	  1	0.49856	  1	0.70000	  0	 21	 60	 61	  1	
08-May-2013	sub2341	2341	  1	  0	113	  3	  2	  2	  1	  1	  1	  2	  1	0.52196	  1	0.70000	  0	 22	 60	 61	  0	
08-May-2013	sub2341	2341	  1	  0	114	  3	  2	  4	  3	  3	  1	  2	  1	0.66237	  1	0.70000	  0	 24	 62	 63	  0	
08-May-2013	sub2341	2341	  1	  0	115	  3	  2	  6	  5	  5	  1	  1	  0	0.57788	  0	0.70000	  0	 26	 85	 86	  0	
08-May-2013	sub2341	2341	  1	  0	116	  3	  2	  4	  3	  3	  1	  2	  1	0.62183	  1	0.70000	  0	 24	 62	 63	  0	
08-May-2013	sub2341	2341	  1	  0	117	  3	  2	  5	  6	  1	  0	  2	  1	0.56704	  0	0.70000	  0	 25	 87	 68	  0	
08-May-2013	sub2341	2341	  1	  0	118	  3	  2	  4	  3	  3	  1	  2	  1	0.62319	  1	0.70000	  0	 24	 62	 63	  0	
08-May-2013	sub2341	2341	  1	  0	119	  3	  2	  2	  1	  1	  1	  2	  1	0.83814	  1	0.70000	  1	 22	 60	 51	  0	
08-May-2013	sub2341	2341	  1	  0	120	  3	  2	  2	  1	  1	  1	  2	  1	0.39467	  1	0.70000	  0	 22	 60	 61	  1	
08-May-2013	sub2341	2341	  1	  0	121	  3	  2	  2	  1	  1	  1	  2	  1	0.48365	  1	0.70000	  0	 22	 60	 61	  1	
08-May-2013	sub2341	2341	  1	  0	122	  3	  2	  5	  6	  1	  0	  2	  1	0.53180	  0	0.70000	  0	 25	 87	 68	  0	
08-May-2013	sub2341	2341	  1	  0	123	  3	  2	  6	  5	  5	  1	  1	  0	0.48396	  0	0.70000	  0	 26	 85	 86	  1	
08-May-2013	sub2341	2341	  1	  0	124	  3	  2	  1	  4	  5	  1	  1	  1	0.46513	  1	0.70000	  0	 21	 60	 61	  1	
08-May-2013	sub2341	2341	  1	  0	125	  3	  2	  4	  3	  3	  1	  1	  0	0.50719	  0	0.70000	  0	 24	 82	 83	  0	
08-May-2013	sub2341	2341	  1	  0	126	  3	  2	  6	  5	  5	  1	  1	  0	0.51532	  0	0.70000	  0	 26	 85	 86	  0	
08-May-2013	sub2341	2341	  1	  0	127	  3	  2	  6	  5	  5	  0	  1	  1	0.60752	  0	0.70000	  0	 26	 87	 68	  0	
08-May-2013	sub2341	2341	  1	  0	128	  3	  2	  2	  1	  1	  1	  2	  1	0.54347	  1	0.70000	  0	 22	 60	 61	  0	
08-May-2013	sub2341	2341	  1	  0	129	  3	  2	  4	  3	  3	  0	  2	  0	0.58358	  1	0.70000	  0	 24	 64	 89	  0	
08-May-2013	sub2341	2341	  1	  0	130	  3	  2	  4	  3	  3	  1	  1	  0	1.22916	  0	0.70000	  1	 24	 82	 51	  0	
08-May-2013	sub2341	2341	  1	  0	131	  3	  2	  5	  6	  1	  0	  2	  1	0.45675	  0	0.80000	  0	 25	 87	 68	  1	
08-May-2013	sub2341	2341	  1	  0	132	  3	  2	  3	  2	  1	  1	  1	  1	0.49813	  1	0.80000	  0	 23	 62	 63	  1	
08-May-2013	sub2341	2341	  1	  0	133	  3	  2	  3	  2	  1	  1	  1	  1	0.43467	  1	0.80000	  0	 23	 62	 63	  1	
08-May-2013	sub2341	2341	  1	  0	134	  3	  2	  3	  2	  1	  0	  1	  0	0.51671	  1	0.80000	  0	 23	 64	 89	  0	
08-May-2013	sub2341	2341	  1	  0	135	  3	  2	  2	  1	  1	  1	  1	  0	0.46755	  0	0.70000	  0	 22	 80	 81	  1	
08-May-2013	sub2341	2341	  1	  0	136	  3	  2	  1	  4	  5	  1	  1	  1	0.62258	  1	0.70000	  0	 21	 60	 61	  0	
08-May-2013	sub2341	2341	  1	  0	137	  3	  2	  6	  5	  5	  0	  1	  1	0.49967	  0	0.70000	  0	 26	 87	 68	  1	
08-May-2013	sub2341	2341	  1	  0	138	  3	  2	  1	  4	  5	  1	  1	  1	0.60517	  1	0.70000	  0	 21	 60	 61	  0	
08-May-2013	sub2341	2341	  1	  0	139	  3	  2	  1	  4	  5	  1	  1	  1	0.49408	  1	0.70000	  0	 21	 60	 61	  1	
08-May-2013	sub2341	2341	  1	  0	140	  3	  2	  5	  6	  1	  0	  2	  1	0.46179	  0	0.70000	  0	 25	 87	 68	  1	
08-May-2013	sub2341	2341	  1	  0	141	  3	  2	  2	  1	  1	  1	  1	  0	0.68196	  0	0.70000	  0	 22	 80	 81	  0	
08-May-2013	sub2341	2341	  1	  0	142	  3	  2	  4	  3	  3	  1	  2	  1	0.53585	  1	0.70000	  0	 24	 62	 63	  0	
08-May-2013	sub2341	2341	  1	  0	143	  3	  2	  1	  4	  5	  1	  1	  1	0.48664	  1	0.70000	  0	 21	 60	 61	  1	
08-May-2013	sub2341	2341	  1	  0	144	  3	  2	  5	  6	  1	  0	  2	  1	0.47923	  0	0.70000	  0	 25	 87	 68	  1	
08-May-2013	sub2341	2341	  1	  0	145	  3	  2	  5	  6	  1	  0	  2	  1	0.48323	  0	0.70000	  0	 25	 87	 68	  1	
08-May-2013	sub2341	2341	  1	  0	146	  3	  2	  3	  2	  1	  1	  1	  1	0.53107	  1	0.70000	  0	 23	 62	 63	  0	
08-May-2013	sub2341	2341	  1	  0	147	  3	  2	  3	  2	  1	  1	  1	  1	0.47134	  1	0.70000	  0	 23	 62	 63	  1	
08-May-2013	sub2341	2341	  1	  0	148	  3	  2	  1	  4	  5	  1	  1	  1	0.45486	  1	0.70000	  0	 21	 60	 61	  1	
08-May-2013	sub2341	2341	  1	  0	149	  3	  2	  4	  3	  3	  1	  2	  1	0.53819	  1	0.70000	  0	 24	 62	 63	  0	
08-May-2013	sub2341	2341	  1	  0	150	  3	  2	  6	  5	  5	  0	  1	  1	0.53636	  0	0.70000	  0	 26	 87	 68	  0	
08-May-2013	sub2341	2341	  1	  0	  1	  4	  1	  3	  5	  6	  1	  1	  1	0.33193	  1	0.60000	  0	 13	 32	 33	  1	
08-May-2013	sub2341	2341	  1	  0	  2	  4	  1	  4	  4	  6	  1	  1	  0	0.57769	  0	0.30000	  1	 14	 42	 51	  0	
08-May-2013	sub2341	2341	  1	  0	  3	  4	  1	  2	  1	  3	  1	  2	  1	0.40583	  1	0.90000	  0	 12	 30	 31	  1	
08-May-2013	sub2341	2341	  1	  0	  4	  4	  1	  3	  5	  6	  1	  1	  1	0.38560	  1	0.90000	  0	 13	 32	 33	  1	
08-May-2013	sub2341	2341	  1	  0	  5	  4	  1	  1	  3	  4	  1	  1	  1	0.44750	  1	0.90000	  0	 11	 30	 31	  1	
08-May-2013	sub2341	2341	  1	  0	  6	  4	  1	  4	  4	  6	  1	  1	  0	0.47156	  0	0.90000	  0	 14	 42	 43	  1	
08-May-2013	sub2341	2341	  1	  0	  7	  4	  1	  6	  6	  6	  1	  2	  1	0.50612	  1	0.90000	  0	 16	 35	 36	  0	
08-May-2013	sub2341	2341	  1	  0	  8	  4	  1	  3	  5	  6	  1	  1	  1	0.37003	  1	0.90000	  0	 13	 32	 33	  1	
08-May-2013	sub2341	2341	  1	  0	  9	  4	  1	  6	  6	  6	  1	  2	  1	0.52235	  1	0.90000	  0	 16	 35	 36	  0	
08-May-2013	sub2341	2341	  1	  0	 10	  4	  1	  2	  1	  3	  1	  2	  1	0.50148	  1	0.90000	  0	 12	 30	 31	  0	
08-May-2013	sub2341	2341	  1	  0	 11	  4	  1	  4	  4	  6	  0	  1	  1	0.83528	  0	0.90000	  0	 14	 44	 39	  0	
08-May-2013	sub2341	2341	  1	  0	 12	  4	  1	  5	  2	  3	  1	  2	  0	0.58221	  0	0.90000	  0	 15	 45	 46	  0	
08-May-2013	sub2341	2341	  1	  0	 13	  4	  1	  1	  3	  4	  1	  1	  1	0.39147	  1	0.90000	  0	 11	 30	 31	  1	
08-May-2013	sub2341	2341	  1	  0	 14	  4	  1	  6	  6	  6	  0	  1	  1	0.46535	  0	0.90000	  0	 16	 47	 38	  1	
08-May-2013	sub2341	2341	  1	  0	 15	  4	  1	  6	  6	  6	  1	  2	  1	0.54959	  1	0.90000	  0	 16	 35	 36	  0	
08-May-2013	sub2341	2341	  1	  0	 16	  4	  1	  6	  6	  6	  0	  2	  0	0.42358	  1	0.80000	  0	 16	 37	 48	  1	
08-May-2013	sub2341	2341	  1	  0	 17	  4	  1	  2	  1	  3	  1	  2	  1	0.70023	  1	0.80000	  0	 12	 30	 31	  0	
08-May-2013	sub2341	2341	  1	  0	 18	  4	  1	  3	  5	  6	  0	  1	  0	0.37280	  1	0.70000	  0	 13	 34	 49	  1	
08-May-2013	sub2341	2341	  1	  0	 19	  4	  1	  4	  4	  6	  1	  1	  0	0.45776	  0	0.70000	  0	 14	 42	 43	  1	
08-May-2013	sub2341	2341	  1	  0	 20	  4	  1	  5	  2	  3	  1	  1	  1	0.54995	  1	0.70000	  0	 15	 35	 36	  0	
08-May-2013	sub2341	2341	  1	  0	 21	  4	  1	  4	  4	  6	  0	  2	  0	0.51462	  1	0.60000	  0	 14	 34	 49	  0	
08-May-2013	sub2341	2341	  1	  0	 22	  4	  1	  5	  2	  3	  0	  1	  0	0.54087	  1	0.60000	  0	 15	 37	 48	  0	
08-May-2013	sub2341	2341	  1	  0	 23	  4	  1	  2	  1	  3	  1	  2	  1	0.41204	  1	0.60000	  0	 12	 30	 31	  1	
08-May-2013	sub2341	2341	  1	  0	 24	  4	  1	  5	  2	  3	  0	  1	  0	0.48407	  1	0.60000	  0	 15	 37	 48	  1	
08-May-2013	sub2341	2341	  1	  0	 25	  4	  1	  4	  4	  6	  1	  1	  0	0.46012	  0	0.60000	  0	 14	 42	 43	  1	
08-May-2013	sub2341	2341	  1	  0	 26	  4	  1	  4	  4	  6	  1	  2	  1	0.52450	  1	0.50000	  1	 14	 32	 51	  0	
08-May-2013	sub2341	2341	  1	  0	 27	  4	  1	  1	  3	  4	  1	  1	  1	0.42488	  1	0.90000	  0	 11	 30	 31	  1	
08-May-2013	sub2341	2341	  1	  0	 28	  4	  1	  6	  6	  6	  0	  1	  1	0.50557	  0	0.90000	  0	 16	 47	 38	  0	
08-May-2013	sub2341	2341	  1	  0	 29	  4	  1	  3	  5	  6	  1	  2	  0	0.49351	  0	0.90000	  0	 13	 42	 43	  1	
08-May-2013	sub2341	2341	  1	  0	 30	  4	  1	  1	  3	  4	  1	  1	  1	0.33577	  1	0.80000	  0	 11	 30	 31	  1	
08-May-2013	sub2341	2341	  1	  0	 31	  4	  1	  2	  1	  3	  1	  2	  1	0.53576	  1	0.80000	  0	 12	 30	 31	  0	
08-May-2013	sub2341	2341	  1	  0	 32	  4	  1	  3	  5	  6	  1	  1	  1	0.47255	  1	0.80000	  0	 13	 32	 33	  1	
08-May-2013	sub2341	2341	  1	  0	 33	  4	  1	  3	  5	  6	  1	  1	  1	0.44972	  1	0.80000	  0	 13	 32	 33	  1	
08-May-2013	sub2341	2341	  1	  0	 34	  4	  1	  2	  1	  3	  1	  2	  1	0.55293	  1	0.80000	  0	 12	 30	 31	  0	
08-May-2013	sub2341	2341	  1	  0	 35	  4	  1	  1	  3	  4	  1	  1	  1	0.42226	  1	0.70000	  0	 11	 30	 31	  1	
08-May-2013	sub2341	2341	  1	  0	 36	  4	  1	  4	  4	  6	  1	  1	  0	0.53891	  0	0.70000	  0	 14	 42	 43	  0	
08-May-2013	sub2341	2341	  1	  0	 37	  4	  1	  2	  1	  3	  1	  2	  1	0.53072	  1	0.70000	  0	 12	 30	 31	  0	
08-May-2013	sub2341	2341	  1	  0	 38	  4	  1	  2	  1	  3	  1	  2	  1	0.49731	  1	0.70000	  0	 12	 30	 31	  1	
08-May-2013	sub2341	2341	  1	  0	 39	  4	  1	  5	  2	  3	  1	  1	  1	0.61702	  1	0.70000	  0	 15	 35	 36	  0	
08-May-2013	sub2341	2341	  1	  0	 40	  4	  1	  1	  3	  4	  1	  1	  1	0.37276	  1	0.70000	  0	 11	 30	 31	  1	
08-May-2013	sub2341	2341	  1	  0	 41	  4	  1	  3	  5	  6	  1	  1	  1	0.35312	  1	0.60000	  0	 13	 32	 33	  1	
08-May-2013	sub2341	2341	  1	  0	 42	  4	  1	  6	  6	  6	  1	  2	  1	0.51717	  1	0.60000	  0	 16	 35	 36	  0	
08-May-2013	sub2341	2341	  1	  0	 43	  4	  1	  3	  5	  6	  1	  1	  1	0.38227	  1	0.60000	  0	 13	 32	 33	  1	
08-May-2013	sub2341	2341	  1	  0	 44	  4	  1	  4	  4	  6	  1	  2	  1	0.47464	  1	0.60000	  0	 14	 32	 33	  1	
08-May-2013	sub2341	2341	  1	  0	 45	  4	  1	  6	  6	  6	  0	  2	  0	0.53371	  1	0.60000	  0	 16	 37	 48	  0	
08-May-2013	sub2341	2341	  1	  0	 46	  4	  1	  1	  3	  4	  1	  1	  1	0.38256	  1	0.60000	  0	 11	 30	 31	  1	
08-May-2013	sub2341	2341	  1	  0	 47	  4	  1	  5	  2	  3	  1	  1	  1	0.58647	  1	0.60000	  0	 15	 35	 36	  0	
08-May-2013	sub2341	2341	  1	  0	 48	  4	  1	  2	  1	  3	  1	  1	  0	0.47373	  0	0.60000	  0	 12	 40	 41	  1	
08-May-2013	sub2341	2341	  1	  0	 49	  4	  1	  6	  6	  6	  1	  2	  1	0.42764	  1	0.60000	  0	 16	 35	 36	  1	
08-May-2013	sub2341	2341	  1	  0	 50	  4	  1	  1	  3	  4	  1	  1	  1	0.36770	  1	0.60000	  0	 11	 30	 31	  1	
08-May-2013	sub2341	2341	  1	  0	 51	  4	  1	  5	  2	  3	  1	  1	  1	0.39886	  1	0.50000	  0	 15	 35	 36	  1	
08-May-2013	sub2341	2341	  1	  0	 52	  4	  1	  3	  5	  6	  1	  1	  1	0.57627	  1	0.50000	  1	 13	 32	 51	  0	
08-May-2013	sub2341	2341	  1	  0	 53	  4	  1	  2	  1	  3	  1	  2	  1	0.42067	  1	0.70000	  0	 12	 30	 31	  1	
08-May-2013	sub2341	2341	  1	  0	 54	  4	  1	  5	  2	  3	  1	  1	  1	0.34556	  1	0.70000	  0	 15	 35	 36	  1	
08-May-2013	sub2341	2341	  1	  0	 55	  4	  1	  6	  6	  6	  0	  2	  0	0.48238	  1	0.70000	  0	 16	 37	 48	  1	
08-May-2013	sub2341	2341	  1	  0	 56	  4	  1	  1	  3	  4	  1	  1	  1	0.33373	  1	0.70000	  0	 11	 30	 31	  1	
08-May-2013	sub2341	2341	  1	  0	 57	  4	  1	  4	  4	  6	  1	  2	  1	0.65154	  1	0.70000	  0	 14	 32	 33	  0	
08-May-2013	sub2341	2341	  1	  0	 58	  4	  1	  6	  6	  6	  0	  2	  0	0.50333	  1	0.70000	  0	 16	 37	 48	  0	
08-May-2013	sub2341	2341	  1	  0	 59	  4	  1	  5	  2	  3	  0	  1	  0	0.53332	  1	0.70000	  0	 15	 37	 48	  0	
08-May-2013	sub2341	2341	  1	  0	 60	  4	  1	  5	  2	  3	  0	  1	  0	0.39788	  1	0.70000	  0	 15	 37	 48	  1	
08-May-2013	sub2341	2341	  1	  0	 61	  4	  1	  2	  1	  3	  1	  2	  1	0.55666	  1	0.60000	  0	 12	 30	 31	  0	
08-May-2013	sub2341	2341	  1	  0	 62	  4	  1	  2	  1	  3	  1	  2	  1	0.47615	  1	0.60000	  0	 12	 30	 31	  1	
08-May-2013	sub2341	2341	  1	  0	 63	  4	  1	  4	  4	  6	  1	  2	  1	0.52797	  1	0.60000	  0	 14	 32	 33	  0	
08-May-2013	sub2341	2341	  1	  0	 64	  4	  1	  6	  6	  6	  0	  1	  1	0.38652	  0	0.60000	  0	 16	 47	 38	  1	
08-May-2013	sub2341	2341	  1	  0	 65	  4	  1	  5	  2	  3	  1	  1	  1	0.45375	  1	0.60000	  0	 15	 35	 36	  1	
08-May-2013	sub2341	2341	  1	  0	 66	  4	  1	  2	  1	  3	  1	  2	  1	0.53251	  1	0.60000	  0	 12	 30	 31	  0	
08-May-2013	sub2341	2341	  1	  0	 67	  4	  1	  6	  6	  6	  0	  2	  0	0.47696	  1	0.60000	  0	 16	 37	 48	  1	
08-May-2013	sub2341	2341	  1	  0	 68	  4	  1	  1	  3	  4	  1	  1	  1	0.65128	  1	0.60000	  1	 11	 30	 51	  0	
08-May-2013	sub2341	2341	  1	  0	 69	  4	  1	  4	  4	  6	  1	  2	  1	0.67997	  1	0.70000	  0	 14	 32	 33	  0	
08-May-2013	sub2341	2341	  1	  0	 70	  4	  1	  3	  5	  6	  1	  1	  1	0.44105	  1	0.70000	  0	 13	 32	 33	  1	
08-May-2013	sub2341	2341	  1	  0	 71	  4	  1	  3	  5	  6	  0	  1	  0	0.50225	  1	0.70000	  0	 13	 34	 49	  0	
08-May-2013	sub2341	2341	  1	  0	 72	  4	  1	  3	  5	  6	  0	  1	  0	0.42061	  1	0.70000	  0	 13	 34	 49	  1	
08-May-2013	sub2341	2341	  1	  0	 73	  4	  1	  1	  3	  4	  1	  1	  1	0.39214	  1	0.70000	  0	 11	 30	 31	  1	
08-May-2013	sub2341	2341	  1	  0	 74	  4	  1	  1	  3	  4	  1	  1	  1	0.49936	  1	0.70000	  0	 11	 30	 31	  1	
08-May-2013	sub2341	2341	  1	  0	 75	  4	  1	  5	  2	  3	  0	  1	  0	0.45487	  1	0.70000	  0	 15	 37	 48	  1	
08-May-2013	sub2341	2341	  1	  0	 76	  4	  2	  3	  5	  6	  1	  1	  1	0.36186	  1	0.70000	  0	 23	 62	 63	  1	
08-May-2013	sub2341	2341	  1	  0	 77	  4	  2	  1	  3	  4	  1	  1	  1	0.33280	  1	0.70000	  0	 21	 60	 61	  1	
08-May-2013	sub2341	2341	  1	  0	 78	  4	  2	  6	  6	  6	  1	  2	  1	0.59000	  1	0.70000	  0	 26	 65	 66	  0	
08-May-2013	sub2341	2341	  1	  0	 79	  4	  2	  3	  5	  6	  1	  1	  1	0.39673	  1	0.70000	  0	 23	 62	 63	  1	
08-May-2013	sub2341	2341	  1	  0	 80	  4	  2	  1	  3	  4	  1	  1	  1	0.44226	  1	0.70000	  0	 21	 60	 61	  1	
08-May-2013	sub2341	2341	  1	  0	 81	  4	  2	  6	  6	  6	  1	  1	  0	0.57497	  0	0.60000	  0	 26	 85	 86	  0	
08-May-2013	sub2341	2341	  1	  0	 82	  4	  2	  6	  6	  6	  0	  2	  0	0.46719	  1	0.60000	  0	 26	 67	 88	  1	
08-May-2013	sub2341	2341	  1	  0	 83	  4	  2	  4	  4	  6	  1	  1	  0	0.57501	  0	0.60000	  0	 24	 82	 83	  0	
08-May-2013	sub2341	2341	  1	  0	 84	  4	  2	  4	  4	  6	  1	  2	  1	0.51295	  1	0.60000	  0	 24	 62	 63	  0	
08-May-2013	sub2341	2341	  1	  0	 85	  4	  2	  6	  6	  6	  1	  1	  0	0.45618	  0	0.60000	  0	 26	 85	 86	  1	
08-May-2013	sub2341	2341	  1	  0	 86	  4	  2	  4	  4	  6	  1	  1	  0	0.49260	  0	0.60000	  0	 24	 82	 83	  1	
08-May-2013	sub2341	2341	  1	  0	 87	  4	  2	  3	  5	  6	  1	  1	  1	0.55846	  1	0.60000	  0	 23	 62	 63	  0	
08-May-2013	sub2341	2341	  1	  0	 88	  4	  2	  3	  5	  6	  1	  1	  1	0.53667	  1	0.60000	  0	 23	 62	 63	  0	
08-May-2013	sub2341	2341	  1	  0	 89	  4	  2	  4	  4	  6	  1	  1	  0	0.52291	  0	0.60000	  0	 24	 82	 83	  0	
08-May-2013	sub2341	2341	  1	  0	 90	  4	  2	  2	  1	  3	  1	  2	  1	0.15148	  1	0.60000	  0	 22	 60	 61	  1	
08-May-2013	sub2341	2341	  1	  0	 91	  4	  2	  5	  2	  3	  0	  1	  0	0.43021	  1	0.60000	  0	 25	 67	 88	  1	
08-May-2013	sub2341	2341	  1	  0	 92	  4	  2	  2	  1	  3	  1	  1	  0	0.46072	  0	0.60000	  0	 22	 80	 81	  1	
08-May-2013	sub2341	2341	  1	  0	 93	  4	  2	  1	  3	  4	  1	  1	  1	0.44916	  1	0.60000	  0	 21	 60	 61	  1	
08-May-2013	sub2341	2341	  1	  0	 94	  4	  2	  2	  1	  3	  1	  2	  1	0.60925	  1	0.60000	  1	 22	 60	 51	  0	
08-May-2013	sub2341	2341	  1	  0	 95	  4	  2	  6	  6	  6	  0	  1	  1	0.66598	  0	0.70000	  0	 26	 87	 68	  0	
08-May-2013	sub2341	2341	  1	  0	 96	  4	  2	  3	  5	  6	  0	  1	  0	0.47267	  1	0.70000	  0	 23	 64	 89	  1	
08-May-2013	sub2341	2341	  1	  0	 97	  4	  2	  2	  1	  3	  1	  2	  1	0.58129	  1	0.70000	  0	 22	 60	 61	  0	
08-May-2013	sub2341	2341	  1	  0	 98	  4	  2	  2	  1	  3	  1	  1	  0	0.38995	  0	0.70000	  0	 22	 80	 81	  1	
08-May-2013	sub2341	2341	  1	  0	 99	  4	  2	  6	  6	  6	  0	  1	  1	0.52934	  0	0.70000	  0	 26	 87	 68	  0	
08-May-2013	sub2341	2341	  1	  0	100	  4	  2	  4	  4	  6	  0	  2	  0	0.43000	  1	0.70000	  0	 24	 64	 89	  1	
08-May-2013	sub2341	2341	  1	  0	101	  4	  2	  5	  2	  3	  0	  1	  0	0.47299	  1	0.60000	  0	 25	 67	 88	  1	
08-May-2013	sub2341	2341	  1	  0	102	  4	  2	  5	  2	  3	  0	  1	  0	0.41063	  1	0.60000	  0	 25	 67	 88	  1	
08-May-2013	sub2341	2341	  1	  0	103	  4	  2	  4	  4	  6	  1	  2	  1	0.74220	  1	0.60000	  1	 24	 62	 51	  0	
08-May-2013	sub2341	2341	  1	  0	104	  4	  2	  5	  2	  3	  0	  1	  0	0.50618	  1	0.70000	  0	 25	 67	 88	  0	
08-May-2013	sub2341	2341	  1	  0	105	  4	  2	  1	  3	  4	  1	  1	  1	0.43539	  1	0.70000	  0	 21	 60	 61	  1	
08-May-2013	sub2341	2341	  1	  0	106	  4	  2	  2	  1	  3	  1	  1	  0	0.40364	  0	0.70000	  0	 22	 80	 81	  1	
08-May-2013	sub2341	2341	  1	  0	107	  4	  2	  2	  1	  3	  1	  1	  0	0.38813	  0	0.70000	  0	 22	 80	 81	  1	
08-May-2013	sub2341	2341	  1	  0	108	  4	  2	  3	  5	  6	  0	  2	  1	0.35304	  0	0.70000	  0	 23	 84	 69	  1	
08-May-2013	sub2341	2341	  1	  0	109	  4	  2	  5	  2	  3	  0	  1	  0	0.41766	  1	0.70000	  0	 25	 67	 88	  1	
08-May-2013	sub2341	2341	  1	  0	110	  4	  2	  5	  2	  3	  0	  2	  1	1.16958	  0	0.70000	  1	 25	 87	 51	  0	
08-May-2013	sub2341	2341	  1	  0	111	  4	  2	  5	  2	  3	  0	  2	  1	0.29141	  0	0.80000	  0	 25	 87	 68	  1	
08-May-2013	sub2341	2341	  1	  0	112	  4	  2	  5	  2	  3	  0	  2	  1	0.17275	  0	0.80000	  0	 25	 87	 68	  1	
08-May-2013	sub2341	2341	  1	  0	113	  4	  2	  1	  3	  4	  1	  2	  0	0.49110	  0	0.80000	  0	 21	 80	 81	  1	
08-May-2013	sub2341	2341	  1	  0	114	  4	  2	  5	  2	  3	  0	  1	  0	0.32947	  1	0.80000	  0	 25	 67	 88	  1	
08-May-2013	sub2341	2341	  1	  0	115	  4	  2	  1	  3	  4	  1	  2	  0	0.00096	  0	0.80000	  0	 21	 80	 81	  1	
08-May-2013	sub2341	2341	  1	  0	116	  4	  2	  6	  6	  6	  1	  1	  0	0.13077	  0	0.80000	  0	 26	 85	 86	  1	
08-May-2013	sub2341	2341	  1	  0	117	  4	  2	  4	  4	  6	  1	  2	  1	0.00009	  1	0.80000	  0	 24	 62	 63	  1	
08-May-2013	sub2341	2341	  1	  0	118	  4	  2	  1	  3	  4	  1	  1	  1	0.55835	  1	0.70000	  0	 21	 60	 61	  0	
08-May-2013	sub2341	2341	  1	  0	119	  4	  2	  4	  4	  6	  0	  1	  1	0.37037	  0	0.70000	  0	 24	 84	 69	  1	
08-May-2013	sub2341	2341	  1	  0	120	  4	  2	  6	  6	  6	  1	  2	  1	0.44668	  1	0.70000	  0	 26	 65	 66	  1	
08-May-2013	sub2341	2341	  1	  0	121	  4	  2	  5	  2	  3	  0	  1	  0	0.36605	  1	0.70000	  0	 25	 67	 88	  1	
08-May-2013	sub2341	2341	  1	  0	122	  4	  2	  2	  1	  3	  1	  2	  1	0.46367	  1	0.70000	  0	 22	 60	 61	  1	
08-May-2013	sub2341	2341	  1	  0	123	  4	  2	  2	  1	  3	  1	  1	  0	0.36008	  0	0.70000	  0	 22	 80	 81	  1	
08-May-2013	sub2341	2341	  1	  0	124	  4	  2	  4	  4	  6	  1	  2	  1	0.46161	  1	0.70000	  0	 24	 62	 63	  1	
08-May-2013	sub2341	2341	  1	  0	125	  4	  2	  5	  2	  3	  0	  1	  0	0.43749	  1	0.70000	  0	 25	 67	 88	  1	
08-May-2013	sub2341	2341	  1	  0	126	  4	  2	  4	  4	  6	  1	  2	  1	0.34349	  1	0.70000	  0	 24	 62	 63	  1	
08-May-2013	sub2341	2341	  1	  0	127	  4	  2	  3	  5	  6	  1	  1	  1	0.41041	  1	0.70000	  0	 23	 62	 63	  1	
08-May-2013	sub2341	2341	  1	  0	128	  4	  2	  3	  5	  6	  1	  2	  0	0.31490	  0	0.70000	  0	 23	 82	 83	  1	
08-May-2013	sub2341	2341	  1	  0	129	  4	  2	  4	  4	  6	  0	  1	  1	0.56024	  0	0.70000	  0	 24	 84	 69	  0	
08-May-2013	sub2341	2341	  1	  0	130	  4	  2	  6	  6	  6	  0	  1	  1	0.43026	  0	0.70000	  0	 26	 87	 68	  1	
08-May-2013	sub2341	2341	  1	  0	131	  4	  2	  5	  2	  3	  0	  1	  0	0.43732	  1	0.70000	  0	 25	 67	 88	  1	
08-May-2013	sub2341	2341	  1	  0	132	  4	  2	  2	  1	  3	  1	  2	  1	0.53758	  1	0.70000	  0	 22	 60	 61	  0	
08-May-2013	sub2341	2341	  1	  0	133	  4	  2	  3	  5	  6	  1	  1	  1	0.43242	  1	0.70000	  0	 23	 62	 63	  1	
08-May-2013	sub2341	2341	  1	  0	134	  4	  2	  6	  6	  6	  0	  1	  1	0.45713	  0	0.70000	  0	 26	 87	 68	  1	
08-May-2013	sub2341	2341	  1	  0	135	  4	  2	  6	  6	  6	  0	  2	  0	0.43123	  1	0.70000	  0	 26	 67	 88	  1	
08-May-2013	sub2341	2341	  1	  0	136	  4	  2	  4	  4	  6	  1	  2	  1	0.80364	  1	0.70000	  1	 24	 62	 51	  0	
08-May-2013	sub2341	2341	  1	  0	137	  4	  2	  4	  4	  6	  1	  2	  1	0.56021	  1	0.70000	  0	 24	 62	 63	  0	
08-May-2013	sub2341	2341	  1	  0	138	  4	  2	  2	  1	  3	  1	  2	  1	0.65307	  1	0.70000	  0	 22	 60	 61	  0	
08-May-2013	sub2341	2341	  1	  0	139	  4	  2	  1	  3	  4	  1	  1	  1	0.53028	  1	0.70000	  0	 21	 60	 61	  0	
08-May-2013	sub2341	2341	  1	  0	140	  4	  2	  1	  3	  4	  1	  1	  1	0.49924	  1	0.70000	  0	 21	 60	 61	  1	
08-May-2013	sub2341	2341	  1	  0	141	  4	  2	  3	  5	  6	  1	  1	  1	0.56902	  1	0.70000	  0	 23	 62	 63	  0	
08-May-2013	sub2341	2341	  1	  0	142	  4	  2	  6	  6	  6	  1	  1	  0	0.57723	  0	0.70000	  0	 26	 85	 86	  0	
08-May-2013	sub2341	2341	  1	  0	143	  4	  2	  1	  3	  4	  1	  1	  1	0.46482	  1	0.70000	  0	 21	 60	 61	  1	
08-May-2013	sub2341	2341	  1	  0	144	  4	  2	  5	  2	  3	  0	  1	  0	0.40807	  1	0.70000	  0	 25	 67	 88	  1	
08-May-2013	sub2341	2341	  1	  0	145	  4	  2	  2	  1	  3	  1	  1	  0	0.40215	  0	0.70000	  0	 22	 80	 81	  1	
08-May-2013	sub2341	2341	  1	  0	146	  4	  2	  1	  3	  4	  1	  1	  1	0.47475	  1	0.70000	  0	 21	 60	 61	  1	
08-May-2013	sub2341	2341	  1	  0	147	  4	  2	  3	  5	  6	  1	  2	  0	0.39013	  0	0.70000	  0	 23	 82	 83	  1	
08-May-2013	sub2341	2341	  1	  0	148	  4	  2	  1	  3	  4	  1	  1	  1	0.39131	  1	0.70000	  0	 21	 60	 61	  1	
08-May-2013	sub2341	2341	  1	  0	149	  4	  2	  3	  5	  6	  1	  1	  1	0.49092	  1	0.70000	  0	 23	 62	 63	  1	
08-May-2013	sub2341	2341	  1	  0	150	  4	  2	  1	  3	  4	  1	  1	  1	0.43561	  1	0.70000	  0	 21	 60	 61	  1	
08-May-2013	sub2341	2341	  1	  0	  1	  5	  1	  5	  4	  1	  1	  1	  1	0.52625	  1	0.60000	  0	 15	 35	 36	  0	
08-May-2013	sub2341	2341	  1	  0	  2	  5	  1	  2	  5	  1	  1	  1	  0	0.52716	  0	0.30000	  1	 12	 40	 51	  0	
08-May-2013	sub2341	2341	  1	  0	  3	  5	  1	  2	  5	  1	  1	  1	  0	0.36780	  0	0.90000	  0	 12	 40	 41	  1	
08-May-2013	sub2341	2341	  1	  0	  4	  5	  1	  5	  4	  1	  1	  1	  1	0.46500	  1	0.90000	  0	 15	 35	 36	  1	
08-May-2013	sub2341	2341	  1	  0	  5	  5	  1	  6	  1	  6	  1	  2	  1	0.42094	  1	0.90000	  0	 16	 35	 36	  1	
08-May-2013	sub2341	2341	  1	  0	  6	  5	  1	  1	  3	  2	  1	  1	  1	0.37353	  1	0.90000	  0	 11	 30	 31	  1	
08-May-2013	sub2341	2341	  1	  0	  7	  5	  1	  6	  1	  6	  1	  1	  0	0.40976	  0	0.90000	  0	 16	 45	 46	  1	
08-May-2013	sub2341	2341	  1	  0	  8	  5	  1	  1	  3	  2	  1	  1	  1	0.42459	  1	0.90000	  0	 11	 30	 31	  1	
08-May-2013	sub2341	2341	  1	  0	  9	  5	  1	  4	  2	  6	  1	  1	  0	0.35905	  0	0.90000	  0	 14	 42	 43	  1	
08-May-2013	sub2341	2341	  1	  0	 10	  5	  1	  2	  5	  1	  1	  2	  1	0.55016	  1	0.90000	  0	 12	 30	 31	  0	
08-May-2013	sub2341	2341	  1	  0	 11	  5	  1	  2	  5	  1	  1	  2	  1	0.58273	  1	0.90000	  0	 12	 30	 31	  0	
08-May-2013	sub2341	2341	  1	  0	 12	  5	  1	  3	  6	  3	  1	  2	  0	0.53941	  0	0.90000	  0	 13	 42	 43	  0	
08-May-2013	sub2341	2341	  1	  0	 13	  5	  1	  5	  4	  1	  0	  2	  1	0.47027	  0	0.90000	  0	 15	 47	 38	  1	
08-May-2013	sub2341	2341	  1	  0	 14	  5	  1	  6	  1	  6	  1	  1	  0	0.46627	  0	0.90000	  0	 16	 45	 46	  1	
08-May-2013	sub2341	2341	  1	  0	 15	  5	  1	  4	  2	  6	  1	  2	  1	0.51254	  1	0.90000	  0	 14	 32	 33	  0	
08-May-2013	sub2341	2341	  1	  0	 16	  5	  1	  6	  1	  6	  1	  2	  1	0.50625	  1	0.80000	  0	 16	 35	 36	  0	
08-May-2013	sub2341	2341	  1	  0	 17	  5	  1	  4	  2	  6	  1	  2	  1	0.37421	  1	0.80000	  0	 14	 32	 33	  1	
08-May-2013	sub2341	2341	  1	  0	 18	  5	  1	  4	  2	  6	  0	  2	  0	0.42193	  1	0.70000	  0	 14	 34	 49	  1	
08-May-2013	sub2341	2341	  1	  0	 19	  5	  1	  1	  3	  2	  1	  1	  1	0.36952	  1	0.70000	  0	 11	 30	 31	  1	
08-May-2013	sub2341	2341	  1	  0	 20	  5	  1	  4	  2	  6	  1	  2	  1	0.47320	  1	0.70000	  0	 14	 32	 33	  1	
08-May-2013	sub2341	2341	  1	  0	 21	  5	  1	  3	  6	  3	  0	  1	  0	0.54844	  1	0.60000	  0	 13	 34	 49	  0	
08-May-2013	sub2341	2341	  1	  0	 22	  5	  1	  2	  5	  1	  1	  2	  1	0.51756	  1	0.60000	  0	 12	 30	 31	  0	
08-May-2013	sub2341	2341	  1	  0	 23	  5	  1	  3	  6	  3	  1	  1	  1	0.46736	  1	0.60000	  0	 13	 32	 33	  1	
08-May-2013	sub2341	2341	  1	  0	 24	  5	  1	  3	  6	  3	  1	  1	  1	0.43648	  1	0.60000	  0	 13	 32	 33	  1	
08-May-2013	sub2341	2341	  1	  0	 25	  5	  1	  5	  4	  1	  1	  1	  1	0.44773	  1	0.60000	  0	 15	 35	 36	  1	
08-May-2013	sub2341	2341	  1	  0	 26	  5	  1	  6	  1	  6	  1	  2	  1	0.42154	  1	0.50000	  0	 16	 35	 36	  1	
08-May-2013	sub2341	2341	  1	  0	 27	  5	  1	  2	  5	  1	  1	  2	  1	0.46666	  1	0.50000	  0	 12	 30	 31	  1	
08-May-2013	sub2341	2341	  1	  0	 28	  5	  1	  2	  5	  1	  1	  2	  1	0.50126	  1	0.50000	  1	 12	 30	 51	  0	
08-May-2013	sub2341	2341	  1	  0	 29	  5	  1	  6	  1	  6	  0	  2	  0	0.53438	  1	0.90000	  0	 16	 37	 48	  0	
08-May-2013	sub2341	2341	  1	  0	 30	  5	  1	  1	  3	  2	  1	  1	  1	0.39255	  1	0.80000	  0	 11	 30	 31	  1	
08-May-2013	sub2341	2341	  1	  0	 31	  5	  1	  2	  5	  1	  1	  2	  1	0.50123	  1	0.80000	  0	 12	 30	 31	  0	
08-May-2013	sub2341	2341	  1	  0	 32	  5	  1	  6	  1	  6	  1	  2	  1	0.45488	  1	0.80000	  0	 16	 35	 36	  1	
08-May-2013	sub2341	2341	  1	  0	 33	  5	  1	  5	  4	  1	  1	  1	  1	0.55119	  1	0.80000	  0	 15	 35	 36	  0	
08-May-2013	sub2341	2341	  1	  0	 34	  5	  1	  5	  4	  1	  1	  1	  1	0.61963	  1	0.80000	  0	 15	 35	 36	  0	
08-May-2013	sub2341	2341	  1	  0	 35	  5	  1	  4	  2	  6	  1	  2	  1	0.47663	  1	0.70000	  0	 14	 32	 33	  1	
08-May-2013	sub2341	2341	  1	  0	 36	  5	  1	  3	  6	  3	  0	  1	  0	0.44444	  1	0.70000	  0	 13	 34	 49	  1	
08-May-2013	sub2341	2341	  1	  0	 37	  5	  1	  3	  6	  3	  1	  1	  1	0.46780	  1	0.70000	  0	 13	 32	 33	  1	
08-May-2013	sub2341	2341	  1	  0	 38	  5	  1	  3	  6	  3	  1	  1	  1	0.45335	  1	0.70000	  0	 13	 32	 33	  1	
08-May-2013	sub2341	2341	  1	  0	 39	  5	  1	  3	  6	  3	  1	  1	  1	0.40718	  1	0.70000	  0	 13	 32	 33	  1	
08-May-2013	sub2341	2341	  1	  0	 40	  5	  1	  1	  3	  2	  1	  1	  1	0.48850	  1	0.70000	  0	 11	 30	 31	  1	
08-May-2013	sub2341	2341	  1	  0	 41	  5	  1	  1	  3	  2	  1	  1	  1	0.43356	  1	0.60000	  0	 11	 30	 31	  1	
08-May-2013	sub2341	2341	  1	  0	 42	  5	  1	  5	  4	  1	  0	  1	  0	0.46778	  1	0.60000	  0	 15	 37	 48	  1	
08-May-2013	sub2341	2341	  1	  0	 43	  5	  1	  4	  2	  6	  1	  2	  1	0.55296	  1	0.60000	  0	 14	 32	 33	  0	
08-May-2013	sub2341	2341	  1	  0	 44	  5	  1	  4	  2	  6	  0	  2	  0	0.67316	  1	0.60000	  1	 14	 34	 51	  0	
08-May-2013	sub2341	2341	  1	  0	 45	  5	  1	  6	  1	  6	  0	  1	  1	0.42718	  0	0.80000	  0	 16	 47	 38	  1	
08-May-2013	sub2341	2341	  1	  0	 46	  5	  1	  2	  5	  1	  1	  2	  1	0.47451	  1	0.80000	  0	 12	 30	 31	  1	
08-May-2013	sub2341	2341	  1	  0	 47	  5	  1	  3	  6	  3	  0	  1	  0	0.40338	  1	0.80000	  0	 13	 34	 49	  1	
08-May-2013	sub2341	2341	  1	  0	 48	  5	  1	  1	  3	  2	  1	  1	  1	0.37774	  1	0.80000	  0	 11	 30	 31	  1	
08-May-2013	sub2341	2341	  1	  0	 49	  5	  1	  5	  4	  1	  1	  1	  1	0.38549	  1	0.80000	  0	 15	 35	 36	  1	
08-May-2013	sub2341	2341	  1	  0	 50	  5	  1	  5	  4	  1	  0	  2	  1	0.39118	  0	0.80000	  0	 15	 47	 38	  1	
08-May-2013	sub2341	2341	  1	  0	 51	  5	  1	  6	  1	  6	  1	  2	  1	0.53192	  1	0.70000	  0	 16	 35	 36	  0	
08-May-2013	sub2341	2341	  1	  0	 52	  5	  1	  4	  2	  6	  1	  2	  1	0.51536	  1	0.70000	  0	 14	 32	 33	  0	
08-May-2013	sub2341	2341	  1	  0	 53	  5	  1	  1	  3	  2	  1	  1	  1	0.39746	  1	0.70000	  0	 11	 30	 31	  1	
08-May-2013	sub2341	2341	  1	  0	 54	  5	  1	  6	  1	  6	  0	  2	  0	0.52399	  1	0.70000	  0	 16	 37	 48	  0	
08-May-2013	sub2341	2341	  1	  0	 55	  5	  1	  6	  1	  6	  0	  2	  0	0.36983	  1	0.70000	  0	 16	 37	 48	  1	
08-May-2013	sub2341	2341	  1	  0	 56	  5	  1	  5	  4	  1	  0	  2	  1	0.50682	  0	0.70000	  0	 15	 47	 38	  0	
08-May-2013	sub2341	2341	  1	  0	 57	  5	  1	  2	  5	  1	  1	  2	  1	0.51283	  1	0.70000	  0	 12	 30	 31	  0	
08-May-2013	sub2341	2341	  1	  0	 58	  5	  1	  1	  3	  2	  1	  1	  1	0.43572	  1	0.70000	  0	 11	 30	 31	  1	
08-May-2013	sub2341	2341	  1	  0	 59	  5	  1	  3	  6	  3	  1	  1	  1	0.43036	  1	0.70000	  0	 13	 32	 33	  1	
08-May-2013	sub2341	2341	  1	  0	 60	  5	  1	  6	  1	  6	  0	  2	  0	0.51419	  1	0.70000	  0	 16	 37	 48	  0	
08-May-2013	sub2341	2341	  1	  0	 61	  5	  1	  4	  2	  6	  1	  1	  0	0.42891	  0	0.60000	  0	 14	 42	 43	  1	
08-May-2013	sub2341	2341	  1	  0	 62	  5	  1	  3	  6	  3	  1	  1	  1	0.46112	  1	0.60000	  0	 13	 32	 33	  1	
08-May-2013	sub2341	2341	  1	  0	 63	  5	  1	  2	  5	  1	  1	  2	  1	0.50605	  1	0.60000	  0	 12	 30	 31	  0	
08-May-2013	sub2341	2341	  1	  0	 64	  5	  1	  4	  2	  6	  1	  2	  1	0.53409	  1	0.60000	  0	 14	 32	 33	  0	
08-May-2013	sub2341	2341	  1	  0	 65	  5	  1	  5	  4	  1	  0	  1	  0	0.53084	  1	0.60000	  0	 15	 37	 48	  0	
08-May-2013	sub2341	2341	  1	  0	 66	  5	  1	  1	  3	  2	  1	  1	  1	0.57586	  1	0.60000	  0	 11	 30	 31	  0	
08-May-2013	sub2341	2341	  1	  0	 67	  5	  1	  3	  6	  3	  1	  1	  1	0.50449	  1	0.60000	  0	 13	 32	 33	  0	
08-May-2013	sub2341	2341	  1	  0	 68	  5	  1	  6	  1	  6	  0	  2	  0	0.48112	  1	0.60000	  0	 16	 37	 48	  1	
08-May-2013	sub2341	2341	  1	  0	 69	  5	  1	  1	  3	  2	  1	  1	  1	0.50536	  1	0.60000	  0	 11	 30	 31	  0	
08-May-2013	sub2341	2341	  1	  0	 70	  5	  1	  3	  6	  3	  1	  1	  1	0.48743	  1	0.60000	  0	 13	 32	 33	  1	
08-May-2013	sub2341	2341	  1	  0	 71	  5	  1	  4	  2	  6	  1	  1	  0	0.42396	  0	0.60000	  0	 14	 42	 43	  1	
08-May-2013	sub2341	2341	  1	  0	 72	  5	  1	  2	  5	  1	  1	  2	  1	0.38204	  1	0.60000	  0	 12	 30	 31	  1	
08-May-2013	sub2341	2341	  1	  0	 73	  5	  1	  1	  3	  2	  1	  1	  1	0.54283	  1	0.60000	  0	 11	 30	 31	  0	
08-May-2013	sub2341	2341	  1	  0	 74	  5	  1	  5	  4	  1	  0	  1	  0	0.51132	  1	0.60000	  0	 15	 37	 48	  0	
08-May-2013	sub2341	2341	  1	  0	 75	  5	  1	  2	  5	  1	  1	  1	  0	0.46342	  0	0.60000	  0	 12	 40	 41	  1	
08-May-2013	sub2341	2341	  1	  0	 76	  5	  2	  6	  1	  6	  1	  2	  1	0.74076	  1	0.50000	  1	 26	 65	 51	  0	
08-May-2013	sub2341	2341	  1	  0	 77	  5	  2	  6	  1	  6	  0	  2	  0	0.49835	  1	0.70000	  0	 26	 67	 88	  1	
08-May-2013	sub2341	2341	  1	  0	 78	  5	  2	  1	  3	  2	  1	  1	  1	0.35346	  1	0.70000	  0	 21	 60	 61	  1	
08-May-2013	sub2341	2341	  1	  0	 79	  5	  2	  4	  2	  6	  0	  2	  0	0.45301	  1	0.70000	  0	 24	 64	 89	  1	
08-May-2013	sub2341	2341	  1	  0	 80	  5	  2	  2	  5	  1	  1	  2	  1	0.46865	  1	0.70000	  0	 22	 60	 61	  1	
08-May-2013	sub2341	2341	  1	  0	 81	  5	  2	  5	  4	  1	  0	  1	  0	0.57221	  1	0.60000	  0	 25	 67	 88	  0	
08-May-2013	sub2341	2341	  1	  0	 82	  5	  2	  4	  2	  6	  1	  2	  1	0.74028	  1	0.60000	  1	 24	 62	 51	  0	
08-May-2013	sub2341	2341	  1	  0	 83	  5	  2	  2	  5	  1	  1	  2	  1	0.43691	  1	0.80000	  0	 22	 60	 61	  1	
08-May-2013	sub2341	2341	  1	  0	 84	  5	  2	  3	  6	  3	  1	  1	  1	0.44537	  1	0.80000	  0	 23	 62	 63	  1	
08-May-2013	sub2341	2341	  1	  0	 85	  5	  2	  2	  5	  1	  1	  2	  1	0.42514	  1	0.70000	  0	 22	 60	 61	  1	
08-May-2013	sub2341	2341	  1	  0	 86	  5	  2	  4	  2	  6	  1	  2	  1	0.39838	  1	0.70000	  0	 24	 62	 63	  1	
08-May-2013	sub2341	2341	  1	  0	 87	  5	  2	  3	  6	  3	  1	  1	  1	0.40842	  1	0.70000	  0	 23	 62	 63	  1	
08-May-2013	sub2341	2341	  1	  0	 88	  5	  2	  1	  3	  2	  1	  1	  1	0.46137	  1	0.70000	  0	 21	 60	 61	  1	
08-May-2013	sub2341	2341	  1	  0	 89	  5	  2	  5	  4	  1	  0	  1	  0	0.45882	  1	0.70000	  0	 25	 67	 88	  1	
08-May-2013	sub2341	2341	  1	  0	 90	  5	  2	  4	  2	  6	  1	  1	  0	0.36833	  0	0.70000	  0	 24	 82	 83	  1	
08-May-2013	sub2341	2341	  1	  0	 91	  5	  2	  1	  3	  2	  1	  1	  1	0.49606	  1	0.70000	  0	 21	 60	 61	  1	
08-May-2013	sub2341	2341	  1	  0	 92	  5	  2	  5	  4	  1	  0	  1	  0	0.51908	  1	0.70000	  0	 25	 67	 88	  0	
08-May-2013	sub2341	2341	  1	  0	 93	  5	  2	  4	  2	  6	  1	  2	  1	0.58058	  1	0.70000	  0	 24	 62	 63	  0	
08-May-2013	sub2341	2341	  1	  0	 94	  5	  2	  3	  6	  3	  1	  1	  1	0.44563	  1	0.70000	  0	 23	 62	 63	  1	
08-May-2013	sub2341	2341	  1	  0	 95	  5	  2	  2	  5	  1	  1	  2	  1	0.63809	  1	0.70000	  0	 22	 60	 61	  0	
08-May-2013	sub2341	2341	  1	  0	 96	  5	  2	  3	  6	  3	  1	  1	  1	0.49595	  1	0.70000	  0	 23	 62	 63	  1	
08-May-2013	sub2341	2341	  1	  0	 97	  5	  2	  5	  4	  1	  0	  2	  1	0.39935	  0	0.70000	  0	 25	 87	 68	  1	
08-May-2013	sub2341	2341	  1	  0	 98	  5	  2	  2	  5	  1	  1	  2	  1	0.54114	  1	0.70000	  0	 22	 60	 61	  0	
08-May-2013	sub2341	2341	  1	  0	 99	  5	  2	  4	  2	  6	  0	  2	  0	0.53259	  1	0.70000	  0	 24	 64	 89	  0	
08-May-2013	sub2341	2341	  1	  0	100	  5	  2	  5	  4	  1	  0	  1	  0	0.56306	  1	0.70000	  0	 25	 67	 88	  0	
08-May-2013	sub2341	2341	  1	  0	101	  5	  2	  2	  5	  1	  1	  2	  1	0.48851	  1	0.60000	  0	 22	 60	 61	  1	
08-May-2013	sub2341	2341	  1	  0	102	  5	  2	  3	  6	  3	  1	  1	  1	0.52457	  1	0.60000	  0	 23	 62	 63	  0	
08-May-2013	sub2341	2341	  1	  0	103	  5	  2	  4	  2	  6	  1	  2	  1	0.58312	  1	0.60000	  0	 24	 62	 63	  0	
08-May-2013	sub2341	2341	  1	  0	104	  5	  2	  6	  1	  6	  1	  2	  1	0.50209	  1	0.60000	  0	 26	 65	 66	  0	
08-May-2013	sub2341	2341	  1	  0	105	  5	  2	  6	  1	  6	  0	  2	  0	0.45011	  1	0.60000	  0	 26	 67	 88	  1	
08-May-2013	sub2341	2341	  1	  0	106	  5	  2	  6	  1	  6	  0	  2	  0	0.51390	  1	0.60000	  0	 26	 67	 88	  0	
08-May-2013	sub2341	2341	  1	  0	107	  5	  2	  6	  1	  6	  0	  2	  0	0.48023	  1	0.60000	  0	 26	 67	 88	  1	
08-May-2013	sub2341	2341	  1	  0	108	  5	  2	  6	  1	  6	  0	  2	  0	0.41557	  1	0.60000	  0	 26	 67	 88	  1	
08-May-2013	sub2341	2341	  1	  0	109	  5	  2	  1	  3	  2	  1	  1	  1	0.42243	  1	0.60000	  0	 21	 60	 61	  1	
08-May-2013	sub2341	2341	  1	  0	110	  5	  2	  4	  2	  6	  1	  1	  0	0.62531	  0	0.60000	  1	 24	 82	 51	  0	
08-May-2013	sub2341	2341	  1	  0	111	  5	  2	  1	  3	  2	  1	  1	  1	0.38503	  1	0.70000	  0	 21	 60	 61	  1	
08-May-2013	sub2341	2341	  1	  0	112	  5	  2	  1	  3	  2	  1	  1	  1	0.37851	  1	0.70000	  0	 21	 60	 61	  1	
08-May-2013	sub2341	2341	  1	  0	113	  5	  2	  2	  5	  1	  1	  2	  1	0.64448	  1	0.70000	  0	 22	 60	 61	  0	
08-May-2013	sub2341	2341	  1	  0	114	  5	  2	  5	  4	  1	  0	  2	  1	0.48036	  0	0.70000	  0	 25	 87	 68	  1	
08-May-2013	sub2341	2341	  1	  0	115	  5	  2	  6	  1	  6	  1	  1	  0	0.33781	  0	0.70000	  0	 26	 85	 86	  1	
08-May-2013	sub2341	2341	  1	  0	116	  5	  2	  6	  1	  6	  1	  2	  1	0.39275	  1	0.70000	  0	 26	 65	 66	  1	
08-May-2013	sub2341	2341	  1	  0	117	  5	  2	  2	  5	  1	  1	  2	  1	0.38704	  1	0.70000	  0	 22	 60	 61	  1	
08-May-2013	sub2341	2341	  1	  0	118	  5	  2	  6	  1	  6	  1	  2	  1	0.52459	  1	0.70000	  0	 26	 65	 66	  0	
08-May-2013	sub2341	2341	  1	  0	119	  5	  2	  4	  2	  6	  1	  1	  0	0.58615	  0	0.70000	  0	 24	 82	 83	  0	
08-May-2013	sub2341	2341	  1	  0	120	  5	  2	  3	  6	  3	  1	  1	  1	0.54130	  1	0.70000	  0	 23	 62	 63	  0	
08-May-2013	sub2341	2341	  1	  0	121	  5	  2	  1	  3	  2	  1	  1	  1	0.43440	  1	0.60000	  0	 21	 60	 61	  1	
08-May-2013	sub2341	2341	  1	  0	122	  5	  2	  5	  4	  1	  0	  2	  1	0.44581	  0	0.60000	  0	 25	 87	 68	  1	
08-May-2013	sub2341	2341	  1	  0	123	  5	  2	  5	  4	  1	  0	  1	  0	0.38569	  1	0.60000	  0	 25	 67	 88	  1	
08-May-2013	sub2341	2341	  1	  0	124	  5	  2	  3	  6	  3	  0	  1	  0	0.53956	  1	0.60000	  0	 23	 64	 89	  0	
08-May-2013	sub2341	2341	  1	  0	125	  5	  2	  6	  1	  6	  0	  2	  0	0.48374	  1	0.60000	  0	 26	 67	 88	  1	
08-May-2013	sub2341	2341	  1	  0	126	  5	  2	  1	  3	  2	  1	  2	  0	0.40997	  0	0.60000	  0	 21	 80	 81	  1	
08-May-2013	sub2341	2341	  1	  0	127	  5	  2	  5	  4	  1	  0	  1	  0	0.39786	  1	0.60000	  0	 25	 67	 88	  1	
08-May-2013	sub2341	2341	  1	  0	128	  5	  2	  4	  2	  6	  1	  1	  0	0.56829	  0	0.60000	  0	 24	 82	 83	  0	
08-May-2013	sub2341	2341	  1	  0	129	  5	  2	  3	  6	  3	  0	  1	  0	0.38812	  1	0.60000	  0	 23	 64	 89	  1	
08-May-2013	sub2341	2341	  1	  0	130	  5	  2	  1	  3	  2	  1	  1	  1	0.33848	  1	0.60000	  0	 21	 60	 61	  1	
08-May-2013	sub2341	2341	  1	  0	131	  5	  2	  2	  5	  1	  1	  1	  0	0.43553	  0	0.60000	  0	 22	 80	 81	  1	
08-May-2013	sub2341	2341	  1	  0	132	  5	  2	  2	  5	  1	  1	  2	  1	0.53311	  1	0.60000	  0	 22	 60	 61	  0	
08-May-2013	sub2341	2341	  1	  0	133	  5	  2	  5	  4	  1	  0	  2	  1	0.57122	  0	0.60000	  0	 25	 87	 68	  0	
08-May-2013	sub2341	2341	  1	  0	134	  5	  2	  2	  5	  1	  1	  2	  1	0.58831	  1	0.60000	  0	 22	 60	 61	  0	
08-May-2013	sub2341	2341	  1	  0	135	  5	  2	  1	  3	  2	  1	  1	  1	0.50522	  1	0.60000	  0	 21	 60	 61	  0	
08-May-2013	sub2341	2341	  1	  0	136	  5	  2	  5	  4	  1	  0	  1	  0	0.49468	  1	0.60000	  0	 25	 67	 88	  1	
08-May-2013	sub2341	2341	  1	  0	137	  5	  2	  3	  6	  3	  1	  1	  1	0.51358	  1	0.60000	  0	 23	 62	 63	  0	
08-May-2013	sub2341	2341	  1	  0	138	  5	  2	  1	  3	  2	  1	  2	  0	0.39156	  0	0.60000	  0	 21	 80	 81	  1	
08-May-2013	sub2341	2341	  1	  0	139	  5	  2	  4	  2	  6	  1	  2	  1	0.38889	  1	0.60000	  0	 24	 62	 63	  1	
08-May-2013	sub2341	2341	  1	  0	140	  5	  2	  4	  2	  6	  1	  2	  1	0.48499	  1	0.60000	  0	 24	 62	 63	  1	
08-May-2013	sub2341	2341	  1	  0	141	  5	  2	  3	  6	  3	  1	  1	  1	0.45934	  1	0.60000	  0	 23	 62	 63	  1	
08-May-2013	sub2341	2341	  1	  0	142	  5	  2	  5	  4	  1	  0	  1	  0	0.33999	  1	0.60000	  0	 25	 67	 88	  1	
08-May-2013	sub2341	2341	  1	  0	143	  5	  2	  3	  6	  3	  1	  1	  1	0.41814	  1	0.60000	  0	 23	 62	 63	  1	
08-May-2013	sub2341	2341	  1	  0	144	  5	  2	  3	  6	  3	  1	  1	  1	0.45880	  1	0.60000	  0	 23	 62	 63	  1	
08-May-2013	sub2341	2341	  1	  0	145	  5	  2	  4	  2	  6	  0	  1	  1	0.62893	  0	0.60000	  1	 24	 84	 51	  0	
08-May-2013	sub2341	2341	  1	  0	146	  5	  2	  5	  4	  1	  0	  2	  1	0.48823	  0	0.60000	  0	 25	 87	 68	  1	
08-May-2013	sub2341	2341	  1	  0	147	  5	  2	  1	  3	  2	  1	  1	  1	0.41185	  1	0.60000	  0	 21	 60	 61	  1	
08-May-2013	sub2341	2341	  1	  0	148	  5	  2	  1	  3	  2	  1	  2	  0	0.42058	  0	0.60000	  0	 21	 80	 81	  1	
08-May-2013	sub2341	2341	  1	  0	149	  5	  2	  2	  5	  1	  1	  2	  1	0.47420	  1	0.60000	  0	 22	 60	 61	  1	
08-May-2013	sub2341	2341	  1	  0	150	  5	  2	  6	  1	  6	  1	  2	  1	0.53006	  1	0.60000	  0	 26	 65	 66	  0	
08-May-2013	sub2341	2341	  1	  0	  1	  6	  1	  4	  1	  5	  1	  1	  0	0.37639	  0	0.60000	  0	 14	 42	 43	  1	
08-May-2013	sub2341	2341	  1	  0	  2	  6	  1	  5	  5	  3	  1	  1	  1	0.36054	  1	0.30000	  1	 15	 35	 51	  1	
08-May-2013	sub2341	2341	  1	  0	  3	  6	  1	  1	  6	  5	  1	  2	  0	0.56144	  0	0.90000	  0	 11	 40	 41	  0	
08-May-2013	sub2341	2341	  1	  0	  4	  6	  1	  3	  4	  3	  1	  2	  0	0.54221	  0	0.90000	  0	 13	 42	 43	  0	
08-May-2013	sub2341	2341	  1	  0	  5	  6	  1	  3	  4	  3	  1	  1	  1	0.43209	  1	0.90000	  0	 13	 32	 33	  1	
08-May-2013	sub2341	2341	  1	  0	  6	  6	  1	  5	  5	  3	  1	  1	  1	0.43497	  1	0.90000	  0	 15	 35	 36	  1	
08-May-2013	sub2341	2341	  1	  0	  7	  6	  1	  2	  2	  5	  1	  1	  0	0.53440	  0	0.90000	  0	 12	 40	 41	  0	
08-May-2013	sub2341	2341	  1	  0	  8	  6	  1	  2	  2	  5	  1	  2	  1	0.50317	  1	0.90000	  0	 12	 30	 31	  0	
08-May-2013	sub2341	2341	  1	  0	  9	  6	  1	  2	  2	  5	  1	  2	  1	0.46477	  1	0.90000	  0	 12	 30	 31	  1	
08-May-2013	sub2341	2341	  1	  0	 10	  6	  1	  3	  4	  3	  0	  1	  0	0.44037	  1	0.90000	  0	 13	 34	 49	  1	
08-May-2013	sub2341	2341	  1	  0	 11	  6	  1	  4	  1	  5	  1	  2	  1	0.53930	  1	0.90000	  0	 14	 32	 33	  0	
08-May-2013	sub2341	2341	  1	  0	 12	  6	  1	  1	  6	  5	  1	  1	  1	0.68464	  1	0.90000	  0	 11	 30	 31	  0	
08-May-2013	sub2341	2341	  1	  0	 13	  6	  1	  3	  4	  3	  0	  2	  1	0.41330	  0	0.90000	  0	 13	 44	 39	  1	
08-May-2013	sub2341	2341	  1	  0	 14	  6	  1	  2	  2	  5	  1	  1	  0	0.57055	  0	0.90000	  0	 12	 40	 41	  0	
08-May-2013	sub2341	2341	  1	  0	 15	  6	  1	  1	  6	  5	  1	  2	  0	0.34166	  0	0.90000	  0	 11	 40	 41	  1	
08-May-2013	sub2341	2341	  1	  0	 16	  6	  1	  4	  1	  5	  0	  2	  0	0.55502	  1	0.80000	  0	 14	 34	 49	  0	
08-May-2013	sub2341	2341	  1	  0	 17	  6	  1	  4	  1	  5	  0	  1	  1	0.44627	  0	0.80000	  0	 14	 44	 39	  1	
08-May-2013	sub2341	2341	  1	  0	 18	  6	  1	  4	  1	  5	  1	  2	  1	0.43206	  1	0.70000	  0	 14	 32	 33	  1	
08-May-2013	sub2341	2341	  1	  0	 19	  6	  1	  1	  6	  5	  1	  1	  1	0.43873	  1	0.70000	  0	 11	 30	 31	  1	
08-May-2013	sub2341	2341	  1	  0	 20	  6	  1	  3	  4	  3	  1	  1	  1	0.74182	  1	0.70000	  1	 13	 32	 51	  0	
08-May-2013	sub2341	2341	  1	  0	 21	  6	  1	  3	  4	  3	  1	  1	  1	0.37982	  1	0.90000	  0	 13	 32	 33	  1	
08-May-2013	sub2341	2341	  1	  0	 22	  6	  1	  5	  5	  3	  1	  1	  1	0.56239	  1	0.90000	  0	 15	 35	 36	  0	
08-May-2013	sub2341	2341	  1	  0	 23	  6	  1	  6	  3	  1	  1	  1	  0	0.43271	  0	0.90000	  0	 16	 45	 46	  1	
08-May-2013	sub2341	2341	  1	  0	 24	  6	  1	  4	  1	  5	  1	  1	  0	0.59806	  0	0.90000	  0	 14	 42	 43	  0	
08-May-2013	sub2341	2341	  1	  0	 25	  6	  1	  5	  5	  3	  1	  1	  1	0.42846	  1	0.90000	  0	 15	 35	 36	  1	
08-May-2013	sub2341	2341	  1	  0	 26	  6	  1	  6	  3	  1	  1	  1	  0	0.42321	  0	0.90000	  0	 16	 45	 46	  1	
08-May-2013	sub2341	2341	  1	  0	 27	  6	  1	  1	  6	  5	  1	  1	  1	0.43503	  1	0.90000	  0	 11	 30	 31	  1	
08-May-2013	sub2341	2341	  1	  0	 28	  6	  1	  4	  1	  5	  1	  1	  0	0.48778	  0	0.90000	  0	 14	 42	 43	  1	
08-May-2013	sub2341	2341	  1	  0	 29	  6	  1	  5	  5	  3	  0	  1	  0	0.51481	  1	0.90000	  0	 15	 37	 48	  0	
08-May-2013	sub2341	2341	  1	  0	 30	  6	  1	  2	  2	  5	  1	  1	  0	0.41653	  0	0.80000	  0	 12	 40	 41	  1	
08-May-2013	sub2341	2341	  1	  0	 31	  6	  1	  4	  1	  5	  1	  1	  0	0.58716	  0	0.80000	  0	 14	 42	 43	  0	
08-May-2013	sub2341	2341	  1	  0	 32	  6	  1	  5	  5	  3	  0	  1	  0	0.51923	  1	0.80000	  0	 15	 37	 48	  0	
08-May-2013	sub2341	2341	  1	  0	 33	  6	  1	  1	  6	  5	  1	  1	  1	0.50204	  1	0.80000	  0	 11	 30	 31	  0	
08-May-2013	sub2341	2341	  1	  0	 34	  6	  1	  6	  3	  1	  0	  2	  0	0.47148	  1	0.80000	  0	 16	 37	 48	  1	
08-May-2013	sub2341	2341	  1	  0	 35	  6	  1	  4	  1	  5	  1	  1	  0	0.54258	  0	0.70000	  0	 14	 42	 43	  0	
08-May-2013	sub2341	2341	  1	  0	 36	  6	  1	  1	  6	  5	  1	  1	  1	0.46559	  1	0.70000	  0	 11	 30	 31	  1	
08-May-2013	sub2341	2341	  1	  0	 37	  6	  1	  5	  5	  3	  0	  1	  0	0.48547	  1	0.70000	  0	 15	 37	 48	  1	
08-May-2013	sub2341	2341	  1	  0	 38	  6	  1	  6	  3	  1	  0	  1	  1	0.57504	  0	0.70000	  0	 16	 47	 38	  0	
08-May-2013	sub2341	2341	  1	  0	 39	  6	  1	  3	  4	  3	  1	  1	  1	0.59745	  1	0.70000	  0	 13	 32	 33	  0	
08-May-2013	sub2341	2341	  1	  0	 40	  6	  1	  4	  1	  5	  1	  1	  0	0.61151	  0	0.70000	  0	 14	 42	 43	  0	
08-May-2013	sub2341	2341	  1	  0	 41	  6	  1	  2	  2	  5	  1	  1	  0	0.44396	  0	0.60000	  0	 12	 40	 41	  1	
08-May-2013	sub2341	2341	  1	  0	 42	  6	  1	  6	  3	  1	  1	  2	  1	0.55449	  1	0.60000	  0	 16	 35	 36	  0	
08-May-2013	sub2341	2341	  1	  0	 43	  6	  1	  2	  2	  5	  1	  2	  1	0.44248	  1	0.60000	  0	 12	 30	 31	  1	
08-May-2013	sub2341	2341	  1	  0	 44	  6	  1	  2	  2	  5	  1	  2	  1	0.37921	  1	0.60000	  0	 12	 30	 31	  1	
08-May-2013	sub2341	2341	  1	  0	 45	  6	  1	  2	  2	  5	  1	  2	  1	0.40171	  1	0.60000	  0	 12	 30	 31	  1	
08-May-2013	sub2341	2341	  1	  0	 46	  6	  1	  6	  3	  1	  1	  2	  1	0.53558	  1	0.60000	  0	 16	 35	 36	  0	
08-May-2013	sub2341	2341	  1	  0	 47	  6	  1	  6	  3	  1	  0	  2	  0	0.41478	  1	0.60000	  0	 16	 37	 48	  1	
08-May-2013	sub2341	2341	  1	  0	 48	  6	  1	  1	  6	  5	  1	  2	  0	0.43281	  0	0.60000	  0	 11	 40	 41	  1	
08-May-2013	sub2341	2341	  1	  0	 49	  6	  1	  3	  4	  3	  1	  1	  1	0.43588	  1	0.60000	  0	 13	 32	 33	  1	
08-May-2013	sub2341	2341	  1	  0	 50	  6	  1	  5	  5	  3	  0	  1	  0	0.58087	  1	0.60000	  0	 15	 37	 48	  0	
08-May-2013	sub2341	2341	  1	  0	 51	  6	  1	  6	  3	  1	  0	  1	  1	0.66829	  0	0.50000	  1	 16	 47	 51	  0	
08-May-2013	sub2341	2341	  1	  0	 52	  6	  1	  6	  3	  1	  0	  2	  0	0.56201	  1	0.70000	  0	 16	 37	 48	  0	
08-May-2013	sub2341	2341	  1	  0	 53	  6	  1	  1	  6	  5	  1	  1	  1	0.05128	  1	0.70000	  0	 11	 30	 31	  1	
08-May-2013	sub2341	2341	  1	  0	 54	  6	  1	  2	  2	  5	  1	  2	  1	0.52338	  1	0.70000	  0	 12	 30	 31	  0	
08-May-2013	sub2341	2341	  1	  0	 55	  6	  1	  3	  4	  3	  1	  1	  1	0.51918	  1	0.70000	  0	 13	 32	 33	  0	
08-May-2013	sub2341	2341	  1	  0	 56	  6	  1	  3	  4	  3	  1	  1	  1	0.48539	  1	0.70000	  0	 13	 32	 33	  1	
08-May-2013	sub2341	2341	  1	  0	 57	  6	  1	  1	  6	  5	  1	  1	  1	0.52413	  1	0.70000	  0	 11	 30	 31	  0	
08-May-2013	sub2341	2341	  1	  0	 58	  6	  1	  5	  5	  3	  0	  1	  0	0.48515	  1	0.70000	  0	 15	 37	 48	  1	
08-May-2013	sub2341	2341	  1	  0	 59	  6	  1	  3	  4	  3	  1	  1	  1	0.69153	  1	0.70000	  0	 13	 32	 33	  0	
08-May-2013	sub2341	2341	  1	  0	 60	  6	  1	  6	  3	  1	  1	  2	  1	0.56143	  1	0.70000	  0	 16	 35	 36	  0	
08-May-2013	sub2341	2341	  1	  0	 61	  6	  1	  2	  2	  5	  1	  2	  1	0.46585	  1	0.60000	  0	 12	 30	 31	  1	
08-May-2013	sub2341	2341	  1	  0	 62	  6	  1	  4	  1	  5	  1	  1	  0	0.54108	  0	0.60000	  0	 14	 42	 43	  0	
08-May-2013	sub2341	2341	  1	  0	 63	  6	  1	  2	  2	  5	  1	  2	  1	0.59582	  1	0.60000	  0	 12	 30	 31	  0	
08-May-2013	sub2341	2341	  1	  0	 64	  6	  1	  3	  4	  3	  0	  2	  1	0.43069	  0	0.60000	  0	 13	 44	 39	  1	
08-May-2013	sub2341	2341	  1	  0	 65	  6	  1	  1	  6	  5	  1	  2	  0	0.63789	  0	0.60000	  1	 11	 40	 51	  0	
08-May-2013	sub2341	2341	  1	  0	 66	  6	  1	  5	  5	  3	  1	  2	  0	0.54387	  0	0.80000	  0	 15	 45	 46	  0	
08-May-2013	sub2341	2341	  1	  0	 67	  6	  1	  6	  3	  1	  0	  2	  0	0.49618	  1	0.80000	  0	 16	 37	 48	  1	
08-May-2013	sub2341	2341	  1	  0	 68	  6	  1	  1	  6	  5	  1	  2	  0	0.39273	  0	0.70000	  0	 11	 40	 41	  1	
08-May-2013	sub2341	2341	  1	  0	 69	  6	  1	  4	  1	  5	  1	  2	  1	0.47411	  1	0.70000	  0	 14	 32	 33	  1	
08-May-2013	sub2341	2341	  1	  0	 70	  6	  1	  5	  5	  3	  1	  1	  1	0.47753	  1	0.70000	  0	 15	 35	 36	  1	
08-May-2013	sub2341	2341	  1	  0	 71	  6	  1	  5	  5	  3	  0	  1	  0	0.38017	  1	0.70000	  0	 15	 37	 48	  1	
08-May-2013	sub2341	2341	  1	  0	 72	  6	  1	  2	  2	  5	  1	  1	  0	0.52378	  0	0.70000	  0	 12	 40	 41	  0	
08-May-2013	sub2341	2341	  1	  0	 73	  6	  1	  3	  4	  3	  1	  2	  0	0.41084	  0	0.70000	  0	 13	 42	 43	  1	
08-May-2013	sub2341	2341	  1	  0	 74	  6	  1	  6	  3	  1	  0	  1	  1	0.70718	  0	0.70000	  1	 16	 47	 51	  0	
08-May-2013	sub2341	2341	  1	  0	 75	  6	  1	  6	  3	  1	  1	  2	  1	0.55051	  1	0.80000	  0	 16	 35	 36	  0	
08-May-2013	sub2341	2341	  1	  0	 76	  6	  2	  4	  1	  5	  1	  1	  0	0.53591	  0	0.80000	  0	 24	 82	 83	  0	
08-May-2013	sub2341	2341	  1	  0	 77	  6	  2	  4	  1	  5	  1	  2	  1	0.44729	  1	0.80000	  0	 24	 62	 63	  1	
08-May-2013	sub2341	2341	  1	  0	 78	  6	  2	  4	  1	  5	  1	  2	  1	0.49176	  1	0.80000	  0	 24	 62	 63	  1	
08-May-2013	sub2341	2341	  1	  0	 79	  6	  2	  5	  5	  3	  0	  2	  1	0.58825	  0	0.80000	  0	 25	 87	 68	  0	
08-May-2013	sub2341	2341	  1	  0	 80	  6	  2	  5	  5	  3	  0	  2	  1	0.53756	  0	0.80000	  0	 25	 87	 68	  0	
08-May-2013	sub2341	2341	  1	  0	 81	  6	  2	  2	  2	  5	  1	  2	  1	0.46979	  1	0.80000	  0	 22	 60	 61	  1	
08-May-2013	sub2341	2341	  1	  0	 82	  6	  2	  1	  6	  5	  1	  2	  0	0.39170	  0	0.80000	  0	 21	 80	 81	  1	
08-May-2013	sub2341	2341	  1	  0	 83	  6	  2	  5	  5	  3	  0	  2	  1	0.45134	  0	0.80000	  0	 25	 87	 68	  1	
08-May-2013	sub2341	2341	  1	  0	 84	  6	  2	  5	  5	  3	  0	  2	  1	0.40937	  0	0.80000	  0	 25	 87	 68	  1	
08-May-2013	sub2341	2341	  1	  0	 85	  6	  2	  2	  2	  5	  1	  1	  0	0.42969	  0	0.70000	  0	 22	 80	 81	  1	
08-May-2013	sub2341	2341	  1	  0	 86	  6	  2	  2	  2	  5	  1	  2	  1	0.52396	  1	0.70000	  0	 22	 60	 61	  0	
08-May-2013	sub2341	2341	  1	  0	 87	  6	  2	  6	  3	  1	  1	  1	  0	0.46508	  0	0.70000	  0	 26	 85	 86	  1	
08-May-2013	sub2341	2341	  1	  0	 88	  6	  2	  6	  3	  1	  0	  2	  0	0.43782	  1	0.70000	  0	 26	 67	 88	  1	
08-May-2013	sub2341	2341	  1	  0	 89	  6	  2	  3	  4	  3	  1	  2	  0	0.38468	  0	0.70000	  0	 23	 82	 83	  1	
08-May-2013	sub2341	2341	  1	  0	 90	  6	  2	  5	  5	  3	  0	  1	  0	0.56673	  1	0.70000	  0	 25	 67	 88	  0	
08-May-2013	sub2341	2341	  1	  0	 91	  6	  2	  1	  6	  5	  1	  2	  0	0.53491	  0	0.70000	  0	 21	 80	 81	  0	
08-May-2013	sub2341	2341	  1	  0	 92	  6	  2	  2	  2	  5	  1	  2	  1	0.49156	  1	0.70000	  0	 22	 60	 61	  1	
08-May-2013	sub2341	2341	  1	  0	 93	  6	  2	  4	  1	  5	  1	  1	  0	0.63723	  0	0.70000	  0	 24	 82	 83	  0	
08-May-2013	sub2341	2341	  1	  0	 94	  6	  2	  1	  6	  5	  1	  2	  0	0.56632	  0	0.70000	  0	 21	 80	 81	  0	
08-May-2013	sub2341	2341	  1	  0	 95	  6	  2	  5	  5	  3	  0	  1	  0	0.52666	  1	0.70000	  0	 25	 67	 88	  0	
08-May-2013	sub2341	2341	  1	  0	 96	  6	  2	  6	  3	  1	  1	  2	  1	0.70135	  1	0.70000	  1	 26	 65	 51	  0	
08-May-2013	sub2341	2341	  1	  0	 97	  6	  2	  3	  4	  3	  1	  2	  0	0.38936	  0	0.80000	  0	 23	 82	 83	  1	
08-May-2013	sub2341	2341	  1	  0	 98	  6	  2	  4	  1	  5	  1	  2	  1	0.45842	  1	0.80000	  0	 24	 62	 63	  1	
08-May-2013	sub2341	2341	  1	  0	 99	  6	  2	  2	  2	  5	  1	  2	  1	0.63587	  1	0.80000	  0	 22	 60	 61	  0	
08-May-2013	sub2341	2341	  1	  0	100	  6	  2	  6	  3	  1	  1	  2	  1	0.66148	  1	0.80000	  0	 26	 65	 66	  0	
08-May-2013	sub2341	2341	  1	  0	101	  6	  2	  3	  4	  3	  0	  2	  1	0.48728	  0	0.70000	  0	 23	 84	 69	  1	
08-May-2013	sub2341	2341	  1	  0	102	  6	  2	  4	  1	  5	  0	  2	  0	0.55194	  1	0.70000	  0	 24	 64	 89	  0	
08-May-2013	sub2341	2341	  1	  0	103	  6	  2	  4	  1	  5	  0	  2	  0	0.38477	  1	0.70000	  0	 24	 64	 89	  1	
08-May-2013	sub2341	2341	  1	  0	104	  6	  2	  5	  5	  3	  0	  1	  0	0.69431	  1	0.70000	  0	 25	 67	 88	  0	
08-May-2013	sub2341	2341	  1	  0	105	  6	  2	  5	  5	  3	  0	  2	  1	0.32855	  0	0.70000	  0	 25	 87	 68	  1	
08-May-2013	sub2341	2341	  1	  0	106	  6	  2	  5	  5	  3	  0	  2	  1	0.43896	  0	0.70000	  0	 25	 87	 68	  1	
08-May-2013	sub2341	2341	  1	  0	107	  6	  2	  3	  4	  3	  1	  2	  0	0.39918	  0	0.70000	  0	 23	 82	 83	  1	
08-May-2013	sub2341	2341	  1	  0	108	  6	  2	  2	  2	  5	  1	  2	  1	0.43598	  1	0.70000	  0	 22	 60	 61	  1	
08-May-2013	sub2341	2341	  1	  0	109	  6	  2	  6	  3	  1	  0	  1	  1	0.56082	  0	0.70000	  0	 26	 87	 68	  0	
08-May-2013	sub2341	2341	  1	  0	110	  6	  2	  6	  3	  1	  1	  2	  1	0.46284	  1	0.70000	  0	 26	 65	 66	  1	
08-May-2013	sub2341	2341	  1	  0	111	  6	  2	  4	  1	  5	  1	  1	  0	0.56667	  0	0.70000	  0	 24	 82	 83	  0	
08-May-2013	sub2341	2341	  1	  0	112	  6	  2	  4	  1	  5	  1	  2	  1	0.40261	  1	0.70000	  0	 24	 62	 63	  1	
08-May-2013	sub2341	2341	  1	  0	113	  6	  2	  5	  5	  3	  0	  2	  1	0.41282	  0	0.70000	  0	 25	 87	 68	  1	
08-May-2013	sub2341	2341	  1	  0	114	  6	  2	  3	  4	  3	  1	  2	  0	0.35795	  0	0.70000	  0	 23	 82	 83	  1	
08-May-2013	sub2341	2341	  1	  0	115	  6	  2	  1	  6	  5	  1	  2	  0	0.45100	  0	0.70000	  0	 21	 80	 81	  1	
08-May-2013	sub2341	2341	  1	  0	116	  6	  2	  1	  6	  5	  1	  1	  1	0.45636	  1	0.70000	  0	 21	 60	 61	  1	
08-May-2013	sub2341	2341	  1	  0	117	  6	  2	  4	  1	  5	  0	  2	  0	0.66748	  1	0.70000	  0	 24	 64	 89	  0	
08-May-2013	sub2341	2341	  1	  0	118	  6	  2	  3	  4	  3	  1	  1	  1	0.47783	  1	0.70000	  0	 23	 62	 63	  1	
08-May-2013	sub2341	2341	  1	  0	119	  6	  2	  1	  6	  5	  1	  1	  1	0.43351	  1	0.70000	  0	 21	 60	 61	  1	
08-May-2013	sub2341	2341	  1	  0	120	  6	  2	  4	  1	  5	  1	  2	  1	0.45870	  1	0.70000	  0	 24	 62	 63	  1	
08-May-2013	sub2341	2341	  1	  0	121	  6	  2	  4	  1	  5	  1	  2	  1	0.45836	  1	0.60000	  0	 24	 62	 63	  1	
08-May-2013	sub2341	2341	  1	  0	122	  6	  2	  6	  3	  1	  0	  2	  0	0.60337	  1	0.60000	  1	 26	 67	 51	  0	
08-May-2013	sub2341	2341	  1	  0	123	  6	  2	  3	  4	  3	  1	  1	  1	0.59268	  1	0.70000	  0	 23	 62	 63	  0	
08-May-2013	sub2341	2341	  1	  0	124	  6	  2	  3	  4	  3	  1	  2	  0	0.38397	  0	0.70000	  0	 23	 82	 83	  1	
08-May-2013	sub2341	2341	  1	  0	125	  6	  2	  2	  2	  5	  1	  2	  1	0.48475	  1	0.70000	  0	 22	 60	 61	  1	
08-May-2013	sub2341	2341	  1	  0	126	  6	  2	  6	  3	  1	  1	  2	  1	0.52411	  1	0.70000	  0	 26	 65	 66	  0	
08-May-2013	sub2341	2341	  1	  0	127	  6	  2	  3	  4	  3	  1	  2	  0	0.57679	  0	0.70000	  0	 23	 82	 83	  0	
08-May-2013	sub2341	2341	  1	  0	128	  6	  2	  6	  3	  1	  0	  2	  0	0.44761	  1	0.70000	  0	 26	 67	 88	  1	
08-May-2013	sub2341	2341	  1	  0	129	  6	  2	  2	  2	  5	  1	  2	  1	0.46492	  1	0.70000	  0	 22	 60	 61	  1	
08-May-2013	sub2341	2341	  1	  0	130	  6	  2	  1	  6	  5	  1	  2	  0	0.41815	  0	0.70000	  0	 21	 80	 81	  1	
08-May-2013	sub2341	2341	  1	  0	131	  6	  2	  6	  3	  1	  0	  2	  0	0.42288	  1	0.70000	  0	 26	 67	 88	  1	
08-May-2013	sub2341	2341	  1	  0	132	  6	  2	  3	  4	  3	  1	  2	  0	0.60252	  0	0.70000	  0	 23	 82	 83	  0	
08-May-2013	sub2341	2341	  1	  0	133	  6	  2	  1	  6	  5	  1	  1	  1	0.41219	  1	0.70000	  0	 21	 60	 61	  1	
08-May-2013	sub2341	2341	  1	  0	134	  6	  2	  2	  2	  5	  1	  2	  1	0.51939	  1	0.70000	  0	 22	 60	 61	  0	
08-May-2013	sub2341	2341	  1	  0	135	  6	  2	  2	  2	  5	  1	  2	  1	0.41484	  1	0.70000	  0	 22	 60	 61	  1	
08-May-2013	sub2341	2341	  1	  0	136	  6	  2	  1	  6	  5	  1	  1	  1	0.52558	  1	0.70000	  0	 21	 60	 61	  0	
08-May-2013	sub2341	2341	  1	  0	137	  6	  2	  1	  6	  5	  1	  2	  0	0.49227	  0	0.70000	  0	 21	 80	 81	  1	
08-May-2013	sub2341	2341	  1	  0	138	  6	  2	  3	  4	  3	  1	  2	  0	0.50303	  0	0.70000	  0	 23	 82	 83	  0	
08-May-2013	sub2341	2341	  1	  0	139	  6	  2	  6	  3	  1	  0	  2	  0	0.59373	  1	0.70000	  0	 26	 67	 88	  0	
08-May-2013	sub2341	2341	  1	  0	140	  6	  2	  5	  5	  3	  0	  2	  1	0.56233	  0	0.70000	  0	 25	 87	 68	  0	
08-May-2013	sub2341	2341	  1	  0	141	  6	  2	  1	  6	  5	  1	  1	  1	0.36944	  1	0.60000	  0	 21	 60	 61	  1	
08-May-2013	sub2341	2341	  1	  0	142	  6	  2	  5	  5	  3	  0	  2	  1	0.45071	  0	0.60000	  0	 25	 87	 68	  1	
08-May-2013	sub2341	2341	  1	  0	143	  6	  2	  1	  6	  5	  1	  1	  1	0.57146	  1	0.60000	  0	 21	 60	 61	  0	
08-May-2013	sub2341	2341	  1	  0	144	  6	  2	  3	  4	  3	  0	  1	  0	0.53096	  1	0.60000	  0	 23	 64	 89	  0	
08-May-2013	sub2341	2341	  1	  0	145	  6	  2	  6	  3	  1	  1	  1	  0	0.51480	  0	0.60000	  0	 26	 85	 86	  0	
08-May-2013	sub2341	2341	  1	  0	146	  6	  2	  5	  5	  3	  0	  1	  0	0.69638	  1	0.60000	  1	 25	 67	 51	  0	
08-May-2013	sub2341	2341	  1	  0	147	  6	  2	  4	  1	  5	  1	  1	  0	0.50640	  0	0.70000	  0	 24	 82	 83	  0	
08-May-2013	sub2341	2341	  1	  0	148	  6	  2	  2	  2	  5	  1	  2	  1	0.46320	  1	0.70000	  0	 22	 60	 61	  1	
08-May-2013	sub2341	2341	  1	  0	149	  6	  2	  1	  6	  5	  1	  1	  1	0.50971	  1	0.70000	  0	 21	 60	 61	  0	
08-May-2013	sub2341	2341	  1	  0	150	  6	  2	  2	  2	  5	  1	  2	  1	0.57405	  1	0.70000	  0	 22	 60	 61	  0	
