Date 	 Name 	 ID 	 Gender 	 Appearance 	 Trial 	 Block 	 Bin 	 Condition 	 Category 	 Number 	 Valid 	 Keypress 	 Correct 	 RT 	 Realcorrect 	 Deadline 	 Timeout 	 Stimtrigger 	 Resptrigger 	 Fedtrigger 	 WithinTime 	 
09-May-2013	sub2342	2342	  2	  1	  1	  1	  1	  6	  4	  2	  0	  1	  1	16.31445	  0	0.60000	  1	 16	 47	 51	  0	
09-May-2013	sub2342	2342	  2	  1	  2	  1	  1	  1	  1	  3	  1	  1	  1	0.84830	  1	0.90000	  0	 11	 30	 31	  0	
09-May-2013	sub2342	2342	  2	  1	  3	  1	  1	  5	  6	  5	  1	  1	  1	3.84932	  1	0.90000	  1	 15	 35	 51	  0	
09-May-2013	sub2342	2342	  2	  1	  4	  1	  1	  1	  1	  3	  1	  2	  0	1.30398	  0	0.90000	  1	 11	 40	 51	  0	
09-May-2013	sub2342	2342	  2	  1	  5	  1	  1	  6	  4	  2	  1	  1	  0	0.70662	  0	0.90000	  0	 16	 45	 46	  0	
09-May-2013	sub2342	2342	  2	  1	  6	  1	  1	  5	  6	  5	  0	  2	  1	1.54661	  0	0.90000	  1	 15	 47	 51	  0	
09-May-2013	sub2342	2342	  2	  1	  7	  1	  1	  4	  3	  6	  1	  2	  1	2.47074	  1	0.90000	  1	 14	 32	 51	  0	
09-May-2013	sub2342	2342	  2	  1	  8	  1	  1	  4	  3	  6	  1	  2	  1	2.35817	  1	0.90000	  1	 14	 32	 51	  0	
09-May-2013	sub2342	2342	  2	  1	  9	  1	  1	  6	  4	  2	  0	  2	  0	1.08766	  1	0.90000	  1	 16	 37	 51	  0	
09-May-2013	sub2342	2342	  2	  1	 10	  1	  1	  1	  1	  3	  1	  2	  0	1.51532	  0	0.90000	  1	 11	 40	 51	  0	
09-May-2013	sub2342	2342	  2	  1	 11	  1	  1	  2	  5	  2	  1	  2	  1	0.95717	  1	0.90000	  1	 12	 30	 51	  0	
09-May-2013	sub2342	2342	  2	  1	 12	  1	  1	  2	  5	  2	  1	  2	  1	1.81252	  1	0.90000	  1	 12	 30	 51	  0	
09-May-2013	sub2342	2342	  2	  1	 13	  1	  1	  6	  4	  2	  0	  2	  0	0.37083	  1	0.90000	  0	 16	 37	 48	  1	
09-May-2013	sub2342	2342	  2	  1	 14	  1	  1	  6	  4	  2	  0	  1	  1	0.69402	  0	0.90000	  0	 16	 47	 38	  0	
09-May-2013	sub2342	2342	  2	  1	 15	  1	  1	  5	  6	  5	  1	  2	  0	0.52284	  0	0.90000	  0	 15	 45	 46	  0	
09-May-2013	sub2342	2342	  2	  1	 16	  1	  1	  3	  2	  3	  1	  2	  0	0.99664	  0	0.90000	  1	 13	 42	 51	  0	
09-May-2013	sub2342	2342	  2	  1	 17	  1	  1	  5	  6	  5	  1	  1	  1	0.52736	  1	0.90000	  0	 15	 35	 36	  0	
09-May-2013	sub2342	2342	  2	  1	 18	  1	  1	  1	  1	  3	  1	  2	  0	0.68623	  0	0.90000	  0	 11	 40	 41	  0	
09-May-2013	sub2342	2342	  2	  1	 19	  1	  1	  4	  3	  6	  1	  2	  1	1.04692	  1	0.90000	  1	 14	 32	 51	  0	
09-May-2013	sub2342	2342	  2	  1	 20	  1	  1	  5	  6	  5	  0	  1	  0	0.62932	  1	0.90000	  0	 15	 37	 48	  0	
09-May-2013	sub2342	2342	  2	  1	 21	  1	  1	  3	  2	  3	  0	  2	  1	0.57797	  0	0.90000	  0	 13	 44	 39	  0	
09-May-2013	sub2342	2342	  2	  1	 22	  1	  1	  6	  4	  2	  1	  1	  0	0.91148	  0	0.90000	  1	 16	 45	 51	  0	
09-May-2013	sub2342	2342	  2	  1	 23	  1	  1	  4	  3	  6	  1	  2	  1	0.60982	  1	0.90000	  0	 14	 32	 33	  0	
09-May-2013	sub2342	2342	  2	  1	 24	  1	  1	  3	  2	  3	  0	  2	  1	0.49147	  0	0.90000	  0	 13	 44	 39	  1	
09-May-2013	sub2342	2342	  2	  1	 25	  1	  1	  3	  2	  3	  0	  2	  1	0.69929	  0	0.90000	  0	 13	 44	 39	  0	
09-May-2013	sub2342	2342	  2	  1	 26	  1	  1	  1	  1	  3	  1	  2	  0	0.39750	  0	0.90000	  0	 11	 40	 41	  1	
09-May-2013	sub2342	2342	  2	  1	 27	  1	  1	  3	  2	  3	  1	  2	  0	0.75011	  0	0.90000	  0	 13	 42	 43	  0	
09-May-2013	sub2342	2342	  2	  1	 28	  1	  1	  4	  3	  6	  1	  2	  1	0.57175	  1	0.90000	  0	 14	 32	 33	  0	
09-May-2013	sub2342	2342	  2	  1	 29	  1	  1	  6	  4	  2	  1	  1	  0	0.59619	  0	0.90000	  0	 16	 45	 46	  0	
09-May-2013	sub2342	2342	  2	  1	 30	  1	  1	  2	  5	  2	  1	  2	  1	0.79448	  1	0.90000	  0	 12	 30	 31	  0	
09-May-2013	sub2342	2342	  2	  1	 31	  1	  1	  4	  3	  6	  1	  2	  1	0.72673	  1	0.90000	  0	 14	 32	 33	  0	
09-May-2013	sub2342	2342	  2	  1	 32	  1	  1	  3	  2	  3	  1	  2	  0	0.50955	  0	0.90000	  0	 13	 42	 43	  0	
09-May-2013	sub2342	2342	  2	  1	 33	  1	  1	  4	  3	  6	  0	  1	  1	0.19419	  0	0.90000	  0	 14	 44	 39	  1	
09-May-2013	sub2342	2342	  2	  1	 34	  1	  1	  3	  2	  3	  1	  2	  0	0.92821	  0	0.90000	  1	 13	 42	 51	  0	
09-May-2013	sub2342	2342	  2	  1	 35	  1	  1	  3	  2	  3	  1	  1	  1	0.30529	  1	0.90000	  0	 13	 32	 33	  1	
09-May-2013	sub2342	2342	  2	  1	 36	  1	  1	  4	  3	  6	  1	  2	  1	0.44915	  1	0.90000	  0	 14	 32	 33	  1	
09-May-2013	sub2342	2342	  2	  1	 37	  1	  1	  5	  6	  5	  1	  2	  0	0.52196	  0	0.90000	  0	 15	 45	 46	  0	
09-May-2013	sub2342	2342	  2	  1	 38	  1	  1	  1	  1	  3	  1	  2	  0	0.65313	  0	0.90000	  0	 11	 40	 41	  0	
09-May-2013	sub2342	2342	  2	  1	 39	  1	  1	  3	  2	  3	  1	  1	  1	0.54250	  1	0.90000	  0	 13	 32	 33	  0	
09-May-2013	sub2342	2342	  2	  1	 40	  1	  1	  1	  1	  3	  1	  2	  0	0.00017	  0	0.90000	  0	 11	 40	 41	  1	
09-May-2013	sub2342	2342	  2	  1	 41	  1	  1	  6	  4	  2	  0	  2	  0	0.54563	  1	0.90000	  0	 16	 37	 48	  0	
09-May-2013	sub2342	2342	  2	  1	 42	  1	  1	  6	  4	  2	  1	  2	  1	1.04857	  1	0.90000	  1	 16	 35	 51	  0	
09-May-2013	sub2342	2342	  2	  1	 43	  1	  1	  6	  4	  2	  1	  2	  1	3.27805	  1	0.90000	  1	 16	 35	 51	  0	
09-May-2013	sub2342	2342	  2	  1	 44	  1	  1	  4	  3	  6	  1	  1	  0	0.57202	  0	0.90000	  0	 14	 42	 43	  0	
09-May-2013	sub2342	2342	  2	  1	 45	  1	  1	  1	  1	  3	  1	  2	  0	0.63920	  0	0.90000	  0	 11	 40	 41	  0	
09-May-2013	sub2342	2342	  2	  1	 46	  1	  1	  4	  3	  6	  1	  1	  0	0.86135	  0	0.90000	  0	 14	 42	 43	  0	
09-May-2013	sub2342	2342	  2	  1	 47	  1	  1	  5	  6	  5	  0	  2	  1	0.46618	  0	0.90000	  0	 15	 47	 38	  1	
09-May-2013	sub2342	2342	  2	  1	 48	  1	  1	  6	  4	  2	  1	  1	  0	0.27070	  0	0.90000	  0	 16	 45	 46	  1	
09-May-2013	sub2342	2342	  2	  1	 49	  1	  1	  1	  1	  3	  1	  1	  1	1.17126	  1	0.90000	  1	 11	 30	 51	  0	
09-May-2013	sub2342	2342	  2	  1	 50	  1	  1	  6	  4	  2	  0	  2	  0	0.70288	  1	0.90000	  0	 16	 37	 48	  0	
09-May-2013	sub2342	2342	  2	  1	 51	  1	  1	  2	  5	  2	  1	  2	  1	1.03552	  1	0.90000	  1	 12	 30	 51	  0	
09-May-2013	sub2342	2342	  2	  1	 52	  1	  1	  2	  5	  2	  1	  1	  0	0.08406	  0	0.90000	  0	 12	 40	 41	  1	
09-May-2013	sub2342	2342	  2	  1	 53	  1	  1	  3	  2	  3	  1	  2	  0	0.50994	  0	0.90000	  0	 13	 42	 43	  0	
09-May-2013	sub2342	2342	  2	  1	 54	  1	  1	  4	  3	  6	  0	  2	  0	0.69150	  1	0.90000	  0	 14	 34	 49	  0	
09-May-2013	sub2342	2342	  2	  1	 55	  1	  1	  1	  1	  3	  1	  2	  0	0.76983	  0	0.90000	  0	 11	 40	 41	  0	
09-May-2013	sub2342	2342	  2	  1	 56	  1	  1	  4	  3	  6	  1	  2	  1	0.73942	  1	0.90000	  0	 14	 32	 33	  0	
09-May-2013	sub2342	2342	  2	  1	 57	  1	  1	  5	  6	  5	  1	  2	  0	0.61101	  0	0.90000	  0	 15	 45	 46	  0	
09-May-2013	sub2342	2342	  2	  1	 58	  1	  1	  2	  5	  2	  1	  2	  1	0.14718	  1	0.90000	  0	 12	 30	 31	  1	
09-May-2013	sub2342	2342	  2	  1	 59	  1	  1	  2	  5	  2	  1	  2	  1	1.67463	  1	0.90000	  1	 12	 30	 51	  0	
09-May-2013	sub2342	2342	  2	  1	 60	  1	  1	  2	  5	  2	  1	  2	  1	0.90498	  1	0.90000	  1	 12	 30	 51	  0	
09-May-2013	sub2342	2342	  2	  1	 61	  1	  1	  2	  5	  2	  1	  2	  1	1.67104	  1	0.90000	  1	 12	 30	 51	  0	
09-May-2013	sub2342	2342	  2	  1	 62	  1	  1	  6	  4	  2	  0	  1	  1	0.59332	  0	0.90000	  0	 16	 47	 38	  0	
09-May-2013	sub2342	2342	  2	  1	 63	  1	  1	  3	  2	  3	  1	  2	  0	0.50961	  0	0.90000	  0	 13	 42	 43	  0	
09-May-2013	sub2342	2342	  2	  1	 64	  1	  1	  5	  6	  5	  0	  2	  1	1.37174	  0	0.90000	  1	 15	 47	 51	  0	
09-May-2013	sub2342	2342	  2	  1	 65	  1	  1	  2	  5	  2	  1	  2	  1	0.76178	  1	0.90000	  0	 12	 30	 31	  0	
09-May-2013	sub2342	2342	  2	  1	 66	  1	  1	  1	  1	  3	  1	  2	  0	0.40747	  0	0.90000	  0	 11	 40	 41	  1	
09-May-2013	sub2342	2342	  2	  1	 67	  1	  1	  5	  6	  5	  0	  2	  1	0.21040	  0	0.90000	  0	 15	 47	 38	  1	
09-May-2013	sub2342	2342	  2	  1	 68	  1	  1	  5	  6	  5	  1	  2	  0	0.71763	  0	0.90000	  0	 15	 45	 46	  0	
09-May-2013	sub2342	2342	  2	  1	 69	  1	  1	  2	  5	  2	  1	  2	  1	0.40480	  1	0.90000	  0	 12	 30	 31	  1	
09-May-2013	sub2342	2342	  2	  1	 70	  1	  1	  2	  5	  2	  1	  1	  0	0.92422	  0	0.90000	  1	 12	 40	 51	  0	
09-May-2013	sub2342	2342	  2	  1	 71	  1	  1	  5	  6	  5	  0	  2	  1	0.33584	  0	0.90000	  0	 15	 47	 38	  1	
09-May-2013	sub2342	2342	  2	  1	 72	  1	  1	  2	  5	  2	  1	  2	  1	0.51187	  1	0.90000	  0	 12	 30	 31	  0	
09-May-2013	sub2342	2342	  2	  1	 73	  1	  1	  3	  2	  3	  1	  2	  0	0.58620	  0	0.90000	  0	 13	 42	 43	  0	
09-May-2013	sub2342	2342	  2	  1	 74	  1	  1	  1	  1	  3	  1	  2	  0	0.68470	  0	0.90000	  0	 11	 40	 41	  0	
09-May-2013	sub2342	2342	  2	  1	 75	  1	  1	  3	  2	  3	  1	  2	  0	0.40596	  0	0.90000	  0	 13	 42	 43	  1	
09-May-2013	sub2342	2342	  2	  1	  1	  2	  1	  2	  2	  5	  1	  1	  0	1.43931	  0	0.60000	  1	 12	 40	 51	  0	
09-May-2013	sub2342	2342	  2	  1	  2	  2	  1	  2	  2	  5	  1	  2	  1	0.88435	  1	0.90000	  0	 12	 30	 31	  0	
09-May-2013	sub2342	2342	  2	  1	  3	  2	  1	  3	  6	  4	  0	  2	  1	0.52486	  0	0.90000	  0	 13	 44	 39	  0	
09-May-2013	sub2342	2342	  2	  1	  4	  2	  1	  5	  1	  5	  0	  1	  0	0.00017	  1	0.90000	  0	 15	 37	 48	  1	
09-May-2013	sub2342	2342	  2	  1	  5	  2	  1	  2	  2	  5	  1	  2	  1	0.56635	  1	0.90000	  0	 12	 30	 31	  0	
09-May-2013	sub2342	2342	  2	  1	  6	  2	  1	  3	  6	  4	  1	  1	  1	0.00009	  1	0.90000	  0	 13	 32	 33	  1	
09-May-2013	sub2342	2342	  2	  1	  7	  2	  1	  6	  4	  1	  0	  2	  0	0.49045	  1	0.90000	  0	 16	 37	 48	  1	
09-May-2013	sub2342	2342	  2	  1	  8	  2	  1	  5	  1	  5	  0	  2	  1	0.22858	  0	0.90000	  0	 15	 47	 38	  1	
09-May-2013	sub2342	2342	  2	  1	  9	  2	  1	  6	  4	  1	  1	  2	  1	0.35762	  1	0.90000	  0	 16	 35	 36	  1	
09-May-2013	sub2342	2342	  2	  1	 10	  2	  1	  5	  1	  5	  0	  2	  1	0.21190	  0	0.90000	  0	 15	 47	 38	  1	
09-May-2013	sub2342	2342	  2	  1	 11	  2	  1	  3	  6	  4	  1	  2	  0	0.00015	  0	0.90000	  0	 13	 42	 43	  1	
09-May-2013	sub2342	2342	  2	  1	 12	  2	  1	  6	  4	  1	  1	  2	  1	0.00015	  1	0.90000	  0	 16	 35	 36	  1	
09-May-2013	sub2342	2342	  2	  1	 13	  2	  1	  2	  2	  5	  1	  2	  1	1.56039	  1	0.90000	  1	 12	 30	 51	  0	
09-May-2013	sub2342	2342	  2	  1	 14	  2	  1	  2	  2	  5	  1	  2	  1	0.54443	  1	0.90000	  0	 12	 30	 31	  0	
09-May-2013	sub2342	2342	  2	  1	 15	  2	  1	  3	  6	  4	  1	  2	  0	0.36279	  0	0.90000	  0	 13	 42	 43	  1	
09-May-2013	sub2342	2342	  2	  1	 16	  2	  1	  4	  3	  1	  1	  2	  1	0.46653	  1	0.90000	  0	 14	 32	 33	  1	
09-May-2013	sub2342	2342	  2	  1	 17	  2	  1	  3	  6	  4	  0	  2	  1	0.18885	  0	0.90000	  0	 13	 44	 39	  1	
09-May-2013	sub2342	2342	  2	  1	 18	  2	  1	  4	  3	  1	  1	  2	  1	0.58675	  1	0.90000	  0	 14	 32	 33	  0	
09-May-2013	sub2342	2342	  2	  1	 19	  2	  1	  6	  4	  1	  0	  2	  0	0.44288	  1	0.90000	  0	 16	 37	 48	  1	
09-May-2013	sub2342	2342	  2	  1	 20	  2	  1	  2	  2	  5	  1	  2	  1	0.56459	  1	0.90000	  0	 12	 30	 31	  0	
09-May-2013	sub2342	2342	  2	  1	 21	  2	  1	  6	  4	  1	  1	  2	  1	0.56700	  1	0.90000	  0	 16	 35	 36	  0	
09-May-2013	sub2342	2342	  2	  1	 22	  2	  1	  6	  4	  1	  0	  2	  0	0.20566	  1	0.90000	  0	 16	 37	 48	  1	
09-May-2013	sub2342	2342	  2	  1	 23	  2	  1	  5	  1	  5	  1	  2	  0	0.80661	  0	0.90000	  0	 15	 45	 46	  0	
09-May-2013	sub2342	2342	  2	  1	 24	  2	  1	  1	  5	  1	  1	  2	  0	0.80817	  0	0.90000	  0	 11	 40	 41	  0	
09-May-2013	sub2342	2342	  2	  1	 25	  2	  1	  5	  1	  5	  1	  2	  0	0.77982	  0	0.90000	  0	 15	 45	 46	  0	
09-May-2013	sub2342	2342	  2	  1	 26	  2	  1	  4	  3	  1	  1	  2	  1	0.57207	  1	0.90000	  0	 14	 32	 33	  0	
09-May-2013	sub2342	2342	  2	  1	 27	  2	  1	  5	  1	  5	  1	  1	  1	0.52652	  1	0.90000	  0	 15	 35	 36	  0	
09-May-2013	sub2342	2342	  2	  1	 28	  2	  1	  4	  3	  1	  0	  2	  0	0.53740	  1	0.90000	  0	 14	 34	 49	  0	
09-May-2013	sub2342	2342	  2	  1	 29	  2	  1	  4	  3	  1	  0	  2	  0	0.44890	  1	0.90000	  0	 14	 34	 49	  1	
09-May-2013	sub2342	2342	  2	  1	 30	  2	  1	  4	  3	  1	  1	  1	  0	0.64710	  0	0.80000	  0	 14	 42	 43	  0	
09-May-2013	sub2342	2342	  2	  1	 31	  2	  1	  3	  6	  4	  1	  2	  0	0.49978	  0	0.80000	  0	 13	 42	 43	  1	
09-May-2013	sub2342	2342	  2	  1	 32	  2	  1	  6	  4	  1	  1	  2	  1	0.68322	  1	0.80000	  0	 16	 35	 36	  0	
09-May-2013	sub2342	2342	  2	  1	 33	  2	  1	  4	  3	  1	  1	  1	  0	0.32190	  0	0.80000	  0	 14	 42	 43	  1	
09-May-2013	sub2342	2342	  2	  1	 34	  2	  1	  6	  4	  1	  0	  2	  0	0.49048	  1	0.80000	  0	 16	 37	 48	  1	
09-May-2013	sub2342	2342	  2	  1	 35	  2	  1	  1	  5	  1	  1	  2	  0	0.57496	  0	0.70000	  0	 11	 40	 41	  0	
09-May-2013	sub2342	2342	  2	  1	 36	  2	  1	  2	  2	  5	  1	  2	  1	0.55891	  1	0.70000	  0	 12	 30	 31	  0	
09-May-2013	sub2342	2342	  2	  1	 37	  2	  1	  3	  6	  4	  1	  2	  0	0.60602	  0	0.70000	  0	 13	 42	 43	  0	
09-May-2013	sub2342	2342	  2	  1	 38	  2	  1	  5	  1	  5	  0	  2	  1	0.45551	  0	0.70000	  0	 15	 47	 38	  1	
09-May-2013	sub2342	2342	  2	  1	 39	  2	  1	  2	  2	  5	  1	  2	  1	0.41613	  1	0.70000	  0	 12	 30	 31	  1	
09-May-2013	sub2342	2342	  2	  1	 40	  2	  1	  3	  6	  4	  1	  2	  0	0.43237	  0	0.70000	  0	 13	 42	 43	  1	
09-May-2013	sub2342	2342	  2	  1	 41	  2	  1	  1	  5	  1	  1	  2	  0	0.61783	  0	0.60000	  1	 11	 40	 51	  0	
09-May-2013	sub2342	2342	  2	  1	 42	  2	  1	  2	  2	  5	  1	  2	  1	0.52217	  1	0.90000	  0	 12	 30	 31	  0	
09-May-2013	sub2342	2342	  2	  1	 43	  2	  1	  2	  2	  5	  1	  2	  1	0.40425	  1	0.90000	  0	 12	 30	 31	  1	
09-May-2013	sub2342	2342	  2	  1	 44	  2	  1	  3	  6	  4	  1	  2	  0	0.44003	  0	0.80000	  0	 13	 42	 43	  1	
09-May-2013	sub2342	2342	  2	  1	 45	  2	  1	  5	  1	  5	  0	  2	  1	0.93098	  0	0.80000	  1	 15	 47	 51	  0	
09-May-2013	sub2342	2342	  2	  1	 46	  2	  1	  5	  1	  5	  0	  2	  1	0.93635	  0	0.90000	  1	 15	 47	 51	  0	
09-May-2013	sub2342	2342	  2	  1	 47	  2	  1	  2	  2	  5	  1	  2	  1	0.76231	  1	0.90000	  0	 12	 30	 31	  0	
09-May-2013	sub2342	2342	  2	  1	 48	  2	  1	  4	  3	  1	  1	  1	  0	0.78434	  0	0.90000	  0	 14	 42	 43	  0	
09-May-2013	sub2342	2342	  2	  1	 49	  2	  1	  1	  5	  1	  1	  2	  0	0.50143	  0	0.90000	  0	 11	 40	 41	  0	
09-May-2013	sub2342	2342	  2	  1	 50	  2	  1	  1	  5	  1	  1	  2	  0	0.72963	  0	0.90000	  0	 11	 40	 41	  0	
09-May-2013	sub2342	2342	  2	  1	 51	  2	  1	  2	  2	  5	  1	  2	  1	0.58259	  1	0.90000	  0	 12	 30	 31	  0	
09-May-2013	sub2342	2342	  2	  1	 52	  2	  1	  3	  6	  4	  1	  1	  1	0.87512	  1	0.90000	  0	 13	 32	 33	  0	
09-May-2013	sub2342	2342	  2	  1	 53	  2	  1	  5	  1	  5	  1	  2	  0	0.44033	  0	0.90000	  0	 15	 45	 46	  1	
09-May-2013	sub2342	2342	  2	  1	 54	  2	  1	  3	  6	  4	  1	  2	  0	0.44964	  0	0.90000	  0	 13	 42	 43	  1	
09-May-2013	sub2342	2342	  2	  1	 55	  2	  1	  1	  5	  1	  1	  2	  0	0.42985	  0	0.90000	  0	 11	 40	 41	  1	
09-May-2013	sub2342	2342	  2	  1	 56	  2	  1	  1	  5	  1	  1	  2	  0	0.47514	  0	0.90000	  0	 11	 40	 41	  1	
09-May-2013	sub2342	2342	  2	  1	 57	  2	  1	  4	  3	  1	  1	  1	  0	0.54888	  0	0.90000	  0	 14	 42	 43	  0	
09-May-2013	sub2342	2342	  2	  1	 58	  2	  1	  3	  6	  4	  0	  2	  1	0.44446	  0	0.90000	  0	 13	 44	 39	  1	
09-May-2013	sub2342	2342	  2	  1	 59	  2	  1	  6	  4	  1	  0	  2	  0	0.53151	  1	0.90000	  0	 16	 37	 48	  0	
09-May-2013	sub2342	2342	  2	  1	 60	  2	  1	  1	  5	  1	  1	  2	  0	0.55116	  0	0.90000	  0	 11	 40	 41	  0	
09-May-2013	sub2342	2342	  2	  1	 61	  2	  1	  4	  3	  1	  1	  2	  1	0.58326	  1	0.90000	  0	 14	 32	 33	  0	
09-May-2013	sub2342	2342	  2	  1	 62	  2	  1	  2	  2	  5	  1	  2	  1	0.48565	  1	0.90000	  0	 12	 30	 31	  1	
09-May-2013	sub2342	2342	  2	  1	 63	  2	  1	  1	  5	  1	  1	  2	  0	0.45496	  0	0.90000	  0	 11	 40	 41	  1	
09-May-2013	sub2342	2342	  2	  1	 64	  2	  1	  1	  5	  1	  1	  2	  0	1.87834	  0	0.90000	  1	 11	 40	 51	  0	
09-May-2013	sub2342	2342	  2	  1	 65	  2	  1	  1	  5	  1	  1	  2	  0	0.50325	  0	0.90000	  0	 11	 40	 41	  0	
09-May-2013	sub2342	2342	  2	  1	 66	  2	  1	  6	  4	  1	  0	  2	  0	0.49193	  1	0.90000	  0	 16	 37	 48	  1	
09-May-2013	sub2342	2342	  2	  1	 67	  2	  1	  4	  3	  1	  1	  2	  1	0.41636	  1	0.90000	  0	 14	 32	 33	  1	
09-May-2013	sub2342	2342	  2	  1	 68	  2	  1	  3	  6	  4	  1	  2	  0	0.35776	  0	0.90000	  0	 13	 42	 43	  1	
09-May-2013	sub2342	2342	  2	  1	 69	  2	  1	  4	  3	  1	  1	  2	  1	0.00096	  1	0.90000	  0	 14	 32	 33	  1	
09-May-2013	sub2342	2342	  2	  1	 70	  2	  1	  6	  4	  1	  1	  2	  1	0.44180	  1	0.90000	  0	 16	 35	 36	  1	
09-May-2013	sub2342	2342	  2	  1	 71	  2	  1	  6	  4	  1	  1	  2	  1	0.42354	  1	0.90000	  0	 16	 35	 36	  1	
09-May-2013	sub2342	2342	  2	  1	 72	  2	  1	  5	  1	  5	  1	  2	  0	0.67070	  0	0.90000	  0	 15	 45	 46	  0	
09-May-2013	sub2342	2342	  2	  1	 73	  2	  1	  1	  5	  1	  1	  2	  0	0.54759	  0	0.90000	  0	 11	 40	 41	  0	
09-May-2013	sub2342	2342	  2	  1	 74	  2	  1	  6	  4	  1	  0	  2	  0	0.56784	  1	0.90000	  0	 16	 37	 48	  0	
09-May-2013	sub2342	2342	  2	  1	 75	  2	  1	  5	  1	  5	  1	  2	  0	0.14783	  0	0.90000	  0	 15	 45	 46	  1	
09-May-2013	sub2342	2342	  2	  1	 76	  2	  2	  2	  2	  5	  1	  2	  1	0.19674	  1	0.90000	  0	 22	 60	 61	  1	
09-May-2013	sub2342	2342	  2	  1	 77	  2	  2	  2	  2	  5	  1	  2	  1	0.43727	  1	0.90000	  0	 22	 60	 61	  1	
09-May-2013	sub2342	2342	  2	  1	 78	  2	  2	  4	  3	  1	  1	  2	  1	0.02392	  1	0.90000	  0	 24	 62	 63	  1	
09-May-2013	sub2342	2342	  2	  1	 79	  2	  2	  1	  5	  1	  1	  2	  0	0.51102	  0	0.90000	  0	 21	 80	 81	  0	
09-May-2013	sub2342	2342	  2	  1	 80	  2	  2	  3	  6	  4	  1	  2	  0	0.53986	  0	0.90000	  0	 23	 82	 83	  0	
09-May-2013	sub2342	2342	  2	  1	 81	  2	  2	  5	  1	  5	  0	  2	  1	2.02713	  0	0.90000	  1	 25	 87	 51	  0	
09-May-2013	sub2342	2342	  2	  1	 82	  2	  2	  1	  5	  1	  1	  2	  0	0.45234	  0	0.90000	  0	 21	 80	 81	  1	
09-May-2013	sub2342	2342	  2	  1	 83	  2	  2	  2	  2	  5	  1	  2	  1	0.39240	  1	0.90000	  0	 22	 60	 61	  1	
09-May-2013	sub2342	2342	  2	  1	 84	  2	  2	  2	  2	  5	  1	  2	  1	0.42957	  1	0.90000	  0	 22	 60	 61	  1	
09-May-2013	sub2342	2342	  2	  1	 85	  2	  2	  3	  6	  4	  1	  2	  0	0.19964	  0	0.90000	  0	 23	 82	 83	  1	
09-May-2013	sub2342	2342	  2	  1	 86	  2	  2	  3	  6	  4	  1	  2	  0	0.64392	  0	0.90000	  0	 23	 82	 83	  0	
09-May-2013	sub2342	2342	  2	  1	 87	  2	  2	  1	  5	  1	  1	  2	  0	0.00009	  0	0.90000	  0	 21	 80	 81	  1	
09-May-2013	sub2342	2342	  2	  1	 88	  2	  2	  2	  2	  5	  1	  2	  1	0.02180	  1	0.90000	  0	 22	 60	 61	  1	
09-May-2013	sub2342	2342	  2	  1	 89	  2	  2	  2	  2	  5	  1	  2	  1	0.53886	  1	0.90000	  0	 22	 60	 61	  0	
09-May-2013	sub2342	2342	  2	  1	 90	  2	  2	  4	  3	  1	  1	  1	  0	0.65463	  0	0.90000	  0	 24	 82	 83	  0	
09-May-2013	sub2342	2342	  2	  1	 91	  2	  2	  2	  2	  5	  1	  2	  1	0.39254	  1	0.90000	  0	 22	 60	 61	  1	
09-May-2013	sub2342	2342	  2	  1	 92	  2	  2	  6	  4	  1	  1	  2	  1	0.41924	  1	0.90000	  0	 26	 65	 66	  1	
09-May-2013	sub2342	2342	  2	  1	 93	  2	  2	  2	  2	  5	  1	  2	  1	0.48776	  1	0.90000	  0	 22	 60	 61	  1	
09-May-2013	sub2342	2342	  2	  1	 94	  2	  2	  6	  4	  1	  0	  2	  0	0.47935	  1	0.90000	  0	 26	 67	 88	  1	
09-May-2013	sub2342	2342	  2	  1	 95	  2	  2	  2	  2	  5	  1	  2	  1	0.48068	  1	0.90000	  0	 22	 60	 61	  1	
09-May-2013	sub2342	2342	  2	  1	 96	  2	  2	  4	  3	  1	  1	  1	  0	0.65022	  0	0.90000	  0	 24	 82	 83	  0	
09-May-2013	sub2342	2342	  2	  1	 97	  2	  2	  1	  5	  1	  1	  2	  0	0.50484	  0	0.90000	  0	 21	 80	 81	  0	
09-May-2013	sub2342	2342	  2	  1	 98	  2	  2	  1	  5	  1	  1	  2	  0	0.47902	  0	0.90000	  0	 21	 80	 81	  1	
09-May-2013	sub2342	2342	  2	  1	 99	  2	  2	  5	  1	  5	  0	  2	  1	0.56835	  0	0.90000	  0	 25	 87	 68	  0	
09-May-2013	sub2342	2342	  2	  1	100	  2	  2	  1	  5	  1	  1	  2	  0	0.50148	  0	0.90000	  0	 21	 80	 81	  0	
09-May-2013	sub2342	2342	  2	  1	101	  2	  2	  5	  1	  5	  0	  1	  0	0.96149	  1	0.80000	  1	 25	 67	 51	  0	
09-May-2013	sub2342	2342	  2	  1	102	  2	  2	  3	  6	  4	  1	  2	  0	0.22106	  0	0.90000	  0	 23	 82	 83	  1	
09-May-2013	sub2342	2342	  2	  1	103	  2	  2	  4	  3	  1	  1	  2	  1	0.48909	  1	0.90000	  0	 24	 62	 63	  1	
09-May-2013	sub2342	2342	  2	  1	104	  2	  2	  6	  4	  1	  0	  2	  0	0.48836	  1	0.90000	  0	 26	 67	 88	  1	
09-May-2013	sub2342	2342	  2	  1	105	  2	  2	  4	  3	  1	  0	  2	  0	0.06866	  1	0.90000	  0	 24	 64	 89	  1	
09-May-2013	sub2342	2342	  2	  1	106	  2	  2	  3	  6	  4	  1	  2	  0	0.46399	  0	0.90000	  0	 23	 82	 83	  1	
09-May-2013	sub2342	2342	  2	  1	107	  2	  2	  1	  5	  1	  1	  2	  0	0.44963	  0	0.90000	  0	 21	 80	 81	  1	
09-May-2013	sub2342	2342	  2	  1	108	  2	  2	  5	  1	  5	  0	  2	  1	0.46621	  0	0.90000	  0	 25	 87	 68	  1	
09-May-2013	sub2342	2342	  2	  1	109	  2	  2	  3	  6	  4	  0	  2	  1	0.46164	  0	0.90000	  0	 23	 84	 69	  1	
09-May-2013	sub2342	2342	  2	  1	110	  2	  2	  5	  1	  5	  0	  2	  1	0.41399	  0	0.90000	  0	 25	 87	 68	  1	
09-May-2013	sub2342	2342	  2	  1	111	  2	  2	  3	  6	  4	  1	  2	  0	0.05458	  0	0.90000	  0	 23	 82	 83	  1	
09-May-2013	sub2342	2342	  2	  1	112	  2	  2	  2	  2	  5	  1	  2	  1	0.61039	  1	0.90000	  0	 22	 60	 61	  0	
09-May-2013	sub2342	2342	  2	  1	113	  2	  2	  6	  4	  1	  1	  2	  1	0.51667	  1	0.90000	  0	 26	 65	 66	  0	
09-May-2013	sub2342	2342	  2	  1	114	  2	  2	  4	  3	  1	  1	  2	  1	0.41706	  1	0.90000	  0	 24	 62	 63	  1	
09-May-2013	sub2342	2342	  2	  1	115	  2	  2	  4	  3	  1	  0	  2	  0	0.48293	  1	0.90000	  0	 24	 64	 89	  1	
09-May-2013	sub2342	2342	  2	  1	116	  2	  2	  5	  1	  5	  0	  2	  1	0.56789	  0	0.80000	  0	 25	 87	 68	  0	
09-May-2013	sub2342	2342	  2	  1	117	  2	  2	  5	  1	  5	  0	  2	  1	0.45667	  0	0.80000	  0	 25	 87	 68	  1	
09-May-2013	sub2342	2342	  2	  1	118	  2	  2	  5	  1	  5	  0	  2	  1	0.29164	  0	0.80000	  0	 25	 87	 68	  1	
09-May-2013	sub2342	2342	  2	  1	119	  2	  2	  3	  6	  4	  1	  2	  0	0.60225	  0	0.80000	  0	 23	 82	 83	  0	
09-May-2013	sub2342	2342	  2	  1	120	  2	  2	  6	  4	  1	  0	  2	  0	0.67007	  1	0.80000	  0	 26	 67	 88	  0	
09-May-2013	sub2342	2342	  2	  1	121	  2	  2	  6	  4	  1	  1	  2	  1	0.72484	  1	0.80000	  0	 26	 65	 66	  0	
09-May-2013	sub2342	2342	  2	  1	122	  2	  2	  6	  4	  1	  0	  2	  0	0.55730	  1	0.80000	  0	 26	 67	 88	  0	
09-May-2013	sub2342	2342	  2	  1	123	  2	  2	  6	  4	  1	  0	  1	  1	0.95899	  0	0.80000	  1	 26	 87	 51	  0	
09-May-2013	sub2342	2342	  2	  1	124	  2	  2	  6	  4	  1	  0	  1	  1	0.59356	  0	0.90000	  0	 26	 87	 68	  0	
09-May-2013	sub2342	2342	  2	  1	125	  2	  2	  6	  4	  1	  1	  1	  0	0.66889	  0	0.90000	  0	 26	 85	 86	  0	
09-May-2013	sub2342	2342	  2	  1	126	  2	  2	  4	  3	  1	  0	  2	  0	1.08288	  1	0.90000	  1	 24	 64	 51	  0	
09-May-2013	sub2342	2342	  2	  1	127	  2	  2	  1	  5	  1	  1	  2	  0	0.62479	  0	0.90000	  0	 21	 80	 81	  0	
09-May-2013	sub2342	2342	  2	  1	128	  2	  2	  4	  3	  1	  1	  2	  1	0.20669	  1	0.90000	  0	 24	 62	 63	  1	
09-May-2013	sub2342	2342	  2	  1	129	  2	  2	  5	  1	  5	  0	  2	  1	0.42077	  0	0.90000	  0	 25	 87	 68	  1	
09-May-2013	sub2342	2342	  2	  1	130	  2	  2	  3	  6	  4	  1	  2	  0	0.39189	  0	0.90000	  0	 23	 82	 83	  1	
09-May-2013	sub2342	2342	  2	  1	131	  2	  2	  4	  3	  1	  1	  2	  1	0.11707	  1	0.90000	  0	 24	 62	 63	  1	
09-May-2013	sub2342	2342	  2	  1	132	  2	  2	  5	  1	  5	  0	  2	  1	0.54190	  0	0.90000	  0	 25	 87	 68	  0	
09-May-2013	sub2342	2342	  2	  1	133	  2	  2	  4	  3	  1	  1	  2	  1	0.45954	  1	0.90000	  0	 24	 62	 63	  1	
09-May-2013	sub2342	2342	  2	  1	134	  2	  2	  6	  4	  1	  1	  2	  1	0.47329	  1	0.90000	  0	 26	 65	 66	  1	
09-May-2013	sub2342	2342	  2	  1	135	  2	  2	  5	  1	  5	  0	  2	  1	0.43862	  0	0.90000	  0	 25	 87	 68	  1	
09-May-2013	sub2342	2342	  2	  1	136	  2	  2	  1	  5	  1	  1	  2	  0	0.26818	  0	0.90000	  0	 21	 80	 81	  1	
09-May-2013	sub2342	2342	  2	  1	137	  2	  2	  3	  6	  4	  1	  2	  0	0.44255	  0	0.90000	  0	 23	 82	 83	  1	
09-May-2013	sub2342	2342	  2	  1	138	  2	  2	  2	  2	  5	  1	  2	  1	0.36527	  1	0.90000	  0	 22	 60	 61	  1	
09-May-2013	sub2342	2342	  2	  1	139	  2	  2	  2	  2	  5	  1	  2	  1	0.78837	  1	0.90000	  0	 22	 60	 61	  0	
09-May-2013	sub2342	2342	  2	  1	140	  2	  2	  5	  1	  5	  0	  2	  1	0.38380	  0	0.90000	  0	 25	 87	 68	  1	
09-May-2013	sub2342	2342	  2	  1	141	  2	  2	  1	  5	  1	  1	  2	  0	0.27408	  0	0.90000	  0	 21	 80	 81	  1	
09-May-2013	sub2342	2342	  2	  1	142	  2	  2	  3	  6	  4	  1	  2	  0	3.42168	  0	0.90000	  1	 23	 82	 51	  0	
09-May-2013	sub2342	2342	  2	  1	143	  2	  2	  1	  5	  1	  1	  2	  0	0.64147	  0	0.90000	  0	 21	 80	 81	  0	
09-May-2013	sub2342	2342	  2	  1	144	  2	  2	  5	  1	  5	  0	  2	  1	0.25814	  0	0.90000	  0	 25	 87	 68	  1	
09-May-2013	sub2342	2342	  2	  1	145	  2	  2	  3	  6	  4	  0	  2	  1	0.55098	  0	0.90000	  0	 23	 84	 69	  0	
09-May-2013	sub2342	2342	  2	  1	146	  2	  2	  1	  5	  1	  1	  2	  0	0.40468	  0	0.90000	  0	 21	 80	 81	  1	
09-May-2013	sub2342	2342	  2	  1	147	  2	  2	  6	  4	  1	  1	  2	  1	0.43044	  1	0.90000	  0	 26	 65	 66	  1	
09-May-2013	sub2342	2342	  2	  1	148	  2	  2	  4	  3	  1	  1	  2	  1	0.59449	  1	0.90000	  0	 24	 62	 63	  0	
09-May-2013	sub2342	2342	  2	  1	149	  2	  2	  4	  3	  1	  1	  2	  1	0.34274	  1	0.90000	  0	 24	 62	 63	  1	
09-May-2013	sub2342	2342	  2	  1	150	  2	  2	  1	  5	  1	  1	  2	  0	0.40336	  0	0.90000	  0	 21	 80	 81	  1	
09-May-2013	sub2342	2342	  2	  1	  1	  3	  1	  6	  2	  2	  0	  2	  0	0.57107	  1	0.60000	  0	 16	 37	 48	  0	
09-May-2013	sub2342	2342	  2	  1	  2	  3	  1	  6	  2	  2	  1	  2	  1	0.12849	  1	0.30000	  0	 16	 35	 36	  1	
09-May-2013	sub2342	2342	  2	  1	  3	  3	  1	  2	  3	  3	  1	  2	  1	0.44977	  1	0.30000	  1	 12	 30	 51	  1	
09-May-2013	sub2342	2342	  2	  1	  4	  3	  1	  4	  5	  4	  1	  2	  1	0.53002	  1	0.90000	  0	 14	 32	 33	  0	
09-May-2013	sub2342	2342	  2	  1	  5	  3	  1	  1	  4	  4	  1	  2	  0	0.50684	  0	0.90000	  0	 11	 40	 41	  0	
09-May-2013	sub2342	2342	  2	  1	  6	  3	  1	  6	  2	  2	  0	  2	  0	0.68006	  1	0.90000	  0	 16	 37	 48	  0	
09-May-2013	sub2342	2342	  2	  1	  7	  3	  1	  1	  4	  4	  1	  2	  0	0.66973	  0	0.90000	  0	 11	 40	 41	  0	
09-May-2013	sub2342	2342	  2	  1	  8	  3	  1	  1	  4	  4	  1	  1	  1	0.85993	  1	0.90000	  0	 11	 30	 31	  0	
09-May-2013	sub2342	2342	  2	  1	  9	  3	  1	  5	  6	  3	  0	  1	  0	0.79253	  1	0.90000	  0	 15	 37	 48	  0	
09-May-2013	sub2342	2342	  2	  1	 10	  3	  1	  1	  4	  4	  1	  1	  1	0.66491	  1	0.90000	  0	 11	 30	 31	  0	
09-May-2013	sub2342	2342	  2	  1	 11	  3	  1	  2	  3	  3	  1	  1	  0	0.58004	  0	0.90000	  0	 12	 40	 41	  0	
09-May-2013	sub2342	2342	  2	  1	 12	  3	  1	  3	  1	  6	  1	  1	  1	0.66979	  1	0.90000	  0	 13	 32	 33	  0	
09-May-2013	sub2342	2342	  2	  1	 13	  3	  1	  5	  6	  3	  0	  1	  0	0.54819	  1	0.90000	  0	 15	 37	 48	  0	
09-May-2013	sub2342	2342	  2	  1	 14	  3	  1	  1	  4	  4	  1	  1	  1	0.50863	  1	0.90000	  0	 11	 30	 31	  0	
09-May-2013	sub2342	2342	  2	  1	 15	  3	  1	  6	  2	  2	  1	  2	  1	0.49135	  1	0.90000	  0	 16	 35	 36	  1	
09-May-2013	sub2342	2342	  2	  1	 16	  3	  1	  5	  6	  3	  0	  1	  0	0.54377	  1	0.80000	  0	 15	 37	 48	  0	
09-May-2013	sub2342	2342	  2	  1	 17	  3	  1	  4	  5	  4	  1	  2	  1	0.43587	  1	0.80000	  0	 14	 32	 33	  1	
09-May-2013	sub2342	2342	  2	  1	 18	  3	  1	  2	  3	  3	  1	  2	  1	0.61682	  1	0.70000	  0	 12	 30	 31	  0	
09-May-2013	sub2342	2342	  2	  1	 19	  3	  1	  2	  3	  3	  1	  2	  1	0.55843	  1	0.70000	  0	 12	 30	 31	  0	
09-May-2013	sub2342	2342	  2	  1	 20	  3	  1	  3	  1	  6	  1	  2	  0	0.65584	  0	0.70000	  0	 13	 42	 43	  0	
09-May-2013	sub2342	2342	  2	  1	 21	  3	  1	  6	  2	  2	  0	  2	  0	0.49857	  1	0.60000	  0	 16	 37	 48	  1	
09-May-2013	sub2342	2342	  2	  1	 22	  3	  1	  6	  2	  2	  1	  1	  0	0.52053	  0	0.60000	  0	 16	 45	 46	  0	
09-May-2013	sub2342	2342	  2	  1	 23	  3	  1	  1	  4	  4	  1	  2	  0	0.68884	  0	0.60000	  1	 11	 40	 51	  0	
09-May-2013	sub2342	2342	  2	  1	 24	  3	  1	  4	  5	  4	  1	  2	  1	0.66919	  1	0.90000	  0	 14	 32	 33	  0	
09-May-2013	sub2342	2342	  2	  1	 25	  3	  1	  2	  3	  3	  1	  1	  0	1.21894	  0	0.90000	  1	 12	 40	 51	  0	
09-May-2013	sub2342	2342	  2	  1	 26	  3	  1	  2	  3	  3	  1	  2	  1	0.60108	  1	0.90000	  0	 12	 30	 31	  0	
09-May-2013	sub2342	2342	  2	  1	 27	  3	  1	  4	  5	  4	  1	  2	  1	0.49665	  1	0.90000	  0	 14	 32	 33	  1	
09-May-2013	sub2342	2342	  2	  1	 28	  3	  1	  3	  1	  6	  1	  2	  0	0.46200	  0	0.90000	  0	 13	 42	 43	  1	
09-May-2013	sub2342	2342	  2	  1	 29	  3	  1	  5	  6	  3	  1	  2	  0	0.61026	  0	0.90000	  0	 15	 45	 46	  0	
09-May-2013	sub2342	2342	  2	  1	 30	  3	  1	  4	  5	  4	  0	  1	  1	0.58925	  0	0.90000	  0	 14	 44	 39	  0	
09-May-2013	sub2342	2342	  2	  1	 31	  3	  1	  3	  1	  6	  1	  2	  0	0.59059	  0	0.90000	  0	 13	 42	 43	  0	
09-May-2013	sub2342	2342	  2	  1	 32	  3	  1	  5	  6	  3	  1	  1	  1	0.52683	  1	0.90000	  0	 15	 35	 36	  0	
09-May-2013	sub2342	2342	  2	  1	 33	  3	  1	  1	  4	  4	  1	  2	  0	0.52674	  0	0.90000	  0	 11	 40	 41	  0	
09-May-2013	sub2342	2342	  2	  1	 34	  3	  1	  5	  6	  3	  1	  1	  1	0.45573	  1	0.90000	  0	 15	 35	 36	  1	
09-May-2013	sub2342	2342	  2	  1	 35	  3	  1	  5	  6	  3	  1	  1	  1	0.65264	  1	0.90000	  0	 15	 35	 36	  0	
09-May-2013	sub2342	2342	  2	  1	 36	  3	  1	  5	  6	  3	  1	  1	  1	0.47016	  1	0.90000	  0	 15	 35	 36	  1	
09-May-2013	sub2342	2342	  2	  1	 37	  3	  1	  5	  6	  3	  0	  1	  0	0.45663	  1	0.90000	  0	 15	 37	 48	  1	
09-May-2013	sub2342	2342	  2	  1	 38	  3	  1	  2	  3	  3	  1	  2	  1	0.58417	  1	0.90000	  0	 12	 30	 31	  0	
09-May-2013	sub2342	2342	  2	  1	 39	  3	  1	  6	  2	  2	  1	  2	  1	0.78479	  1	0.90000	  0	 16	 35	 36	  0	
09-May-2013	sub2342	2342	  2	  1	 40	  3	  1	  3	  1	  6	  1	  1	  1	0.70231	  1	0.90000	  0	 13	 32	 33	  0	
09-May-2013	sub2342	2342	  2	  1	 41	  3	  1	  2	  3	  3	  1	  2	  1	0.60390	  1	0.90000	  0	 12	 30	 31	  0	
09-May-2013	sub2342	2342	  2	  1	 42	  3	  1	  1	  4	  4	  1	  1	  1	0.60037	  1	0.90000	  0	 11	 30	 31	  0	
09-May-2013	sub2342	2342	  2	  1	 43	  3	  1	  1	  4	  4	  1	  1	  1	0.48556	  1	0.90000	  0	 11	 30	 31	  1	
09-May-2013	sub2342	2342	  2	  1	 44	  3	  1	  3	  1	  6	  0	  2	  1	0.60121	  0	0.80000	  0	 13	 44	 39	  0	
09-May-2013	sub2342	2342	  2	  1	 45	  3	  1	  1	  4	  4	  1	  1	  1	0.67448	  1	0.80000	  0	 11	 30	 31	  0	
09-May-2013	sub2342	2342	  2	  1	 46	  3	  1	  3	  1	  6	  1	  1	  1	0.68218	  1	0.80000	  0	 13	 32	 33	  0	
09-May-2013	sub2342	2342	  2	  1	 47	  3	  1	  1	  4	  4	  1	  1	  1	0.53147	  1	0.80000	  0	 11	 30	 31	  0	
09-May-2013	sub2342	2342	  2	  1	 48	  3	  1	  4	  5	  4	  1	  1	  0	0.45606	  0	0.80000	  0	 14	 42	 43	  1	
09-May-2013	sub2342	2342	  2	  1	 49	  3	  1	  6	  2	  2	  0	  1	  1	0.52642	  0	0.80000	  0	 16	 47	 38	  0	
09-May-2013	sub2342	2342	  2	  1	 50	  3	  1	  6	  2	  2	  1	  1	  0	0.43168	  0	0.80000	  0	 16	 45	 46	  1	
09-May-2013	sub2342	2342	  2	  1	 51	  3	  1	  4	  5	  4	  1	  1	  0	0.61728	  0	0.70000	  0	 14	 42	 43	  0	
09-May-2013	sub2342	2342	  2	  1	 52	  3	  1	  6	  2	  2	  0	  1	  1	0.59608	  0	0.70000	  0	 16	 47	 38	  0	
09-May-2013	sub2342	2342	  2	  1	 53	  3	  1	  3	  1	  6	  0	  1	  0	0.47075	  1	0.70000	  0	 13	 34	 49	  1	
09-May-2013	sub2342	2342	  2	  1	 54	  3	  1	  3	  1	  6	  1	  1	  1	0.37654	  1	0.70000	  0	 13	 32	 33	  1	
09-May-2013	sub2342	2342	  2	  1	 55	  3	  1	  2	  3	  3	  1	  2	  1	0.74993	  1	0.70000	  1	 12	 30	 51	  0	
09-May-2013	sub2342	2342	  2	  1	 56	  3	  1	  5	  6	  3	  0	  1	  0	0.57241	  1	0.90000	  0	 15	 37	 48	  0	
09-May-2013	sub2342	2342	  2	  1	 57	  3	  1	  6	  2	  2	  1	  2	  1	0.55112	  1	0.90000	  0	 16	 35	 36	  0	
09-May-2013	sub2342	2342	  2	  1	 58	  3	  1	  3	  1	  6	  1	  1	  1	0.70662	  1	0.90000	  0	 13	 32	 33	  0	
09-May-2013	sub2342	2342	  2	  1	 59	  3	  1	  4	  5	  4	  1	  1	  0	0.73792	  0	0.80000	  0	 14	 42	 43	  0	
09-May-2013	sub2342	2342	  2	  1	 60	  3	  1	  1	  4	  4	  1	  1	  1	0.56869	  1	0.80000	  0	 11	 30	 31	  0	
09-May-2013	sub2342	2342	  2	  1	 61	  3	  1	  5	  6	  3	  1	  2	  0	0.81581	  0	0.80000	  1	 15	 45	 51	  0	
09-May-2013	sub2342	2342	  2	  1	 62	  3	  1	  4	  5	  4	  1	  2	  1	0.55419	  1	0.90000	  0	 14	 32	 33	  0	
09-May-2013	sub2342	2342	  2	  1	 63	  3	  1	  2	  3	  3	  1	  2	  1	0.63932	  1	0.90000	  0	 12	 30	 31	  0	
09-May-2013	sub2342	2342	  2	  1	 64	  3	  1	  6	  2	  2	  0	  2	  0	0.65649	  1	0.90000	  0	 16	 37	 48	  0	
09-May-2013	sub2342	2342	  2	  1	 65	  3	  1	  2	  3	  3	  1	  2	  1	0.72794	  1	0.90000	  0	 12	 30	 31	  0	
09-May-2013	sub2342	2342	  2	  1	 66	  3	  1	  2	  3	  3	  1	  2	  1	3.71404	  1	0.90000	  1	 12	 30	 51	  0	
09-May-2013	sub2342	2342	  2	  1	 67	  3	  1	  4	  5	  4	  1	  2	  1	0.67918	  1	0.90000	  0	 14	 32	 33	  0	
09-May-2013	sub2342	2342	  2	  1	 68	  3	  1	  4	  5	  4	  1	  2	  1	0.61107	  1	0.90000	  0	 14	 32	 33	  0	
09-May-2013	sub2342	2342	  2	  1	 69	  3	  1	  4	  5	  4	  0	  2	  0	0.52062	  1	0.90000	  0	 14	 34	 49	  0	
09-May-2013	sub2342	2342	  2	  1	 70	  3	  1	  6	  2	  2	  1	  2	  1	0.54304	  1	0.90000	  0	 16	 35	 36	  0	
09-May-2013	sub2342	2342	  2	  1	 71	  3	  1	  3	  1	  6	  1	  2	  0	0.86171	  0	0.90000	  0	 13	 42	 43	  0	
09-May-2013	sub2342	2342	  2	  1	 72	  3	  1	  3	  1	  6	  1	  2	  0	0.47463	  0	0.90000	  0	 13	 42	 43	  1	
09-May-2013	sub2342	2342	  2	  1	 73	  3	  1	  3	  1	  6	  0	  1	  0	0.55677	  1	0.90000	  0	 13	 34	 49	  0	
09-May-2013	sub2342	2342	  2	  1	 74	  3	  1	  5	  6	  3	  0	  2	  1	0.73761	  0	0.90000	  0	 15	 47	 38	  0	
09-May-2013	sub2342	2342	  2	  1	 75	  3	  1	  2	  3	  3	  1	  1	  0	0.62417	  0	0.90000	  0	 12	 40	 41	  0	
09-May-2013	sub2342	2342	  2	  1	 76	  3	  2	  2	  3	  3	  1	  2	  1	0.48779	  1	0.90000	  0	 22	 60	 61	  1	
09-May-2013	sub2342	2342	  2	  1	 77	  3	  2	  4	  5	  4	  1	  2	  1	0.58391	  1	0.90000	  0	 24	 62	 63	  0	
09-May-2013	sub2342	2342	  2	  1	 78	  3	  2	  6	  2	  2	  1	  2	  1	0.54236	  1	0.90000	  0	 26	 65	 66	  0	
09-May-2013	sub2342	2342	  2	  1	 79	  3	  2	  1	  4	  4	  1	  2	  0	0.55762	  0	0.90000	  0	 21	 80	 81	  0	
09-May-2013	sub2342	2342	  2	  1	 80	  3	  2	  1	  4	  4	  1	  2	  0	0.65567	  0	0.90000	  0	 21	 80	 81	  0	
09-May-2013	sub2342	2342	  2	  1	 81	  3	  2	  2	  3	  3	  1	  2	  1	0.66248	  1	0.90000	  0	 22	 60	 61	  0	
09-May-2013	sub2342	2342	  2	  1	 82	  3	  2	  4	  5	  4	  0	  1	  1	0.67267	  0	0.90000	  0	 24	 84	 69	  0	
09-May-2013	sub2342	2342	  2	  1	 83	  3	  2	  2	  3	  3	  1	  2	  1	0.61982	  1	0.90000	  0	 22	 60	 61	  0	
09-May-2013	sub2342	2342	  2	  1	 84	  3	  2	  6	  2	  2	  0	  1	  1	0.45791	  0	0.90000	  0	 26	 87	 68	  1	
09-May-2013	sub2342	2342	  2	  1	 85	  3	  2	  1	  4	  4	  1	  2	  0	0.57462	  0	0.90000	  0	 21	 80	 81	  0	
09-May-2013	sub2342	2342	  2	  1	 86	  3	  2	  1	  4	  4	  1	  1	  1	0.58883	  1	0.90000	  0	 21	 60	 61	  0	
09-May-2013	sub2342	2342	  2	  1	 87	  3	  2	  1	  4	  4	  1	  1	  1	0.70127	  1	0.80000	  0	 21	 60	 61	  0	
09-May-2013	sub2342	2342	  2	  1	 88	  3	  2	  5	  6	  3	  0	  2	  1	0.73649	  0	0.80000	  0	 25	 87	 68	  0	
09-May-2013	sub2342	2342	  2	  1	 89	  3	  2	  6	  2	  2	  1	  2	  1	0.86150	  1	0.80000	  1	 26	 65	 51	  0	
09-May-2013	sub2342	2342	  2	  1	 90	  3	  2	  4	  5	  4	  1	  1	  0	0.67704	  0	0.90000	  0	 24	 82	 83	  0	
09-May-2013	sub2342	2342	  2	  1	 91	  3	  2	  5	  6	  3	  0	  2	  1	0.64397	  0	0.90000	  0	 25	 87	 68	  0	
09-May-2013	sub2342	2342	  2	  1	 92	  3	  2	  3	  1	  6	  1	  1	  1	0.60705	  1	0.90000	  0	 23	 62	 63	  0	
09-May-2013	sub2342	2342	  2	  1	 93	  3	  2	  3	  1	  6	  0	  2	  1	0.49908	  0	0.90000	  0	 23	 84	 69	  1	
09-May-2013	sub2342	2342	  2	  1	 94	  3	  2	  2	  3	  3	  1	  1	  0	0.52986	  0	0.90000	  0	 22	 80	 81	  0	
09-May-2013	sub2342	2342	  2	  1	 95	  3	  2	  5	  6	  3	  0	  2	  1	0.50742	  0	0.90000	  0	 25	 87	 68	  0	
09-May-2013	sub2342	2342	  2	  1	 96	  3	  2	  6	  2	  2	  1	  2	  1	0.58850	  1	0.90000	  0	 26	 65	 66	  0	
09-May-2013	sub2342	2342	  2	  1	 97	  3	  2	  5	  6	  3	  0	  2	  1	0.62381	  0	0.90000	  0	 25	 87	 68	  0	
09-May-2013	sub2342	2342	  2	  1	 98	  3	  2	  3	  1	  6	  1	  1	  1	0.65562	  1	0.90000	  0	 23	 62	 63	  0	
09-May-2013	sub2342	2342	  2	  1	 99	  3	  2	  5	  6	  3	  0	  2	  1	0.72944	  0	0.90000	  0	 25	 87	 68	  0	
09-May-2013	sub2342	2342	  2	  1	100	  3	  2	  6	  2	  2	  0	  2	  0	0.70492	  1	0.90000	  0	 26	 67	 88	  0	
09-May-2013	sub2342	2342	  2	  1	101	  3	  2	  3	  1	  6	  1	  1	  1	0.50446	  1	0.80000	  0	 23	 62	 63	  0	
09-May-2013	sub2342	2342	  2	  1	102	  3	  2	  1	  4	  4	  1	  1	  1	0.54950	  1	0.80000	  0	 21	 60	 61	  0	
09-May-2013	sub2342	2342	  2	  1	103	  3	  2	  2	  3	  3	  1	  2	  1	0.76344	  1	0.80000	  0	 22	 60	 61	  0	
09-May-2013	sub2342	2342	  2	  1	104	  3	  2	  1	  4	  4	  1	  1	  1	0.57451	  1	0.80000	  0	 21	 60	 61	  0	
09-May-2013	sub2342	2342	  2	  1	105	  3	  2	  3	  1	  6	  1	  1	  1	0.54851	  1	0.80000	  0	 23	 62	 63	  0	
09-May-2013	sub2342	2342	  2	  1	106	  3	  2	  4	  5	  4	  1	  1	  0	0.41422	  0	0.80000	  0	 24	 82	 83	  1	
09-May-2013	sub2342	2342	  2	  1	107	  3	  2	  4	  5	  4	  1	  1	  0	0.96836	  0	0.80000	  1	 24	 82	 51	  0	
09-May-2013	sub2342	2342	  2	  1	108	  3	  2	  6	  2	  2	  0	  2	  0	0.80287	  1	0.90000	  0	 26	 67	 88	  0	
09-May-2013	sub2342	2342	  2	  1	109	  3	  2	  5	  6	  3	  0	  1	  0	0.71378	  1	0.90000	  0	 25	 67	 88	  0	
09-May-2013	sub2342	2342	  2	  1	110	  3	  2	  5	  6	  3	  0	  2	  1	0.55080	  0	0.90000	  0	 25	 87	 68	  0	
09-May-2013	sub2342	2342	  2	  1	111	  3	  2	  6	  2	  2	  1	  2	  1	0.59081	  1	0.90000	  0	 26	 65	 66	  0	
09-May-2013	sub2342	2342	  2	  1	112	  3	  2	  1	  4	  4	  1	  2	  0	0.37192	  0	0.90000	  0	 21	 80	 81	  1	
09-May-2013	sub2342	2342	  2	  1	113	  3	  2	  4	  5	  4	  1	  1	  0	0.62177	  0	0.90000	  0	 24	 82	 83	  0	
09-May-2013	sub2342	2342	  2	  1	114	  3	  2	  1	  4	  4	  1	  1	  1	0.44002	  1	0.90000	  0	 21	 60	 61	  1	
09-May-2013	sub2342	2342	  2	  1	115	  3	  2	  4	  5	  4	  1	  1	  0	0.58812	  0	0.90000	  0	 24	 82	 83	  0	
09-May-2013	sub2342	2342	  2	  1	116	  3	  2	  3	  1	  6	  0	  2	  1	0.44307	  0	0.80000	  0	 23	 84	 69	  1	
09-May-2013	sub2342	2342	  2	  1	117	  3	  2	  6	  2	  2	  1	  1	  0	0.45947	  0	0.80000	  0	 26	 85	 86	  1	
09-May-2013	sub2342	2342	  2	  1	118	  3	  2	  6	  2	  2	  0	  2	  0	0.51185	  1	0.80000	  0	 26	 67	 88	  0	
09-May-2013	sub2342	2342	  2	  1	119	  3	  2	  3	  1	  6	  1	  1	  1	0.59205	  1	0.80000	  0	 23	 62	 63	  0	
09-May-2013	sub2342	2342	  2	  1	120	  3	  2	  2	  3	  3	  1	  1	  0	0.59418	  0	0.80000	  0	 22	 80	 81	  0	
09-May-2013	sub2342	2342	  2	  1	121	  3	  2	  3	  1	  6	  1	  1	  1	0.59600	  1	0.80000	  0	 23	 62	 63	  0	
09-May-2013	sub2342	2342	  2	  1	122	  3	  2	  2	  3	  3	  1	  2	  1	0.60232	  1	0.80000	  0	 22	 60	 61	  0	
09-May-2013	sub2342	2342	  2	  1	123	  3	  2	  1	  4	  4	  1	  1	  1	0.50130	  1	0.80000	  0	 21	 60	 61	  0	
09-May-2013	sub2342	2342	  2	  1	124	  3	  2	  6	  2	  2	  0	  2	  0	0.51711	  1	0.80000	  0	 26	 67	 88	  0	
09-May-2013	sub2342	2342	  2	  1	125	  3	  2	  2	  3	  3	  1	  1	  0	0.44457	  0	0.80000	  0	 22	 80	 81	  1	
09-May-2013	sub2342	2342	  2	  1	126	  3	  2	  1	  4	  4	  1	  1	  1	0.70015	  1	0.80000	  0	 21	 60	 61	  0	
09-May-2013	sub2342	2342	  2	  1	127	  3	  2	  2	  3	  3	  1	  2	  1	0.42432	  1	0.80000	  0	 22	 60	 61	  1	
09-May-2013	sub2342	2342	  2	  1	128	  3	  2	  6	  2	  2	  1	  2	  1	0.50208	  1	0.80000	  0	 26	 65	 66	  0	
09-May-2013	sub2342	2342	  2	  1	129	  3	  2	  3	  1	  6	  1	  1	  1	0.56212	  1	0.80000	  0	 23	 62	 63	  0	
09-May-2013	sub2342	2342	  2	  1	130	  3	  2	  2	  3	  3	  1	  2	  1	0.54340	  1	0.80000	  0	 22	 60	 61	  0	
09-May-2013	sub2342	2342	  2	  1	131	  3	  2	  5	  6	  3	  0	  2	  1	0.82232	  0	0.80000	  1	 25	 87	 51	  0	
09-May-2013	sub2342	2342	  2	  1	132	  3	  2	  5	  6	  3	  0	  2	  1	0.72369	  0	0.80000	  0	 25	 87	 68	  0	
09-May-2013	sub2342	2342	  2	  1	133	  3	  2	  4	  5	  4	  1	  1	  0	0.75661	  0	0.80000	  0	 24	 82	 83	  0	
09-May-2013	sub2342	2342	  2	  1	134	  3	  2	  1	  4	  4	  1	  1	  1	0.52014	  1	0.80000	  0	 21	 60	 61	  0	
09-May-2013	sub2342	2342	  2	  1	135	  3	  2	  5	  6	  3	  0	  2	  1	0.81868	  0	0.80000	  1	 25	 87	 51	  0	
09-May-2013	sub2342	2342	  2	  1	136	  3	  2	  4	  5	  4	  1	  1	  0	0.54199	  0	0.90000	  0	 24	 82	 83	  0	
09-May-2013	sub2342	2342	  2	  1	137	  3	  2	  6	  2	  2	  0	  2	  0	0.68059	  1	0.90000	  0	 26	 67	 88	  0	
09-May-2013	sub2342	2342	  2	  1	138	  3	  2	  5	  6	  3	  0	  2	  1	0.76699	  0	0.90000	  0	 25	 87	 68	  0	
09-May-2013	sub2342	2342	  2	  1	139	  3	  2	  3	  1	  6	  1	  1	  1	0.92437	  1	0.90000	  1	 23	 62	 51	  0	
09-May-2013	sub2342	2342	  2	  1	140	  3	  2	  4	  5	  4	  1	  1	  0	0.75745	  0	0.90000	  0	 24	 82	 83	  0	
09-May-2013	sub2342	2342	  2	  1	141	  3	  2	  2	  3	  3	  1	  2	  1	0.62178	  1	0.90000	  0	 22	 60	 61	  0	
09-May-2013	sub2342	2342	  2	  1	142	  3	  2	  1	  4	  4	  1	  1	  1	0.56432	  1	0.90000	  0	 21	 60	 61	  0	
09-May-2013	sub2342	2342	  2	  1	143	  3	  2	  4	  5	  4	  0	  1	  1	0.71008	  0	0.90000	  0	 24	 84	 69	  0	
09-May-2013	sub2342	2342	  2	  1	144	  3	  2	  4	  5	  4	  0	  2	  0	0.76206	  1	0.90000	  0	 24	 64	 89	  0	
09-May-2013	sub2342	2342	  2	  1	145	  3	  2	  4	  5	  4	  1	  2	  1	0.67611	  1	0.90000	  0	 24	 62	 63	  0	
09-May-2013	sub2342	2342	  2	  1	146	  3	  2	  3	  1	  6	  1	  1	  1	0.53053	  1	0.90000	  0	 23	 62	 63	  0	
09-May-2013	sub2342	2342	  2	  1	147	  3	  2	  5	  6	  3	  0	  2	  1	0.43595	  0	0.90000	  0	 25	 87	 68	  1	
09-May-2013	sub2342	2342	  2	  1	148	  3	  2	  5	  6	  3	  0	  2	  1	0.55642	  0	0.90000	  0	 25	 87	 68	  0	
09-May-2013	sub2342	2342	  2	  1	149	  3	  2	  3	  1	  6	  1	  2	  0	0.46429	  0	0.90000	  0	 23	 82	 83	  1	
09-May-2013	sub2342	2342	  2	  1	150	  3	  2	  2	  3	  3	  1	  2	  1	0.59063	  1	0.90000	  0	 22	 60	 61	  0	
09-May-2013	sub2342	2342	  2	  1	  1	  4	  1	  3	  6	  6	  1	  2	  0	0.67013	  0	0.60000	  1	 13	 42	 51	  0	
09-May-2013	sub2342	2342	  2	  1	  2	  4	  1	  6	  2	  6	  0	  2	  0	0.41545	  1	0.90000	  0	 16	 37	 48	  1	
09-May-2013	sub2342	2342	  2	  1	  3	  4	  1	  1	  1	  2	  1	  2	  0	0.40773	  0	0.90000	  0	 11	 40	 41	  1	
09-May-2013	sub2342	2342	  2	  1	  4	  4	  1	  5	  5	  3	  1	  1	  1	0.38033	  1	0.90000	  0	 15	 35	 36	  1	
09-May-2013	sub2342	2342	  2	  1	  5	  4	  1	  5	  5	  3	  0	  1	  0	0.65521	  1	0.90000	  0	 15	 37	 48	  0	
09-May-2013	sub2342	2342	  2	  1	  6	  4	  1	  6	  2	  6	  0	  2	  0	0.54977	  1	0.90000	  0	 16	 37	 48	  0	
09-May-2013	sub2342	2342	  2	  1	  7	  4	  1	  1	  1	  2	  1	  1	  1	0.41717	  1	0.90000	  0	 11	 30	 31	  1	
09-May-2013	sub2342	2342	  2	  1	  8	  4	  1	  1	  1	  2	  1	  1	  1	0.42049	  1	0.90000	  0	 11	 30	 31	  1	
09-May-2013	sub2342	2342	  2	  1	  9	  4	  1	  6	  2	  6	  0	  1	  1	0.46683	  0	0.90000	  0	 16	 47	 38	  1	
09-May-2013	sub2342	2342	  2	  1	 10	  4	  1	  4	  4	  3	  1	  1	  0	0.51086	  0	0.90000	  0	 14	 42	 43	  0	
09-May-2013	sub2342	2342	  2	  1	 11	  4	  1	  4	  4	  3	  0	  1	  1	0.50919	  0	0.90000	  0	 14	 44	 39	  0	
09-May-2013	sub2342	2342	  2	  1	 12	  4	  1	  4	  4	  3	  1	  1	  0	0.49953	  0	0.90000	  0	 14	 42	 43	  1	
09-May-2013	sub2342	2342	  2	  1	 13	  4	  1	  6	  2	  6	  1	  1	  0	0.90498	  0	0.90000	  1	 16	 45	 51	  0	
09-May-2013	sub2342	2342	  2	  1	 14	  4	  1	  2	  3	  4	  1	  1	  0	0.53975	  0	0.90000	  0	 12	 40	 41	  0	
09-May-2013	sub2342	2342	  2	  1	 15	  4	  1	  6	  2	  6	  0	  1	  1	0.64775	  0	0.90000	  0	 16	 47	 38	  0	
09-May-2013	sub2342	2342	  2	  1	 16	  4	  1	  5	  5	  3	  0	  1	  0	0.85903	  1	0.90000	  0	 15	 37	 48	  0	
09-May-2013	sub2342	2342	  2	  1	 17	  4	  1	  4	  4	  3	  1	  1	  0	0.72879	  0	0.90000	  0	 14	 42	 43	  0	
09-May-2013	sub2342	2342	  2	  1	 18	  4	  1	  4	  4	  3	  1	  2	  1	0.59849	  1	0.90000	  0	 14	 32	 33	  0	
09-May-2013	sub2342	2342	  2	  1	 19	  4	  1	  1	  1	  2	  1	  1	  1	0.52737	  1	0.90000	  0	 11	 30	 31	  0	
09-May-2013	sub2342	2342	  2	  1	 20	  4	  1	  5	  5	  3	  1	  1	  1	0.65349	  1	0.90000	  0	 15	 35	 36	  0	
09-May-2013	sub2342	2342	  2	  1	 21	  4	  1	  5	  5	  3	  0	  1	  0	0.48751	  1	0.90000	  0	 15	 37	 48	  1	
09-May-2013	sub2342	2342	  2	  1	 22	  4	  1	  1	  1	  2	  1	  2	  0	0.73659	  0	0.90000	  0	 11	 40	 41	  0	
09-May-2013	sub2342	2342	  2	  1	 23	  4	  1	  2	  3	  4	  1	  1	  0	0.45235	  0	0.90000	  0	 12	 40	 41	  1	
09-May-2013	sub2342	2342	  2	  1	 24	  4	  1	  4	  4	  3	  1	  2	  1	0.59607	  1	0.90000	  0	 14	 32	 33	  0	
09-May-2013	sub2342	2342	  2	  1	 25	  4	  1	  2	  3	  4	  1	  1	  0	0.68317	  0	0.90000	  0	 12	 40	 41	  0	
09-May-2013	sub2342	2342	  2	  1	 26	  4	  1	  4	  4	  3	  0	  2	  0	0.69952	  1	0.90000	  0	 14	 34	 49	  0	
09-May-2013	sub2342	2342	  2	  1	 27	  4	  1	  5	  5	  3	  1	  1	  1	0.58000	  1	0.90000	  0	 15	 35	 36	  0	
09-May-2013	sub2342	2342	  2	  1	 28	  4	  1	  1	  1	  2	  1	  2	  0	0.65473	  0	0.90000	  0	 11	 40	 41	  0	
09-May-2013	sub2342	2342	  2	  1	 29	  4	  1	  6	  2	  6	  0	  1	  1	0.43268	  0	0.90000	  0	 16	 47	 38	  1	
09-May-2013	sub2342	2342	  2	  1	 30	  4	  1	  5	  5	  3	  1	  1	  1	0.52782	  1	0.80000	  0	 15	 35	 36	  0	
09-May-2013	sub2342	2342	  2	  1	 31	  4	  1	  3	  6	  6	  0	  1	  0	0.44917	  1	0.80000	  0	 13	 34	 49	  1	
09-May-2013	sub2342	2342	  2	  1	 32	  4	  1	  5	  5	  3	  1	  2	  0	0.31720	  0	0.80000	  0	 15	 45	 46	  1	
09-May-2013	sub2342	2342	  2	  1	 33	  4	  1	  4	  4	  3	  1	  1	  0	0.44761	  0	0.80000	  0	 14	 42	 43	  1	
09-May-2013	sub2342	2342	  2	  1	 34	  4	  1	  6	  2	  6	  0	  2	  0	0.48913	  1	0.80000	  0	 16	 37	 48	  1	
09-May-2013	sub2342	2342	  2	  1	 35	  4	  1	  2	  3	  4	  1	  2	  1	0.49141	  1	0.70000	  0	 12	 30	 31	  1	
09-May-2013	sub2342	2342	  2	  1	 36	  4	  1	  2	  3	  4	  1	  2	  1	0.50369	  1	0.70000	  0	 12	 30	 31	  0	
09-May-2013	sub2342	2342	  2	  1	 37	  4	  1	  3	  6	  6	  1	  2	  0	0.55958	  0	0.70000	  0	 13	 42	 43	  0	
09-May-2013	sub2342	2342	  2	  1	 38	  4	  1	  2	  3	  4	  1	  2	  1	0.70757	  1	0.70000	  1	 12	 30	 51	  0	
09-May-2013	sub2342	2342	  2	  1	 39	  4	  1	  6	  2	  6	  1	  2	  1	0.47458	  1	0.90000	  0	 16	 35	 36	  1	
09-May-2013	sub2342	2342	  2	  1	 40	  4	  1	  3	  6	  6	  1	  2	  0	0.55074	  0	0.90000	  0	 13	 42	 43	  0	
09-May-2013	sub2342	2342	  2	  1	 41	  4	  1	  1	  1	  2	  1	  1	  1	0.55727	  1	0.90000	  0	 11	 30	 31	  0	
09-May-2013	sub2342	2342	  2	  1	 42	  4	  1	  5	  5	  3	  0	  1	  0	0.68016	  1	0.90000	  0	 15	 37	 48	  0	
09-May-2013	sub2342	2342	  2	  1	 43	  4	  1	  4	  4	  3	  1	  2	  1	0.84927	  1	0.90000	  0	 14	 32	 33	  0	
09-May-2013	sub2342	2342	  2	  1	 44	  4	  1	  3	  6	  6	  1	  1	  1	0.45788	  1	0.80000	  0	 13	 32	 33	  1	
09-May-2013	sub2342	2342	  2	  1	 45	  4	  1	  3	  6	  6	  0	  1	  0	0.48810	  1	0.80000	  0	 13	 34	 49	  1	
09-May-2013	sub2342	2342	  2	  1	 46	  4	  1	  2	  3	  4	  1	  2	  1	0.56376	  1	0.80000	  0	 12	 30	 31	  0	
09-May-2013	sub2342	2342	  2	  1	 47	  4	  1	  3	  6	  6	  0	  1	  0	0.64640	  1	0.80000	  0	 13	 34	 49	  0	
09-May-2013	sub2342	2342	  2	  1	 48	  4	  1	  5	  5	  3	  0	  2	  1	0.88639	  0	0.80000	  1	 15	 47	 51	  0	
09-May-2013	sub2342	2342	  2	  1	 49	  4	  1	  3	  6	  6	  1	  1	  1	0.89456	  1	0.90000	  0	 13	 32	 33	  0	
09-May-2013	sub2342	2342	  2	  1	 50	  4	  1	  2	  3	  4	  1	  2	  1	0.67099	  1	0.90000	  0	 12	 30	 31	  0	
09-May-2013	sub2342	2342	  2	  1	 51	  4	  1	  3	  6	  6	  1	  2	  0	0.58278	  0	0.90000	  0	 13	 42	 43	  0	
09-May-2013	sub2342	2342	  2	  1	 52	  4	  1	  6	  2	  6	  1	  1	  0	0.42174	  0	0.90000	  0	 16	 45	 46	  1	
09-May-2013	sub2342	2342	  2	  1	 53	  4	  1	  4	  4	  3	  1	  2	  1	0.52451	  1	0.90000	  0	 14	 32	 33	  0	
09-May-2013	sub2342	2342	  2	  1	 54	  4	  1	  3	  6	  6	  1	  1	  1	0.46706	  1	0.90000	  0	 13	 32	 33	  1	
09-May-2013	sub2342	2342	  2	  1	 55	  4	  1	  1	  1	  2	  1	  2	  0	0.00033	  0	0.90000	  0	 11	 40	 41	  1	
09-May-2013	sub2342	2342	  2	  1	 56	  4	  1	  6	  2	  6	  1	  2	  1	0.77630	  1	0.90000	  0	 16	 35	 36	  0	
09-May-2013	sub2342	2342	  2	  1	 57	  4	  1	  2	  3	  4	  1	  2	  1	0.62540	  1	0.90000	  0	 12	 30	 31	  0	
09-May-2013	sub2342	2342	  2	  1	 58	  4	  1	  6	  2	  6	  0	  1	  1	0.00009	  0	0.90000	  0	 16	 47	 38	  1	
09-May-2013	sub2342	2342	  2	  1	 59	  4	  1	  6	  2	  6	  1	  1	  0	0.53249	  0	0.80000	  0	 16	 45	 46	  0	
09-May-2013	sub2342	2342	  2	  1	 60	  4	  1	  2	  3	  4	  1	  2	  1	0.49581	  1	0.80000	  0	 12	 30	 31	  1	
09-May-2013	sub2342	2342	  2	  1	 61	  4	  1	  4	  4	  3	  1	  1	  0	0.43809	  0	0.80000	  0	 14	 42	 43	  1	
09-May-2013	sub2342	2342	  2	  1	 62	  4	  1	  5	  5	  3	  1	  2	  0	0.48883	  0	0.80000	  0	 15	 45	 46	  1	
09-May-2013	sub2342	2342	  2	  1	 63	  4	  1	  1	  1	  2	  1	  1	  1	0.00009	  1	0.80000	  0	 11	 30	 31	  1	
09-May-2013	sub2342	2342	  2	  1	 64	  4	  1	  6	  2	  6	  1	  1	  0	0.42189	  0	0.80000	  0	 16	 45	 46	  1	
09-May-2013	sub2342	2342	  2	  1	 65	  4	  1	  1	  1	  2	  1	  2	  0	0.72022	  0	0.80000	  0	 11	 40	 41	  0	
09-May-2013	sub2342	2342	  2	  1	 66	  4	  1	  4	  4	  3	  1	  1	  0	0.40240	  0	0.80000	  0	 14	 42	 43	  1	
09-May-2013	sub2342	2342	  2	  1	 67	  4	  1	  3	  6	  6	  1	  1	  1	0.59579	  1	0.80000	  0	 13	 32	 33	  0	
09-May-2013	sub2342	2342	  2	  1	 68	  4	  1	  1	  1	  2	  1	  1	  1	0.50352	  1	0.70000	  0	 11	 30	 31	  0	
09-May-2013	sub2342	2342	  2	  1	 69	  4	  1	  5	  5	  3	  1	  1	  1	0.68967	  1	0.70000	  0	 15	 35	 36	  0	
09-May-2013	sub2342	2342	  2	  1	 70	  4	  1	  2	  3	  4	  1	  1	  0	0.56832	  0	0.70000	  0	 12	 40	 41	  0	
09-May-2013	sub2342	2342	  2	  1	 71	  4	  1	  2	  3	  4	  1	  2	  1	0.47128	  1	0.70000	  0	 12	 30	 31	  1	
09-May-2013	sub2342	2342	  2	  1	 72	  4	  1	  3	  6	  6	  1	  1	  1	0.67439	  1	0.70000	  0	 13	 32	 33	  0	
09-May-2013	sub2342	2342	  2	  1	 73	  4	  1	  2	  3	  4	  1	  2	  1	0.53228	  1	0.70000	  0	 12	 30	 31	  0	
09-May-2013	sub2342	2342	  2	  1	 74	  4	  1	  1	  1	  2	  1	  1	  1	0.66360	  1	0.70000	  0	 11	 30	 31	  0	
09-May-2013	sub2342	2342	  2	  1	 75	  4	  1	  3	  6	  6	  1	  2	  0	0.43961	  0	0.70000	  0	 13	 42	 43	  1	
09-May-2013	sub2342	2342	  2	  1	 76	  4	  2	  6	  2	  6	  1	  1	  0	0.37399	  0	0.70000	  0	 26	 85	 86	  1	
09-May-2013	sub2342	2342	  2	  1	 77	  4	  2	  5	  5	  3	  0	  1	  0	0.46062	  1	0.70000	  0	 25	 67	 88	  1	
09-May-2013	sub2342	2342	  2	  1	 78	  4	  2	  6	  2	  6	  1	  1	  0	0.50946	  0	0.70000	  0	 26	 85	 86	  0	
09-May-2013	sub2342	2342	  2	  1	 79	  4	  2	  3	  6	  6	  1	  2	  0	1.63251	  0	0.70000	  1	 23	 82	 51	  0	
09-May-2013	sub2342	2342	  2	  1	 80	  4	  2	  4	  4	  3	  1	  2	  1	0.00092	  1	0.80000	  0	 24	 62	 63	  1	
09-May-2013	sub2342	2342	  2	  1	 81	  4	  2	  2	  3	  4	  1	  2	  1	0.42411	  1	0.80000	  0	 22	 60	 61	  1	
09-May-2013	sub2342	2342	  2	  1	 82	  4	  2	  4	  4	  3	  0	  2	  0	0.45079	  1	0.80000	  0	 24	 64	 89	  1	
09-May-2013	sub2342	2342	  2	  1	 83	  4	  2	  6	  2	  6	  0	  2	  0	0.55424	  1	0.80000	  0	 26	 67	 88	  0	
09-May-2013	sub2342	2342	  2	  1	 84	  4	  2	  3	  6	  6	  0	  1	  0	0.61464	  1	0.80000	  0	 23	 64	 89	  0	
09-May-2013	sub2342	2342	  2	  1	 85	  4	  2	  3	  6	  6	  0	  1	  0	0.69696	  1	0.70000	  0	 23	 64	 89	  0	
09-May-2013	sub2342	2342	  2	  1	 86	  4	  2	  1	  1	  2	  1	  2	  0	0.51157	  0	0.70000	  0	 21	 80	 81	  0	
09-May-2013	sub2342	2342	  2	  1	 87	  4	  2	  3	  6	  6	  1	  1	  1	0.53383	  1	0.70000	  0	 23	 62	 63	  0	
09-May-2013	sub2342	2342	  2	  1	 88	  4	  2	  5	  5	  3	  0	  1	  0	0.64796	  1	0.70000	  0	 25	 67	 88	  0	
09-May-2013	sub2342	2342	  2	  1	 89	  4	  2	  1	  1	  2	  1	  1	  1	0.49885	  1	0.70000	  0	 21	 60	 61	  1	
09-May-2013	sub2342	2342	  2	  1	 90	  4	  2	  2	  3	  4	  1	  1	  0	0.57018	  0	0.70000	  0	 22	 80	 81	  0	
09-May-2013	sub2342	2342	  2	  1	 91	  4	  2	  2	  3	  4	  1	  2	  1	0.47261	  1	0.70000	  0	 22	 60	 61	  1	
09-May-2013	sub2342	2342	  2	  1	 92	  4	  2	  5	  5	  3	  0	  1	  0	0.59098	  1	0.70000	  0	 25	 67	 88	  0	
09-May-2013	sub2342	2342	  2	  1	 93	  4	  2	  5	  5	  3	  0	  2	  1	0.58152	  0	0.70000	  0	 25	 87	 68	  0	
09-May-2013	sub2342	2342	  2	  1	 94	  4	  2	  4	  4	  3	  0	  1	  1	0.68640	  0	0.70000	  0	 24	 84	 69	  0	
09-May-2013	sub2342	2342	  2	  1	 95	  4	  2	  2	  3	  4	  1	  2	  1	0.50712	  1	0.70000	  0	 22	 60	 61	  0	
09-May-2013	sub2342	2342	  2	  1	 96	  4	  2	  6	  2	  6	  1	  2	  1	0.85046	  1	0.70000	  1	 26	 65	 51	  0	
09-May-2013	sub2342	2342	  2	  1	 97	  4	  2	  4	  4	  3	  1	  1	  0	0.73759	  0	0.80000	  0	 24	 82	 83	  0	
09-May-2013	sub2342	2342	  2	  1	 98	  4	  2	  1	  1	  2	  1	  2	  0	0.00009	  0	0.80000	  0	 21	 80	 81	  1	
09-May-2013	sub2342	2342	  2	  1	 99	  4	  2	  2	  3	  4	  1	  1	  0	0.50285	  0	0.80000	  0	 22	 80	 81	  0	
09-May-2013	sub2342	2342	  2	  1	100	  4	  2	  6	  2	  6	  0	  2	  0	0.37380	  1	0.80000	  0	 26	 67	 88	  1	
09-May-2013	sub2342	2342	  2	  1	101	  4	  2	  1	  1	  2	  1	  1	  1	0.42588	  1	0.70000	  0	 21	 60	 61	  1	
09-May-2013	sub2342	2342	  2	  1	102	  4	  2	  2	  3	  4	  1	  2	  1	0.57599	  1	0.70000	  0	 22	 60	 61	  0	
09-May-2013	sub2342	2342	  2	  1	103	  4	  2	  2	  3	  4	  1	  2	  1	0.46964	  1	0.70000	  0	 22	 60	 61	  1	
09-May-2013	sub2342	2342	  2	  1	104	  4	  2	  2	  3	  4	  1	  2	  1	0.52205	  1	0.70000	  0	 22	 60	 61	  0	
09-May-2013	sub2342	2342	  2	  1	105	  4	  2	  6	  2	  6	  0	  1	  1	0.53830	  0	0.70000	  0	 26	 87	 68	  0	
09-May-2013	sub2342	2342	  2	  1	106	  4	  2	  4	  4	  3	  1	  2	  1	0.33458	  1	0.70000	  0	 24	 62	 63	  1	
09-May-2013	sub2342	2342	  2	  1	107	  4	  2	  6	  2	  6	  0	  1	  1	0.13539	  0	0.70000	  0	 26	 87	 68	  1	
09-May-2013	sub2342	2342	  2	  1	108	  4	  2	  5	  5	  3	  0	  2	  1	0.60867	  0	0.70000	  0	 25	 87	 68	  0	
09-May-2013	sub2342	2342	  2	  1	109	  4	  2	  3	  6	  6	  1	  2	  0	0.41164	  0	0.70000	  0	 23	 82	 83	  1	
09-May-2013	sub2342	2342	  2	  1	110	  4	  2	  1	  1	  2	  1	  2	  0	0.71040	  0	0.70000	  1	 21	 80	 51	  0	
09-May-2013	sub2342	2342	  2	  1	111	  4	  2	  3	  6	  6	  1	  1	  1	0.66495	  1	0.80000	  0	 23	 62	 63	  0	
09-May-2013	sub2342	2342	  2	  1	112	  4	  2	  1	  1	  2	  1	  2	  0	0.35911	  0	0.80000	  0	 21	 80	 81	  1	
09-May-2013	sub2342	2342	  2	  1	113	  4	  2	  5	  5	  3	  0	  1	  0	0.46851	  1	0.80000	  0	 25	 67	 88	  1	
09-May-2013	sub2342	2342	  2	  1	114	  4	  2	  1	  1	  2	  1	  2	  0	0.48457	  0	0.80000	  0	 21	 80	 81	  1	
09-May-2013	sub2342	2342	  2	  1	115	  4	  2	  1	  1	  2	  1	  1	  1	0.43282	  1	0.80000	  0	 21	 60	 61	  1	
09-May-2013	sub2342	2342	  2	  1	116	  4	  2	  2	  3	  4	  1	  2	  1	0.62926	  1	0.80000	  0	 22	 60	 61	  0	
09-May-2013	sub2342	2342	  2	  1	117	  4	  2	  5	  5	  3	  0	  1	  0	0.65389	  1	0.80000	  0	 25	 67	 88	  0	
09-May-2013	sub2342	2342	  2	  1	118	  4	  2	  1	  1	  2	  1	  2	  0	0.50743	  0	0.70000	  0	 21	 80	 81	  0	
09-May-2013	sub2342	2342	  2	  1	119	  4	  2	  2	  3	  4	  1	  1	  0	0.45841	  0	0.70000	  0	 22	 80	 81	  1	
09-May-2013	sub2342	2342	  2	  1	120	  4	  2	  3	  6	  6	  1	  2	  0	0.48278	  0	0.70000	  0	 23	 82	 83	  1	
09-May-2013	sub2342	2342	  2	  1	121	  4	  2	  1	  1	  2	  1	  1	  1	0.41522	  1	0.70000	  0	 21	 60	 61	  1	
09-May-2013	sub2342	2342	  2	  1	122	  4	  2	  4	  4	  3	  0	  1	  1	0.34937	  0	0.70000	  0	 24	 84	 69	  1	
09-May-2013	sub2342	2342	  2	  1	123	  4	  2	  1	  1	  2	  1	  1	  1	0.66646	  1	0.70000	  0	 21	 60	 61	  0	
09-May-2013	sub2342	2342	  2	  1	124	  4	  2	  2	  3	  4	  1	  1	  0	0.40309	  0	0.70000	  0	 22	 80	 81	  1	
09-May-2013	sub2342	2342	  2	  1	125	  4	  2	  4	  4	  3	  1	  2	  1	0.49063	  1	0.70000	  0	 24	 62	 63	  1	
09-May-2013	sub2342	2342	  2	  1	126	  4	  2	  4	  4	  3	  1	  1	  0	0.20819	  0	0.70000	  0	 24	 82	 83	  1	
09-May-2013	sub2342	2342	  2	  1	127	  4	  2	  4	  4	  3	  1	  1	  0	0.45806	  0	0.70000	  0	 24	 82	 83	  1	
09-May-2013	sub2342	2342	  2	  1	128	  4	  2	  6	  2	  6	  0	  1	  1	0.32297	  0	0.70000	  0	 26	 87	 68	  1	
09-May-2013	sub2342	2342	  2	  1	129	  4	  2	  4	  4	  3	  1	  1	  0	0.51069	  0	0.70000	  0	 24	 82	 83	  0	
09-May-2013	sub2342	2342	  2	  1	130	  4	  2	  3	  6	  6	  1	  2	  0	0.65609	  0	0.70000	  0	 23	 82	 83	  0	
09-May-2013	sub2342	2342	  2	  1	131	  4	  2	  3	  6	  6	  1	  1	  1	0.55487	  1	0.70000	  0	 23	 62	 63	  0	
09-May-2013	sub2342	2342	  2	  1	132	  4	  2	  3	  6	  6	  1	  1	  1	0.00009	  1	0.70000	  0	 23	 62	 63	  1	
09-May-2013	sub2342	2342	  2	  1	133	  4	  2	  5	  5	  3	  0	  1	  0	0.55094	  1	0.70000	  0	 25	 67	 88	  0	
09-May-2013	sub2342	2342	  2	  1	134	  4	  2	  5	  5	  3	  0	  1	  0	0.00009	  1	0.70000	  0	 25	 67	 88	  1	
09-May-2013	sub2342	2342	  2	  1	135	  4	  2	  5	  5	  3	  0	  2	  1	0.52925	  0	0.70000	  0	 25	 87	 68	  0	
09-May-2013	sub2342	2342	  2	  1	136	  4	  2	  1	  1	  2	  1	  1	  1	0.49019	  1	0.70000	  0	 21	 60	 61	  1	
09-May-2013	sub2342	2342	  2	  1	137	  4	  2	  6	  2	  6	  0	  2	  0	0.53207	  1	0.70000	  0	 26	 67	 88	  0	
09-May-2013	sub2342	2342	  2	  1	138	  4	  2	  2	  3	  4	  1	  1	  0	0.44704	  0	0.70000	  0	 22	 80	 81	  1	
09-May-2013	sub2342	2342	  2	  1	139	  4	  2	  6	  2	  6	  1	  2	  1	0.40107	  1	0.70000	  0	 26	 65	 66	  1	
09-May-2013	sub2342	2342	  2	  1	140	  4	  2	  3	  6	  6	  1	  1	  1	0.62377	  1	0.70000	  0	 23	 62	 63	  0	
09-May-2013	sub2342	2342	  2	  1	141	  4	  2	  4	  4	  3	  1	  2	  1	2.44004	  1	0.60000	  1	 24	 62	 51	  0	
09-May-2013	sub2342	2342	  2	  1	142	  4	  2	  4	  4	  3	  1	  2	  1	0.54851	  1	0.70000	  0	 24	 62	 63	  0	
09-May-2013	sub2342	2342	  2	  1	143	  4	  2	  5	  5	  3	  0	  2	  1	0.60213	  0	0.70000	  0	 25	 87	 68	  0	
09-May-2013	sub2342	2342	  2	  1	144	  4	  2	  6	  2	  6	  1	  2	  1	2.49002	  1	0.70000	  1	 26	 65	 51	  0	
09-May-2013	sub2342	2342	  2	  1	145	  4	  2	  4	  4	  3	  1	  2	  1	1.13071	  1	0.80000	  1	 24	 62	 51	  0	
09-May-2013	sub2342	2342	  2	  1	146	  4	  2	  3	  6	  6	  1	  2	  0	0.45539	  0	0.80000	  0	 23	 82	 83	  1	
09-May-2013	sub2342	2342	  2	  1	147	  4	  2	  1	  1	  2	  1	  2	  0	0.27812	  0	0.80000	  0	 21	 80	 81	  1	
09-May-2013	sub2342	2342	  2	  1	148	  4	  2	  5	  5	  3	  0	  1	  0	0.50624	  1	0.80000	  0	 25	 67	 88	  0	
09-May-2013	sub2342	2342	  2	  1	149	  4	  2	  5	  5	  3	  0	  2	  1	0.55042	  0	0.80000	  0	 25	 87	 68	  0	
09-May-2013	sub2342	2342	  2	  1	150	  4	  2	  6	  2	  6	  1	  1	  0	0.00009	  0	0.80000	  0	 26	 85	 86	  1	
09-May-2013	sub2342	2342	  2	  1	  1	  5	  1	  5	  4	  5	  0	  2	  1	0.80081	  0	0.60000	  1	 15	 47	 51	  0	
09-May-2013	sub2342	2342	  2	  1	  2	  5	  1	  6	  6	  2	  0	  2	  0	0.52452	  1	0.90000	  0	 16	 37	 48	  0	
09-May-2013	sub2342	2342	  2	  1	  3	  5	  1	  2	  3	  2	  1	  2	  1	0.47396	  1	0.90000	  0	 12	 30	 31	  1	
09-May-2013	sub2342	2342	  2	  1	  4	  5	  1	  6	  6	  2	  0	  2	  0	0.54427	  1	0.90000	  0	 16	 37	 48	  0	
09-May-2013	sub2342	2342	  2	  1	  5	  5	  1	  3	  1	  1	  1	  2	  0	0.71966	  0	0.90000	  0	 13	 42	 43	  0	
09-May-2013	sub2342	2342	  2	  1	  6	  5	  1	  1	  2	  4	  1	  2	  0	0.52881	  0	0.90000	  0	 11	 40	 41	  0	
09-May-2013	sub2342	2342	  2	  1	  7	  5	  1	  5	  4	  5	  0	  2	  1	0.48503	  0	0.90000	  0	 15	 47	 38	  1	
09-May-2013	sub2342	2342	  2	  1	  8	  5	  1	  1	  2	  4	  1	  2	  0	0.54513	  0	0.90000	  0	 11	 40	 41	  0	
09-May-2013	sub2342	2342	  2	  1	  9	  5	  1	  5	  4	  5	  1	  2	  0	0.62710	  0	0.90000	  0	 15	 45	 46	  0	
09-May-2013	sub2342	2342	  2	  1	 10	  5	  1	  3	  1	  1	  1	  2	  0	0.50794	  0	0.90000	  0	 13	 42	 43	  0	
09-May-2013	sub2342	2342	  2	  1	 11	  5	  1	  2	  3	  2	  1	  2	  1	0.95247	  1	0.90000	  1	 12	 30	 51	  0	
09-May-2013	sub2342	2342	  2	  1	 12	  5	  1	  6	  6	  2	  0	  1	  1	0.37806	  0	0.90000	  0	 16	 47	 38	  1	
09-May-2013	sub2342	2342	  2	  1	 13	  5	  1	  4	  5	  5	  1	  2	  1	0.45314	  1	0.90000	  0	 14	 32	 33	  1	
09-May-2013	sub2342	2342	  2	  1	 14	  5	  1	  1	  2	  4	  1	  2	  0	0.39662	  0	0.90000	  0	 11	 40	 41	  1	
09-May-2013	sub2342	2342	  2	  1	 15	  5	  1	  6	  6	  2	  1	  1	  0	0.52862	  0	0.90000	  0	 16	 45	 46	  0	
09-May-2013	sub2342	2342	  2	  1	 16	  5	  1	  3	  1	  1	  1	  2	  0	0.39598	  0	0.90000	  0	 13	 42	 43	  1	
09-May-2013	sub2342	2342	  2	  1	 17	  5	  1	  4	  5	  5	  1	  1	  0	0.00017	  0	0.90000	  0	 14	 42	 43	  1	
09-May-2013	sub2342	2342	  2	  1	 18	  5	  1	  5	  4	  5	  0	  1	  0	0.79266	  1	0.90000	  0	 15	 37	 48	  0	
09-May-2013	sub2342	2342	  2	  1	 19	  5	  1	  2	  3	  2	  1	  2	  1	0.43148	  1	0.90000	  0	 12	 30	 31	  1	
09-May-2013	sub2342	2342	  2	  1	 20	  5	  1	  6	  6	  2	  0	  2	  0	0.61969	  1	0.90000	  0	 16	 37	 48	  0	
09-May-2013	sub2342	2342	  2	  1	 21	  5	  1	  3	  1	  1	  0	  1	  0	0.75318	  1	0.90000	  0	 13	 34	 49	  0	
09-May-2013	sub2342	2342	  2	  1	 22	  5	  1	  2	  3	  2	  1	  2	  1	0.56721	  1	0.90000	  0	 12	 30	 31	  0	
09-May-2013	sub2342	2342	  2	  1	 23	  5	  1	  3	  1	  1	  0	  2	  1	0.90405	  0	0.90000	  1	 13	 44	 51	  0	
09-May-2013	sub2342	2342	  2	  1	 24	  5	  1	  1	  2	  4	  1	  2	  0	0.69196	  0	0.90000	  0	 11	 40	 41	  0	
09-May-2013	sub2342	2342	  2	  1	 25	  5	  1	  2	  3	  2	  1	  2	  1	0.43138	  1	0.90000	  0	 12	 30	 31	  1	
09-May-2013	sub2342	2342	  2	  1	 26	  5	  1	  1	  2	  4	  1	  1	  1	0.47455	  1	0.90000	  0	 11	 30	 31	  1	
09-May-2013	sub2342	2342	  2	  1	 27	  5	  1	  3	  1	  1	  1	  2	  0	0.56751	  0	0.90000	  0	 13	 42	 43	  0	
09-May-2013	sub2342	2342	  2	  1	 28	  5	  1	  2	  3	  2	  1	  1	  0	0.48223	  0	0.90000	  0	 12	 40	 41	  1	
09-May-2013	sub2342	2342	  2	  1	 29	  5	  1	  6	  6	  2	  1	  2	  1	0.61957	  1	0.90000	  0	 16	 35	 36	  0	
09-May-2013	sub2342	2342	  2	  1	 30	  5	  1	  2	  3	  2	  1	  1	  0	0.50311	  0	0.90000	  0	 12	 40	 41	  0	
09-May-2013	sub2342	2342	  2	  1	 31	  5	  1	  6	  6	  2	  0	  2	  0	0.48147	  1	0.90000	  0	 16	 37	 48	  1	
09-May-2013	sub2342	2342	  2	  1	 32	  5	  1	  5	  4	  5	  1	  2	  0	0.54723	  0	0.90000	  0	 15	 45	 46	  0	
09-May-2013	sub2342	2342	  2	  1	 33	  5	  1	  5	  4	  5	  1	  2	  0	0.63437	  0	0.90000	  0	 15	 45	 46	  0	
09-May-2013	sub2342	2342	  2	  1	 34	  5	  1	  1	  2	  4	  1	  2	  0	0.46220	  0	0.90000	  0	 11	 40	 41	  1	
09-May-2013	sub2342	2342	  2	  1	 35	  5	  1	  6	  6	  2	  1	  2	  1	0.53408	  1	0.90000	  0	 16	 35	 36	  0	
09-May-2013	sub2342	2342	  2	  1	 36	  5	  1	  4	  5	  5	  0	  1	  1	0.40324	  0	0.90000	  0	 14	 44	 39	  1	
09-May-2013	sub2342	2342	  2	  1	 37	  5	  1	  1	  2	  4	  1	  1	  1	1.05430	  1	0.90000	  1	 11	 30	 51	  0	
09-May-2013	sub2342	2342	  2	  1	 38	  5	  1	  3	  1	  1	  1	  2	  0	1.74524	  0	0.90000	  1	 13	 42	 51	  0	
09-May-2013	sub2342	2342	  2	  1	 39	  5	  1	  3	  1	  1	  1	  1	  1	0.85204	  1	0.90000	  0	 13	 32	 33	  0	
09-May-2013	sub2342	2342	  2	  1	 40	  5	  1	  4	  5	  5	  1	  2	  1	0.37136	  1	0.90000	  0	 14	 32	 33	  1	
09-May-2013	sub2342	2342	  2	  1	 41	  5	  1	  6	  6	  2	  0	  2	  0	0.40415	  1	0.90000	  0	 16	 37	 48	  1	
09-May-2013	sub2342	2342	  2	  1	 42	  5	  1	  4	  5	  5	  1	  1	  0	0.05920	  0	0.90000	  0	 14	 42	 43	  1	
09-May-2013	sub2342	2342	  2	  1	 43	  5	  1	  4	  5	  5	  1	  2	  1	0.05830	  1	0.90000	  0	 14	 32	 33	  1	
09-May-2013	sub2342	2342	  2	  1	 44	  5	  1	  5	  4	  5	  0	  1	  0	0.59342	  1	0.90000	  0	 15	 37	 48	  0	
09-May-2013	sub2342	2342	  2	  1	 45	  5	  1	  2	  3	  2	  1	  2	  1	0.32645	  1	0.90000	  0	 12	 30	 31	  1	
09-May-2013	sub2342	2342	  2	  1	 46	  5	  1	  4	  5	  5	  1	  2	  1	0.60486	  1	0.90000	  0	 14	 32	 33	  0	
09-May-2013	sub2342	2342	  2	  1	 47	  5	  1	  5	  4	  5	  1	  2	  0	0.68736	  0	0.90000	  0	 15	 45	 46	  0	
09-May-2013	sub2342	2342	  2	  1	 48	  5	  1	  1	  2	  4	  1	  2	  0	0.55307	  0	0.90000	  0	 11	 40	 41	  0	
09-May-2013	sub2342	2342	  2	  1	 49	  5	  1	  5	  4	  5	  1	  1	  1	0.51948	  1	0.90000	  0	 15	 35	 36	  0	
09-May-2013	sub2342	2342	  2	  1	 50	  5	  1	  2	  3	  2	  1	  2	  1	0.01757	  1	0.90000	  0	 12	 30	 31	  1	
09-May-2013	sub2342	2342	  2	  1	 51	  5	  1	  4	  5	  5	  1	  2	  1	0.53041	  1	0.90000	  0	 14	 32	 33	  0	
09-May-2013	sub2342	2342	  2	  1	 52	  5	  1	  6	  6	  2	  1	  1	  0	0.59425	  0	0.90000	  0	 16	 45	 46	  0	
09-May-2013	sub2342	2342	  2	  1	 53	  5	  1	  3	  1	  1	  1	  2	  0	0.54746	  0	0.90000	  0	 13	 42	 43	  0	
09-May-2013	sub2342	2342	  2	  1	 54	  5	  1	  6	  6	  2	  1	  1	  0	0.43044	  0	0.90000	  0	 16	 45	 46	  1	
09-May-2013	sub2342	2342	  2	  1	 55	  5	  1	  1	  2	  4	  1	  2	  0	0.28914	  0	0.90000	  0	 11	 40	 41	  1	
09-May-2013	sub2342	2342	  2	  1	 56	  5	  1	  5	  4	  5	  0	  1	  0	0.38489	  1	0.90000	  0	 15	 37	 48	  1	
09-May-2013	sub2342	2342	  2	  1	 57	  5	  1	  1	  2	  4	  1	  1	  1	0.00095	  1	0.90000	  0	 11	 30	 31	  1	
09-May-2013	sub2342	2342	  2	  1	 58	  5	  1	  4	  5	  5	  1	  1	  0	0.37800	  0	0.90000	  0	 14	 42	 43	  1	
09-May-2013	sub2342	2342	  2	  1	 59	  5	  1	  3	  1	  1	  1	  2	  0	0.50616	  0	0.90000	  0	 13	 42	 43	  0	
09-May-2013	sub2342	2342	  2	  1	 60	  5	  1	  2	  3	  2	  1	  2	  1	0.68154	  1	0.90000	  0	 12	 30	 31	  0	
09-May-2013	sub2342	2342	  2	  1	 61	  5	  1	  3	  1	  1	  0	  1	  0	0.94808	  1	0.90000	  1	 13	 34	 51	  0	
09-May-2013	sub2342	2342	  2	  1	 62	  5	  1	  1	  2	  4	  1	  1	  1	0.14733	  1	0.90000	  0	 11	 30	 31	  1	
09-May-2013	sub2342	2342	  2	  1	 63	  5	  1	  6	  6	  2	  1	  2	  1	0.09749	  1	0.90000	  0	 16	 35	 36	  1	
09-May-2013	sub2342	2342	  2	  1	 64	  5	  1	  4	  5	  5	  1	  2	  1	0.28448	  1	0.90000	  0	 14	 32	 33	  1	
09-May-2013	sub2342	2342	  2	  1	 65	  5	  1	  5	  4	  5	  1	  2	  0	0.73383	  0	0.90000	  0	 15	 45	 46	  0	
09-May-2013	sub2342	2342	  2	  1	 66	  5	  1	  4	  5	  5	  0	  2	  0	0.47968	  1	0.90000	  0	 14	 34	 49	  1	
09-May-2013	sub2342	2342	  2	  1	 67	  5	  1	  2	  3	  2	  1	  2	  1	0.47377	  1	0.90000	  0	 12	 30	 31	  1	
09-May-2013	sub2342	2342	  2	  1	 68	  5	  1	  5	  4	  5	  0	  2	  1	0.65033	  0	0.90000	  0	 15	 47	 38	  0	
09-May-2013	sub2342	2342	  2	  1	 69	  5	  1	  6	  6	  2	  1	  2	  1	0.64137	  1	0.90000	  0	 16	 35	 36	  0	
09-May-2013	sub2342	2342	  2	  1	 70	  5	  1	  2	  3	  2	  1	  2	  1	0.52030	  1	0.90000	  0	 12	 30	 31	  0	
09-May-2013	sub2342	2342	  2	  1	 71	  5	  1	  2	  3	  2	  1	  1	  0	0.12152	  0	0.90000	  0	 12	 40	 41	  1	
09-May-2013	sub2342	2342	  2	  1	 72	  5	  1	  1	  2	  4	  1	  2	  0	0.71222	  0	0.90000	  0	 11	 40	 41	  0	
09-May-2013	sub2342	2342	  2	  1	 73	  5	  1	  3	  1	  1	  1	  2	  0	0.56413	  0	0.90000	  0	 13	 42	 43	  0	
09-May-2013	sub2342	2342	  2	  1	 74	  5	  1	  4	  5	  5	  1	  2	  1	0.42851	  1	0.90000	  0	 14	 32	 33	  1	
09-May-2013	sub2342	2342	  2	  1	 75	  5	  1	  3	  1	  1	  1	  2	  0	0.21485	  0	0.90000	  0	 13	 42	 43	  1	
09-May-2013	sub2342	2342	  2	  1	 76	  5	  2	  6	  6	  2	  1	  2	  1	1.01386	  1	0.90000	  1	 26	 65	 51	  0	
09-May-2013	sub2342	2342	  2	  1	 77	  5	  2	  2	  3	  2	  1	  2	  1	0.06501	  1	0.90000	  0	 22	 60	 61	  1	
09-May-2013	sub2342	2342	  2	  1	 78	  5	  2	  2	  3	  2	  1	  2	  1	0.57284	  1	0.90000	  0	 22	 60	 61	  0	
09-May-2013	sub2342	2342	  2	  1	 79	  5	  2	  4	  5	  5	  1	  2	  1	1.48915	  1	0.90000	  1	 24	 62	 51	  0	
09-May-2013	sub2342	2342	  2	  1	 80	  5	  2	  4	  5	  5	  0	  1	  1	0.53642	  0	0.90000	  0	 24	 84	 69	  0	
09-May-2013	sub2342	2342	  2	  1	 81	  5	  2	  4	  5	  5	  1	  2	  1	0.62754	  1	0.90000	  0	 24	 62	 63	  0	
09-May-2013	sub2342	2342	  2	  1	 82	  5	  2	  3	  1	  1	  1	  1	  1	0.46002	  1	0.90000	  0	 23	 62	 63	  1	
09-May-2013	sub2342	2342	  2	  1	 83	  5	  2	  5	  4	  5	  0	  2	  1	0.57606	  0	0.90000	  0	 25	 87	 68	  0	
09-May-2013	sub2342	2342	  2	  1	 84	  5	  2	  6	  6	  2	  0	  2	  0	0.49017	  1	0.90000	  0	 26	 67	 88	  1	
09-May-2013	sub2342	2342	  2	  1	 85	  5	  2	  3	  1	  1	  1	  1	  1	0.56280	  1	0.90000	  0	 23	 62	 63	  0	
09-May-2013	sub2342	2342	  2	  1	 86	  5	  2	  2	  3	  2	  1	  2	  1	0.50743	  1	0.90000	  0	 22	 60	 61	  0	
09-May-2013	sub2342	2342	  2	  1	 87	  5	  2	  5	  4	  5	  0	  1	  0	0.39291	  1	0.90000	  0	 25	 67	 88	  1	
09-May-2013	sub2342	2342	  2	  1	 88	  5	  2	  6	  6	  2	  0	  2	  0	0.37399	  1	0.90000	  0	 26	 67	 88	  1	
09-May-2013	sub2342	2342	  2	  1	 89	  5	  2	  6	  6	  2	  1	  1	  0	0.71467	  0	0.90000	  0	 26	 85	 86	  0	
09-May-2013	sub2342	2342	  2	  1	 90	  5	  2	  2	  3	  2	  1	  2	  1	0.55755	  1	0.90000	  0	 22	 60	 61	  0	
09-May-2013	sub2342	2342	  2	  1	 91	  5	  2	  2	  3	  2	  1	  2	  1	0.30545	  1	0.90000	  0	 22	 60	 61	  1	
09-May-2013	sub2342	2342	  2	  1	 92	  5	  2	  3	  1	  1	  1	  2	  0	0.57519	  0	0.90000	  0	 23	 82	 83	  0	
09-May-2013	sub2342	2342	  2	  1	 93	  5	  2	  4	  5	  5	  1	  2	  1	0.53211	  1	0.90000	  0	 24	 62	 63	  0	
09-May-2013	sub2342	2342	  2	  1	 94	  5	  2	  3	  1	  1	  0	  2	  1	0.00093	  0	0.90000	  0	 23	 84	 69	  1	
09-May-2013	sub2342	2342	  2	  1	 95	  5	  2	  5	  4	  5	  0	  2	  1	0.45053	  0	0.90000	  0	 25	 87	 68	  1	
09-May-2013	sub2342	2342	  2	  1	 96	  5	  2	  2	  3	  2	  1	  2	  1	0.41715	  1	0.90000	  0	 22	 60	 61	  1	
09-May-2013	sub2342	2342	  2	  1	 97	  5	  2	  3	  1	  1	  1	  2	  0	0.68215	  0	0.90000	  0	 23	 82	 83	  0	
09-May-2013	sub2342	2342	  2	  1	 98	  5	  2	  3	  1	  1	  1	  2	  0	1.24635	  0	0.90000	  1	 23	 82	 51	  0	
09-May-2013	sub2342	2342	  2	  1	 99	  5	  2	  1	  2	  4	  1	  2	  0	1.18082	  0	0.90000	  1	 21	 80	 51	  0	
09-May-2013	sub2342	2342	  2	  1	100	  5	  2	  5	  4	  5	  0	  2	  1	0.50316	  0	0.90000	  0	 25	 87	 68	  0	
09-May-2013	sub2342	2342	  2	  1	101	  5	  2	  4	  5	  5	  1	  2	  1	0.42452	  1	0.90000	  0	 24	 62	 63	  1	
09-May-2013	sub2342	2342	  2	  1	102	  5	  2	  2	  3	  2	  1	  2	  1	0.33453	  1	0.90000	  0	 22	 60	 61	  1	
09-May-2013	sub2342	2342	  2	  1	103	  5	  2	  1	  2	  4	  1	  2	  0	0.35282	  0	0.90000	  0	 21	 80	 81	  1	
09-May-2013	sub2342	2342	  2	  1	104	  5	  2	  1	  2	  4	  1	  1	  1	0.42709	  1	0.90000	  0	 21	 60	 61	  1	
09-May-2013	sub2342	2342	  2	  1	105	  5	  2	  1	  2	  4	  1	  1	  1	0.41554	  1	0.90000	  0	 21	 60	 61	  1	
09-May-2013	sub2342	2342	  2	  1	106	  5	  2	  1	  2	  4	  1	  1	  1	0.50892	  1	0.90000	  0	 21	 60	 61	  0	
09-May-2013	sub2342	2342	  2	  1	107	  5	  2	  2	  3	  2	  1	  1	  0	0.43363	  0	0.90000	  0	 22	 80	 81	  1	
09-May-2013	sub2342	2342	  2	  1	108	  5	  2	  4	  5	  5	  0	  2	  0	0.05464	  1	0.90000	  0	 24	 64	 89	  1	
09-May-2013	sub2342	2342	  2	  1	109	  5	  2	  3	  1	  1	  1	  2	  0	0.40904	  0	0.90000	  0	 23	 82	 83	  1	
09-May-2013	sub2342	2342	  2	  1	110	  5	  2	  5	  4	  5	  0	  1	  0	0.17119	  1	0.90000	  0	 25	 67	 88	  1	
09-May-2013	sub2342	2342	  2	  1	111	  5	  2	  4	  5	  5	  1	  1	  0	0.50440	  0	0.90000	  0	 24	 82	 83	  0	
09-May-2013	sub2342	2342	  2	  1	112	  5	  2	  5	  4	  5	  0	  2	  1	0.67241	  0	0.90000	  0	 25	 87	 68	  0	
09-May-2013	sub2342	2342	  2	  1	113	  5	  2	  1	  2	  4	  1	  1	  1	0.51165	  1	0.90000	  0	 21	 60	 61	  0	
09-May-2013	sub2342	2342	  2	  1	114	  5	  2	  6	  6	  2	  1	  1	  0	3.16788	  0	0.90000	  1	 26	 85	 51	  0	
09-May-2013	sub2342	2342	  2	  1	115	  5	  2	  4	  5	  5	  1	  2	  1	0.62644	  1	0.90000	  0	 24	 62	 63	  0	
09-May-2013	sub2342	2342	  2	  1	116	  5	  2	  1	  2	  4	  1	  2	  0	0.75422	  0	0.90000	  0	 21	 80	 81	  0	
09-May-2013	sub2342	2342	  2	  1	117	  5	  2	  3	  1	  1	  1	  1	  1	0.29075	  1	0.90000	  0	 23	 62	 63	  1	
09-May-2013	sub2342	2342	  2	  1	118	  5	  2	  6	  6	  2	  1	  2	  1	2.13116	  1	0.90000	  1	 26	 65	 51	  0	
09-May-2013	sub2342	2342	  2	  1	119	  5	  2	  1	  2	  4	  1	  2	  0	0.47239	  0	0.90000	  0	 21	 80	 81	  1	
09-May-2013	sub2342	2342	  2	  1	120	  5	  2	  6	  6	  2	  0	  1	  1	0.35317	  0	0.90000	  0	 26	 87	 68	  1	
09-May-2013	sub2342	2342	  2	  1	121	  5	  2	  5	  4	  5	  0	  1	  0	0.38898	  1	0.90000	  0	 25	 67	 88	  1	
09-May-2013	sub2342	2342	  2	  1	122	  5	  2	  5	  4	  5	  0	  2	  1	0.60260	  0	0.90000	  0	 25	 87	 68	  0	
09-May-2013	sub2342	2342	  2	  1	123	  5	  2	  4	  5	  5	  1	  2	  1	0.75029	  1	0.90000	  0	 24	 62	 63	  0	
09-May-2013	sub2342	2342	  2	  1	124	  5	  2	  3	  1	  1	  0	  2	  1	0.43120	  0	0.90000	  0	 23	 84	 69	  1	
09-May-2013	sub2342	2342	  2	  1	125	  5	  2	  2	  3	  2	  1	  2	  1	0.66054	  1	0.90000	  0	 22	 60	 61	  0	
09-May-2013	sub2342	2342	  2	  1	126	  5	  2	  4	  5	  5	  1	  2	  1	0.63462	  1	0.90000	  0	 24	 62	 63	  0	
09-May-2013	sub2342	2342	  2	  1	127	  5	  2	  6	  6	  2	  0	  2	  0	0.00016	  1	0.90000	  0	 26	 67	 88	  1	
09-May-2013	sub2342	2342	  2	  1	128	  5	  2	  1	  2	  4	  1	  2	  0	0.59150	  0	0.90000	  0	 21	 80	 81	  0	
09-May-2013	sub2342	2342	  2	  1	129	  5	  2	  1	  2	  4	  1	  1	  1	0.67089	  1	0.90000	  0	 21	 60	 61	  0	
09-May-2013	sub2342	2342	  2	  1	130	  5	  2	  5	  4	  5	  0	  2	  1	0.63159	  0	0.90000	  0	 25	 87	 68	  0	
09-May-2013	sub2342	2342	  2	  1	131	  5	  2	  5	  4	  5	  0	  2	  1	5.13628	  0	0.90000	  1	 25	 87	 51	  0	
09-May-2013	sub2342	2342	  2	  1	132	  5	  2	  4	  5	  5	  1	  2	  1	0.45288	  1	0.90000	  0	 24	 62	 63	  1	
09-May-2013	sub2342	2342	  2	  1	133	  5	  2	  3	  1	  1	  1	  2	  0	0.52976	  0	0.90000	  0	 23	 82	 83	  0	
09-May-2013	sub2342	2342	  2	  1	134	  5	  2	  4	  5	  5	  0	  2	  0	0.45045	  1	0.90000	  0	 24	 64	 89	  1	
09-May-2013	sub2342	2342	  2	  1	135	  5	  2	  3	  1	  1	  1	  2	  0	0.00009	  0	0.90000	  0	 23	 82	 83	  1	
09-May-2013	sub2342	2342	  2	  1	136	  5	  2	  5	  4	  5	  0	  2	  1	0.00009	  0	0.90000	  0	 25	 87	 68	  1	
09-May-2013	sub2342	2342	  2	  1	137	  5	  2	  6	  6	  2	  1	  2	  1	0.11253	  1	0.90000	  0	 26	 65	 66	  1	
09-May-2013	sub2342	2342	  2	  1	138	  5	  2	  2	  3	  2	  1	  2	  1	0.54506	  1	0.90000	  0	 22	 60	 61	  0	
09-May-2013	sub2342	2342	  2	  1	139	  5	  2	  5	  4	  5	  0	  2	  1	1.00371	  0	0.90000	  1	 25	 87	 51	  0	
09-May-2013	sub2342	2342	  2	  1	140	  5	  2	  1	  2	  4	  1	  2	  0	1.78472	  0	0.90000	  1	 21	 80	 51	  0	
09-May-2013	sub2342	2342	  2	  1	141	  5	  2	  4	  5	  5	  1	  2	  1	0.41501	  1	0.90000	  0	 24	 62	 63	  1	
09-May-2013	sub2342	2342	  2	  1	142	  5	  2	  2	  3	  2	  1	  2	  1	0.85448	  1	0.90000	  0	 22	 60	 61	  0	
09-May-2013	sub2342	2342	  2	  1	143	  5	  2	  5	  4	  5	  0	  2	  1	0.52139	  0	0.90000	  0	 25	 87	 68	  0	
09-May-2013	sub2342	2342	  2	  1	144	  5	  2	  3	  1	  1	  1	  2	  0	0.51373	  0	0.90000	  0	 23	 82	 83	  0	
09-May-2013	sub2342	2342	  2	  1	145	  5	  2	  6	  6	  2	  0	  2	  0	0.31319	  1	0.90000	  0	 26	 67	 88	  1	
09-May-2013	sub2342	2342	  2	  1	146	  5	  2	  6	  6	  2	  1	  2	  1	0.70855	  1	0.90000	  0	 26	 65	 66	  0	
09-May-2013	sub2342	2342	  2	  1	147	  5	  2	  1	  2	  4	  1	  2	  0	0.48799	  0	0.90000	  0	 21	 80	 81	  1	
09-May-2013	sub2342	2342	  2	  1	148	  5	  2	  2	  3	  2	  1	  2	  1	0.72959	  1	0.90000	  0	 22	 60	 61	  0	
09-May-2013	sub2342	2342	  2	  1	149	  5	  2	  6	  6	  2	  0	  2	  0	0.52064	  1	0.90000	  0	 26	 67	 88	  0	
09-May-2013	sub2342	2342	  2	  1	150	  5	  2	  1	  2	  4	  1	  1	  1	0.69119	  1	0.90000	  0	 21	 60	 61	  0	
09-May-2013	sub2342	2342	  2	  1	  1	  6	  1	  4	  6	  1	  1	  1	  0	1.88079	  0	0.60000	  1	 14	 42	 51	  0	
09-May-2013	sub2342	2342	  2	  1	  2	  6	  1	  6	  5	  6	  0	  1	  1	0.58537	  0	0.90000	  0	 16	 47	 38	  0	
09-May-2013	sub2342	2342	  2	  1	  3	  6	  1	  1	  2	  1	  1	  1	  1	0.45864	  1	0.90000	  0	 11	 30	 31	  1	
09-May-2013	sub2342	2342	  2	  1	  4	  6	  1	  2	  3	  5	  1	  1	  0	0.48077	  0	0.90000	  0	 12	 40	 41	  1	
09-May-2013	sub2342	2342	  2	  1	  5	  6	  1	  1	  2	  1	  1	  1	  1	0.61432	  1	0.90000	  0	 11	 30	 31	  0	
09-May-2013	sub2342	2342	  2	  1	  6	  6	  1	  5	  1	  4	  1	  1	  1	0.54249	  1	0.90000	  0	 15	 35	 36	  0	
09-May-2013	sub2342	2342	  2	  1	  7	  6	  1	  3	  4	  6	  1	  1	  1	0.41695	  1	0.90000	  0	 13	 32	 33	  1	
09-May-2013	sub2342	2342	  2	  1	  8	  6	  1	  5	  1	  4	  0	  1	  0	0.42673	  1	0.90000	  0	 15	 37	 48	  1	
09-May-2013	sub2342	2342	  2	  1	  9	  6	  1	  4	  6	  1	  0	  1	  1	0.43620	  0	0.90000	  0	 14	 44	 39	  1	
09-May-2013	sub2342	2342	  2	  1	 10	  6	  1	  1	  2	  1	  1	  1	  1	0.53801	  1	0.90000	  0	 11	 30	 31	  0	
09-May-2013	sub2342	2342	  2	  1	 11	  6	  1	  6	  5	  6	  1	  1	  0	0.00009	  0	0.90000	  0	 16	 45	 46	  1	
09-May-2013	sub2342	2342	  2	  1	 12	  6	  1	  2	  3	  5	  1	  1	  0	0.45710	  0	0.90000	  0	 12	 40	 41	  1	
09-May-2013	sub2342	2342	  2	  1	 13	  6	  1	  1	  2	  1	  1	  1	  1	1.32196	  1	0.90000	  1	 11	 30	 51	  0	
09-May-2013	sub2342	2342	  2	  1	 14	  6	  1	  1	  2	  1	  1	  1	  1	0.00017	  1	0.90000	  0	 11	 30	 31	  1	
09-May-2013	sub2342	2342	  2	  1	 15	  6	  1	  2	  3	  5	  1	  1	  0	0.52377	  0	0.90000	  0	 12	 40	 41	  0	
09-May-2013	sub2342	2342	  2	  1	 16	  6	  1	  1	  2	  1	  1	  1	  1	0.49618	  1	0.90000	  0	 11	 30	 31	  1	
09-May-2013	sub2342	2342	  2	  1	 17	  6	  1	  4	  6	  1	  0	  2	  0	0.67528	  1	0.90000	  0	 14	 34	 49	  0	
09-May-2013	sub2342	2342	  2	  1	 18	  6	  1	  5	  1	  4	  1	  1	  1	0.41131	  1	0.90000	  0	 15	 35	 36	  1	
09-May-2013	sub2342	2342	  2	  1	 19	  6	  1	  3	  4	  6	  1	  1	  1	0.45940	  1	0.90000	  0	 13	 32	 33	  1	
09-May-2013	sub2342	2342	  2	  1	 20	  6	  1	  4	  6	  1	  1	  1	  0	0.87377	  0	0.90000	  0	 14	 42	 43	  0	
09-May-2013	sub2342	2342	  2	  1	 21	  6	  1	  3	  4	  6	  1	  2	  0	0.91825	  0	0.90000	  1	 13	 42	 51	  0	
09-May-2013	sub2342	2342	  2	  1	 22	  6	  1	  2	  3	  5	  1	  2	  1	0.70501	  1	0.90000	  0	 12	 30	 31	  0	
09-May-2013	sub2342	2342	  2	  1	 23	  6	  1	  2	  3	  5	  1	  2	  1	0.94725	  1	0.90000	  1	 12	 30	 51	  0	
09-May-2013	sub2342	2342	  2	  1	 24	  6	  1	  5	  1	  4	  0	  2	  1	0.61321	  0	0.90000	  0	 15	 47	 38	  0	
09-May-2013	sub2342	2342	  2	  1	 25	  6	  1	  2	  3	  5	  1	  1	  0	1.93168	  0	0.90000	  1	 12	 40	 51	  0	
09-May-2013	sub2342	2342	  2	  1	 26	  6	  1	  5	  1	  4	  0	  1	  0	0.88080	  1	0.90000	  0	 15	 37	 48	  0	
09-May-2013	sub2342	2342	  2	  1	 27	  6	  1	  4	  6	  1	  1	  2	  1	2.77451	  1	0.90000	  1	 14	 32	 51	  0	
09-May-2013	sub2342	2342	  2	  1	 28	  6	  1	  3	  4	  6	  1	  2	  0	0.68367	  0	0.90000	  0	 13	 42	 43	  0	
09-May-2013	sub2342	2342	  2	  1	 29	  6	  1	  3	  4	  6	  0	  1	  0	0.58047	  1	0.90000	  0	 13	 34	 49	  0	
09-May-2013	sub2342	2342	  2	  1	 30	  6	  1	  6	  5	  6	  0	  1	  1	0.64616	  0	0.90000	  0	 16	 47	 38	  0	
09-May-2013	sub2342	2342	  2	  1	 31	  6	  1	  6	  5	  6	  0	  1	  1	0.76878	  0	0.90000	  0	 16	 47	 38	  0	
09-May-2013	sub2342	2342	  2	  1	 32	  6	  1	  6	  5	  6	  0	  1	  1	3.32298	  0	0.90000	  1	 16	 47	 51	  0	
09-May-2013	sub2342	2342	  2	  1	 33	  6	  1	  1	  2	  1	  1	  1	  1	0.88552	  1	0.90000	  0	 11	 30	 31	  0	
09-May-2013	sub2342	2342	  2	  1	 34	  6	  1	  3	  4	  6	  1	  1	  1	1.93508	  1	0.90000	  1	 13	 32	 51	  0	
09-May-2013	sub2342	2342	  2	  1	 35	  6	  1	  3	  4	  6	  0	  2	  1	0.47936	  0	0.90000	  0	 13	 44	 39	  1	
09-May-2013	sub2342	2342	  2	  1	 36	  6	  1	  4	  6	  1	  1	  2	  1	0.53459	  1	0.90000	  0	 14	 32	 33	  0	
09-May-2013	sub2342	2342	  2	  1	 37	  6	  1	  6	  5	  6	  0	  2	  0	0.50829	  1	0.90000	  0	 16	 37	 48	  0	
09-May-2013	sub2342	2342	  2	  1	 38	  6	  1	  2	  3	  5	  1	  2	  1	0.70913	  1	0.90000	  0	 12	 30	 31	  0	
09-May-2013	sub2342	2342	  2	  1	 39	  6	  1	  5	  1	  4	  0	  1	  0	1.07614	  1	0.90000	  1	 15	 37	 51	  0	
09-May-2013	sub2342	2342	  2	  1	 40	  6	  1	  5	  1	  4	  1	  2	  0	0.75683	  0	0.90000	  0	 15	 45	 46	  0	
09-May-2013	sub2342	2342	  2	  1	 41	  6	  1	  1	  2	  1	  1	  1	  1	0.64243	  1	0.90000	  0	 11	 30	 31	  0	
09-May-2013	sub2342	2342	  2	  1	 42	  6	  1	  1	  2	  1	  1	  1	  1	0.60117	  1	0.90000	  0	 11	 30	 31	  0	
09-May-2013	sub2342	2342	  2	  1	 43	  6	  1	  6	  5	  6	  1	  1	  0	0.70771	  0	0.90000	  0	 16	 45	 46	  0	
09-May-2013	sub2342	2342	  2	  1	 44	  6	  1	  3	  4	  6	  1	  2	  0	0.48841	  0	0.90000	  0	 13	 42	 43	  1	
09-May-2013	sub2342	2342	  2	  1	 45	  6	  1	  6	  5	  6	  1	  1	  0	0.43311	  0	0.90000	  0	 16	 45	 46	  1	
09-May-2013	sub2342	2342	  2	  1	 46	  6	  1	  4	  6	  1	  1	  1	  0	0.57830	  0	0.90000	  0	 14	 42	 43	  0	
09-May-2013	sub2342	2342	  2	  1	 47	  6	  1	  2	  3	  5	  1	  2	  1	0.66419	  1	0.90000	  0	 12	 30	 31	  0	
09-May-2013	sub2342	2342	  2	  1	 48	  6	  1	  4	  6	  1	  1	  2	  1	0.46826	  1	0.90000	  0	 14	 32	 33	  1	
09-May-2013	sub2342	2342	  2	  1	 49	  6	  1	  3	  4	  6	  0	  1	  0	0.49528	  1	0.90000	  0	 13	 34	 49	  1	
09-May-2013	sub2342	2342	  2	  1	 50	  6	  1	  2	  3	  5	  1	  2	  1	0.39605	  1	0.90000	  0	 12	 30	 31	  1	
09-May-2013	sub2342	2342	  2	  1	 51	  6	  1	  1	  2	  1	  1	  1	  1	0.63889	  1	0.90000	  0	 11	 30	 31	  0	
09-May-2013	sub2342	2342	  2	  1	 52	  6	  1	  4	  6	  1	  1	  2	  1	1.34459	  1	0.90000	  1	 14	 32	 51	  0	
09-May-2013	sub2342	2342	  2	  1	 53	  6	  1	  2	  3	  5	  1	  2	  1	0.55267	  1	0.90000	  0	 12	 30	 31	  0	
09-May-2013	sub2342	2342	  2	  1	 54	  6	  1	  2	  3	  5	  1	  1	  0	0.48611	  0	0.90000	  0	 12	 40	 41	  1	
09-May-2013	sub2342	2342	  2	  1	 55	  6	  1	  6	  5	  6	  0	  2	  0	0.42974	  1	0.90000	  0	 16	 37	 48	  1	
09-May-2013	sub2342	2342	  2	  1	 56	  6	  1	  5	  1	  4	  1	  2	  0	0.46477	  0	0.90000	  0	 15	 45	 46	  1	
09-May-2013	sub2342	2342	  2	  1	 57	  6	  1	  5	  1	  4	  1	  2	  0	0.81583	  0	0.90000	  0	 15	 45	 46	  0	
09-May-2013	sub2342	2342	  2	  1	 58	  6	  1	  3	  4	  6	  1	  2	  0	1.50888	  0	0.90000	  1	 13	 42	 51	  0	
09-May-2013	sub2342	2342	  2	  1	 59	  6	  1	  6	  5	  6	  1	  2	  1	0.67224	  1	0.90000	  0	 16	 35	 36	  0	
09-May-2013	sub2342	2342	  2	  1	 60	  6	  1	  6	  5	  6	  1	  2	  1	0.60932	  1	0.90000	  0	 16	 35	 36	  0	
09-May-2013	sub2342	2342	  2	  1	 61	  6	  1	  3	  4	  6	  1	  2	  0	0.45207	  0	0.90000	  0	 13	 42	 43	  1	
09-May-2013	sub2342	2342	  2	  1	 62	  6	  1	  4	  6	  1	  1	  2	  1	0.46855	  1	0.90000	  0	 14	 32	 33	  1	
09-May-2013	sub2342	2342	  2	  1	 63	  6	  1	  6	  5	  6	  1	  2	  1	0.31597	  1	0.90000	  0	 16	 35	 36	  1	
09-May-2013	sub2342	2342	  2	  1	 64	  6	  1	  3	  4	  6	  1	  2	  0	0.58465	  0	0.90000	  0	 13	 42	 43	  0	
09-May-2013	sub2342	2342	  2	  1	 65	  6	  1	  2	  3	  5	  1	  2	  1	0.79887	  1	0.90000	  0	 12	 30	 31	  0	
09-May-2013	sub2342	2342	  2	  1	 66	  6	  1	  3	  4	  6	  1	  2	  0	0.40480	  0	0.90000	  0	 13	 42	 43	  1	
09-May-2013	sub2342	2342	  2	  1	 67	  6	  1	  1	  2	  1	  1	  2	  0	0.60570	  0	0.90000	  0	 11	 40	 41	  0	
09-May-2013	sub2342	2342	  2	  1	 68	  6	  1	  6	  5	  6	  0	  2	  0	0.68510	  1	0.90000	  0	 16	 37	 48	  0	
09-May-2013	sub2342	2342	  2	  1	 69	  6	  1	  4	  6	  1	  1	  2	  1	0.30107	  1	0.90000	  0	 14	 32	 33	  1	
09-May-2013	sub2342	2342	  2	  1	 70	  6	  1	  5	  1	  4	  0	  2	  1	0.51346	  0	0.90000	  0	 15	 47	 38	  0	
09-May-2013	sub2342	2342	  2	  1	 71	  6	  1	  4	  6	  1	  1	  1	  0	0.32062	  0	0.90000	  0	 14	 42	 43	  1	
09-May-2013	sub2342	2342	  2	  1	 72	  6	  1	  5	  1	  4	  1	  2	  0	0.00017	  0	0.90000	  0	 15	 45	 46	  1	
09-May-2013	sub2342	2342	  2	  1	 73	  6	  1	  2	  3	  5	  1	  2	  1	0.41708	  1	0.90000	  0	 12	 30	 31	  1	
09-May-2013	sub2342	2342	  2	  1	 74	  6	  1	  1	  2	  1	  1	  2	  0	0.42497	  0	0.90000	  0	 11	 40	 41	  1	
09-May-2013	sub2342	2342	  2	  1	 75	  6	  1	  5	  1	  4	  0	  2	  1	0.30016	  0	0.90000	  0	 15	 47	 38	  1	
09-May-2013	sub2342	2342	  2	  1	 76	  6	  2	  5	  1	  4	  0	  2	  1	0.50674	  0	0.90000	  0	 25	 87	 68	  0	
09-May-2013	sub2342	2342	  2	  1	 77	  6	  2	  4	  6	  1	  0	  2	  0	0.50413	  1	0.90000	  0	 24	 64	 89	  0	
09-May-2013	sub2342	2342	  2	  1	 78	  6	  2	  1	  2	  1	  1	  2	  0	1.41184	  0	0.90000	  1	 21	 80	 51	  0	
09-May-2013	sub2342	2342	  2	  1	 79	  6	  2	  5	  1	  4	  0	  2	  1	0.58326	  0	0.90000	  0	 25	 87	 68	  0	
09-May-2013	sub2342	2342	  2	  1	 80	  6	  2	  3	  4	  6	  1	  2	  0	0.52377	  0	0.90000	  0	 23	 82	 83	  0	
09-May-2013	sub2342	2342	  2	  1	 81	  6	  2	  2	  3	  5	  1	  2	  1	0.65157	  1	0.90000	  0	 22	 60	 61	  0	
09-May-2013	sub2342	2342	  2	  1	 82	  6	  2	  2	  3	  5	  1	  2	  1	1.19976	  1	0.90000	  1	 22	 60	 51	  0	
09-May-2013	sub2342	2342	  2	  1	 83	  6	  2	  4	  6	  1	  1	  1	  0	0.85551	  0	0.90000	  0	 24	 82	 83	  0	
09-May-2013	sub2342	2342	  2	  1	 84	  6	  2	  5	  1	  4	  0	  2	  1	0.46733	  0	0.90000	  0	 25	 87	 68	  1	
09-May-2013	sub2342	2342	  2	  1	 85	  6	  2	  2	  3	  5	  1	  2	  1	0.59007	  1	0.90000	  0	 22	 60	 61	  0	
09-May-2013	sub2342	2342	  2	  1	 86	  6	  2	  5	  1	  4	  0	  2	  1	0.59305	  0	0.90000	  0	 25	 87	 68	  0	
09-May-2013	sub2342	2342	  2	  1	 87	  6	  2	  6	  5	  6	  1	  2	  1	0.76226	  1	0.90000	  0	 26	 65	 66	  0	
09-May-2013	sub2342	2342	  2	  1	 88	  6	  2	  6	  5	  6	  1	  2	  1	0.49951	  1	0.90000	  0	 26	 65	 66	  1	
09-May-2013	sub2342	2342	  2	  1	 89	  6	  2	  4	  6	  1	  1	  2	  1	0.60940	  1	0.90000	  0	 24	 62	 63	  0	
09-May-2013	sub2342	2342	  2	  1	 90	  6	  2	  6	  5	  6	  0	  2	  0	0.50297	  1	0.90000	  0	 26	 67	 88	  0	
09-May-2013	sub2342	2342	  2	  1	 91	  6	  2	  3	  4	  6	  0	  2	  1	2.96393	  0	0.90000	  1	 23	 84	 51	  0	
09-May-2013	sub2342	2342	  2	  1	 92	  6	  2	  3	  4	  6	  1	  2	  0	0.00017	  0	0.90000	  0	 23	 82	 83	  1	
09-May-2013	sub2342	2342	  2	  1	 93	  6	  2	  4	  6	  1	  1	  2	  1	0.73055	  1	0.90000	  0	 24	 62	 63	  0	
09-May-2013	sub2342	2342	  2	  1	 94	  6	  2	  6	  5	  6	  1	  2	  1	0.46893	  1	0.90000	  0	 26	 65	 66	  1	
09-May-2013	sub2342	2342	  2	  1	 95	  6	  2	  4	  6	  1	  1	  1	  0	1.26360	  0	0.90000	  1	 24	 82	 51	  0	
09-May-2013	sub2342	2342	  2	  1	 96	  6	  2	  6	  5	  6	  1	  2	  1	0.00009	  1	0.90000	  0	 26	 65	 66	  1	
09-May-2013	sub2342	2342	  2	  1	 97	  6	  2	  4	  6	  1	  1	  2	  1	0.61606	  1	0.90000	  0	 24	 62	 63	  0	
09-May-2013	sub2342	2342	  2	  1	 98	  6	  2	  2	  3	  5	  1	  1	  0	0.41018	  0	0.90000	  0	 22	 80	 81	  1	
09-May-2013	sub2342	2342	  2	  1	 99	  6	  2	  3	  4	  6	  0	  2	  1	0.53372	  0	0.90000	  0	 23	 84	 69	  0	
09-May-2013	sub2342	2342	  2	  1	100	  6	  2	  6	  5	  6	  0	  2	  0	0.53477	  1	0.90000	  0	 26	 67	 88	  0	
09-May-2013	sub2342	2342	  2	  1	101	  6	  2	  4	  6	  1	  1	  2	  1	0.53431	  1	0.90000	  0	 24	 62	 63	  0	
09-May-2013	sub2342	2342	  2	  1	102	  6	  2	  6	  5	  6	  1	  2	  1	0.88175	  1	0.90000	  0	 26	 65	 66	  0	
09-May-2013	sub2342	2342	  2	  1	103	  6	  2	  1	  2	  1	  1	  1	  1	0.79995	  1	0.90000	  0	 21	 60	 61	  0	
09-May-2013	sub2342	2342	  2	  1	104	  6	  2	  5	  1	  4	  0	  2	  1	0.43588	  0	0.90000	  0	 25	 87	 68	  1	
09-May-2013	sub2342	2342	  2	  1	105	  6	  2	  3	  4	  6	  1	  1	  1	0.49101	  1	0.90000	  0	 23	 62	 63	  1	
09-May-2013	sub2342	2342	  2	  1	106	  6	  2	  2	  3	  5	  1	  2	  1	0.56533	  1	0.90000	  0	 22	 60	 61	  0	
09-May-2013	sub2342	2342	  2	  1	107	  6	  2	  6	  5	  6	  0	  2	  0	0.46639	  1	0.90000	  0	 26	 67	 88	  1	
09-May-2013	sub2342	2342	  2	  1	108	  6	  2	  4	  6	  1	  0	  1	  1	0.00009	  0	0.90000	  0	 24	 84	 69	  1	
09-May-2013	sub2342	2342	  2	  1	109	  6	  2	  5	  1	  4	  0	  2	  1	0.57543	  0	0.90000	  0	 25	 87	 68	  0	
09-May-2013	sub2342	2342	  2	  1	110	  6	  2	  2	  3	  5	  1	  2	  1	0.67432	  1	0.90000	  0	 22	 60	 61	  0	
09-May-2013	sub2342	2342	  2	  1	111	  6	  2	  5	  1	  4	  0	  2	  1	0.08543	  0	0.90000	  0	 25	 87	 68	  1	
09-May-2013	sub2342	2342	  2	  1	112	  6	  2	  1	  2	  1	  1	  1	  1	1.35847	  1	0.90000	  1	 21	 60	 51	  0	
09-May-2013	sub2342	2342	  2	  1	113	  6	  2	  1	  2	  1	  1	  2	  0	0.54677	  0	0.90000	  0	 21	 80	 81	  0	
09-May-2013	sub2342	2342	  2	  1	114	  6	  2	  1	  2	  1	  1	  1	  1	0.53513	  1	0.90000	  0	 21	 60	 61	  0	
09-May-2013	sub2342	2342	  2	  1	115	  6	  2	  5	  1	  4	  0	  2	  1	0.71731	  0	0.90000	  0	 25	 87	 68	  0	
09-May-2013	sub2342	2342	  2	  1	116	  6	  2	  2	  3	  5	  1	  1	  0	0.44023	  0	0.90000	  0	 22	 80	 81	  1	
09-May-2013	sub2342	2342	  2	  1	117	  6	  2	  4	  6	  1	  1	  1	  0	0.78966	  0	0.90000	  0	 24	 82	 83	  0	
09-May-2013	sub2342	2342	  2	  1	118	  6	  2	  3	  4	  6	  1	  2	  0	0.50026	  0	0.90000	  0	 23	 82	 83	  1	
09-May-2013	sub2342	2342	  2	  1	119	  6	  2	  1	  2	  1	  1	  2	  0	0.50773	  0	0.90000	  0	 21	 80	 81	  0	
09-May-2013	sub2342	2342	  2	  1	120	  6	  2	  5	  1	  4	  0	  2	  1	0.59654	  0	0.90000	  0	 25	 87	 68	  0	
09-May-2013	sub2342	2342	  2	  1	121	  6	  2	  4	  6	  1	  1	  1	  0	0.69699	  0	0.90000	  0	 24	 82	 83	  0	
09-May-2013	sub2342	2342	  2	  1	122	  6	  2	  3	  4	  6	  1	  2	  0	0.50167	  0	0.90000	  0	 23	 82	 83	  0	
09-May-2013	sub2342	2342	  2	  1	123	  6	  2	  1	  2	  1	  1	  1	  1	0.53334	  1	0.90000	  0	 21	 60	 61	  0	
09-May-2013	sub2342	2342	  2	  1	124	  6	  2	  6	  5	  6	  0	  2	  0	0.53164	  1	0.90000	  0	 26	 67	 88	  0	
09-May-2013	sub2342	2342	  2	  1	125	  6	  2	  1	  2	  1	  1	  1	  1	0.73140	  1	0.90000	  0	 21	 60	 61	  0	
09-May-2013	sub2342	2342	  2	  1	126	  6	  2	  4	  6	  1	  1	  2	  1	0.69037	  1	0.90000	  0	 24	 62	 63	  0	
09-May-2013	sub2342	2342	  2	  1	127	  6	  2	  1	  2	  1	  1	  1	  1	3.60248	  1	0.90000	  1	 21	 60	 51	  0	
09-May-2013	sub2342	2342	  2	  1	128	  6	  2	  4	  6	  1	  1	  2	  1	0.66294	  1	0.90000	  0	 24	 62	 63	  0	
09-May-2013	sub2342	2342	  2	  1	129	  6	  2	  2	  3	  5	  1	  2	  1	0.80283	  1	0.90000	  0	 22	 60	 61	  0	
09-May-2013	sub2342	2342	  2	  1	130	  6	  2	  3	  4	  6	  1	  1	  1	1.22498	  1	0.90000	  1	 23	 62	 51	  0	
09-May-2013	sub2342	2342	  2	  1	131	  6	  2	  2	  3	  5	  1	  2	  1	0.52226	  1	0.90000	  0	 22	 60	 61	  0	
09-May-2013	sub2342	2342	  2	  1	132	  6	  2	  1	  2	  1	  1	  1	  1	0.57902	  1	0.90000	  0	 21	 60	 61	  0	
09-May-2013	sub2342	2342	  2	  1	133	  6	  2	  2	  3	  5	  1	  2	  1	0.03709	  1	0.90000	  0	 22	 60	 61	  1	
09-May-2013	sub2342	2342	  2	  1	134	  6	  2	  6	  5	  6	  0	  2	  0	0.53555	  1	0.90000	  0	 26	 67	 88	  0	
09-May-2013	sub2342	2342	  2	  1	135	  6	  2	  5	  1	  4	  0	  2	  1	0.00034	  0	0.90000	  0	 25	 87	 68	  1	
09-May-2013	sub2342	2342	  2	  1	136	  6	  2	  2	  3	  5	  1	  2	  1	0.51154	  1	0.90000	  0	 22	 60	 61	  0	
09-May-2013	sub2342	2342	  2	  1	137	  6	  2	  1	  2	  1	  1	  2	  0	0.53561	  0	0.90000	  0	 21	 80	 81	  0	
09-May-2013	sub2342	2342	  2	  1	138	  6	  2	  5	  1	  4	  0	  1	  0	0.37861	  1	0.90000	  0	 25	 67	 88	  1	
09-May-2013	sub2342	2342	  2	  1	139	  6	  2	  6	  5	  6	  1	  2	  1	0.64331	  1	0.90000	  0	 26	 65	 66	  0	
09-May-2013	sub2342	2342	  2	  1	140	  6	  2	  5	  1	  4	  0	  2	  1	0.47418	  0	0.90000	  0	 25	 87	 68	  1	
09-May-2013	sub2342	2342	  2	  1	141	  6	  2	  1	  2	  1	  1	  1	  1	0.54477	  1	0.90000	  0	 21	 60	 61	  0	
09-May-2013	sub2342	2342	  2	  1	142	  6	  2	  1	  2	  1	  1	  2	  0	0.62739	  0	0.90000	  0	 21	 80	 81	  0	
09-May-2013	sub2342	2342	  2	  1	143	  6	  2	  3	  4	  6	  1	  2	  0	0.49712	  0	0.90000	  0	 23	 82	 83	  1	
09-May-2013	sub2342	2342	  2	  1	144	  6	  2	  4	  6	  1	  0	  2	  0	0.65783	  1	0.90000	  0	 24	 64	 89	  0	
09-May-2013	sub2342	2342	  2	  1	145	  6	  2	  3	  4	  6	  1	  1	  1	0.52476	  1	0.90000	  0	 23	 62	 63	  0	
09-May-2013	sub2342	2342	  2	  1	146	  6	  2	  3	  4	  6	  1	  2	  0	0.49949	  0	0.90000	  0	 23	 82	 83	  1	
09-May-2013	sub2342	2342	  2	  1	147	  6	  2	  5	  1	  4	  0	  1	  0	2.17519	  1	0.90000	  1	 25	 67	 51	  0	
09-May-2013	sub2342	2342	  2	  1	148	  6	  2	  6	  5	  6	  0	  2	  0	0.40603	  1	0.90000	  0	 26	 67	 88	  1	
09-May-2013	sub2342	2342	  2	  1	149	  6	  2	  2	  3	  5	  1	  2	  1	0.39710	  1	0.90000	  0	 22	 60	 61	  1	
09-May-2013	sub2342	2342	  2	  1	150	  6	  2	  3	  4	  6	  1	  2	  0	1.39566	  0	0.90000	  1	 23	 82	 51	  0	
