Date 	 Name 	 ID 	 Gender 	 Appearance 	 Trial 	 Block 	 Bin 	 Condition 	 Category 	 Number 	 Valid 	 Keypress 	 Correct 	 RT 	 Realcorrect 	 Deadline 	 Timeout 	 Stimtrigger 	 Resptrigger 	 Fedtrigger 	 WithinTime 	 
09-May-2013	sub2343	2343	  2	  1	  1	  1	  1	  1	  1	  1	  1	  1	  1	1.11172	  1	0.60000	  1	 11	 30	 51	  0	
09-May-2013	sub2343	2343	  2	  1	  2	  1	  1	  4	  4	  4	  1	  2	  1	0.29190	  1	0.90000	  0	 14	 32	 33	  1	
09-May-2013	sub2343	2343	  2	  1	  3	  1	  1	  3	  6	  3	  1	  1	  1	0.56152	  1	0.90000	  0	 13	 32	 33	  0	
09-May-2013	sub2343	2343	  2	  1	  4	  1	  1	  2	  2	  5	  1	  1	  0	0.66370	  0	0.90000	  0	 12	 40	 41	  0	
09-May-2013	sub2343	2343	  2	  1	  5	  1	  1	  2	  2	  5	  1	  2	  1	0.33366	  1	0.90000	  0	 12	 30	 31	  1	
09-May-2013	sub2343	2343	  2	  1	  6	  1	  1	  4	  4	  4	  1	  1	  0	0.31024	  0	0.90000	  0	 14	 42	 43	  1	
09-May-2013	sub2343	2343	  2	  1	  7	  1	  1	  6	  5	  3	  1	  2	  1	0.55674	  1	0.90000	  0	 16	 35	 36	  0	
09-May-2013	sub2343	2343	  2	  1	  8	  1	  1	  1	  1	  1	  1	  1	  1	0.52496	  1	0.90000	  0	 11	 30	 31	  0	
09-May-2013	sub2343	2343	  2	  1	  9	  1	  1	  3	  6	  3	  1	  2	  0	0.57252	  0	0.90000	  0	 13	 42	 43	  0	
09-May-2013	sub2343	2343	  2	  1	 10	  1	  1	  6	  5	  3	  0	  1	  1	0.58776	  0	0.90000	  0	 16	 47	 38	  0	
09-May-2013	sub2343	2343	  2	  1	 11	  1	  1	  3	  6	  3	  1	  1	  1	42.35293	  1	0.90000	  1	 13	 32	 51	  0	
09-May-2013	sub2343	2343	  2	  1	 12	  1	  1	  1	  1	  1	  1	  2	  0	16.36154	  0	0.90000	  1	 11	 40	 51	  0	
09-May-2013	sub2343	2343	  2	  1	 13	  1	  1	  5	  3	  4	  1	  2	  0	0.54926	  0	0.90000	  0	 15	 45	 46	  0	
09-May-2013	sub2343	2343	  2	  1	 14	  1	  1	  3	  6	  3	  1	  1	  1	0.26901	  1	0.90000	  0	 13	 32	 33	  1	
09-May-2013	sub2343	2343	  2	  1	 15	  1	  1	  3	  6	  3	  1	  2	  0	0.36231	  0	0.90000	  0	 13	 42	 43	  1	
09-May-2013	sub2343	2343	  2	  1	 16	  1	  1	  4	  4	  4	  1	  1	  0	0.33551	  0	0.90000	  0	 14	 42	 43	  1	
09-May-2013	sub2343	2343	  2	  1	 17	  1	  1	  4	  4	  4	  1	  2	  1	0.33342	  1	0.90000	  0	 14	 32	 33	  1	
09-May-2013	sub2343	2343	  2	  1	 18	  1	  1	  4	  4	  4	  1	  2	  1	0.50368	  1	0.90000	  0	 14	 32	 33	  0	
09-May-2013	sub2343	2343	  2	  1	 19	  1	  1	  5	  3	  4	  0	  2	  1	0.71011	  0	0.90000	  0	 15	 47	 38	  0	
09-May-2013	sub2343	2343	  2	  1	 20	  1	  1	  2	  2	  5	  1	  1	  0	0.61385	  0	0.90000	  0	 12	 40	 41	  0	
09-May-2013	sub2343	2343	  2	  1	 21	  1	  1	  1	  1	  1	  1	  2	  0	0.29472	  0	0.90000	  0	 11	 40	 41	  1	
09-May-2013	sub2343	2343	  2	  1	 22	  1	  1	  3	  6	  3	  0	  2	  1	0.24467	  0	0.90000	  0	 13	 44	 39	  1	
09-May-2013	sub2343	2343	  2	  1	 23	  1	  1	  4	  4	  4	  1	  2	  1	0.35062	  1	0.90000	  0	 14	 32	 33	  1	
09-May-2013	sub2343	2343	  2	  1	 24	  1	  1	  3	  6	  3	  0	  2	  1	0.41807	  0	0.90000	  0	 13	 44	 39	  1	
09-May-2013	sub2343	2343	  2	  1	 25	  1	  1	  2	  2	  5	  1	  2	  1	0.51310	  1	0.90000	  0	 12	 30	 31	  0	
09-May-2013	sub2343	2343	  2	  1	 26	  1	  1	  5	  3	  4	  0	  2	  1	0.47190	  0	0.90000	  0	 15	 47	 38	  1	
09-May-2013	sub2343	2343	  2	  1	 27	  1	  1	  4	  4	  4	  1	  2	  1	0.42858	  1	0.90000	  0	 14	 32	 33	  1	
09-May-2013	sub2343	2343	  2	  1	 28	  1	  1	  2	  2	  5	  1	  2	  1	0.25375	  1	0.90000	  0	 12	 30	 31	  1	
09-May-2013	sub2343	2343	  2	  1	 29	  1	  1	  6	  5	  3	  1	  2	  1	0.53444	  1	0.90000	  0	 16	 35	 36	  0	
09-May-2013	sub2343	2343	  2	  1	 30	  1	  1	  2	  2	  5	  1	  2	  1	0.26058	  1	0.90000	  0	 12	 30	 31	  1	
09-May-2013	sub2343	2343	  2	  1	 31	  1	  1	  4	  4	  4	  1	  2	  1	0.32923	  1	0.90000	  0	 14	 32	 33	  1	
09-May-2013	sub2343	2343	  2	  1	 32	  1	  1	  3	  6	  3	  1	  2	  0	0.29103	  0	0.90000	  0	 13	 42	 43	  1	
09-May-2013	sub2343	2343	  2	  1	 33	  1	  1	  5	  3	  4	  1	  2	  0	0.29755	  0	0.90000	  0	 15	 45	 46	  1	
09-May-2013	sub2343	2343	  2	  1	 34	  1	  1	  3	  6	  3	  1	  2	  0	0.41785	  0	0.90000	  0	 13	 42	 43	  1	
09-May-2013	sub2343	2343	  2	  1	 35	  1	  1	  6	  5	  3	  1	  2	  1	0.43538	  1	0.90000	  0	 16	 35	 36	  1	
09-May-2013	sub2343	2343	  2	  1	 36	  1	  1	  6	  5	  3	  1	  2	  1	0.22876	  1	0.90000	  0	 16	 35	 36	  1	
09-May-2013	sub2343	2343	  2	  1	 37	  1	  1	  2	  2	  5	  1	  2	  1	0.30016	  1	0.90000	  0	 12	 30	 31	  1	
09-May-2013	sub2343	2343	  2	  1	 38	  1	  1	  5	  3	  4	  1	  2	  0	0.27366	  0	0.90000	  0	 15	 45	 46	  1	
09-May-2013	sub2343	2343	  2	  1	 39	  1	  1	  6	  5	  3	  0	  2	  0	0.49027	  1	0.90000	  0	 16	 37	 48	  1	
09-May-2013	sub2343	2343	  2	  1	 40	  1	  1	  4	  4	  4	  1	  2	  1	0.51546	  1	0.90000	  0	 14	 32	 33	  0	
09-May-2013	sub2343	2343	  2	  1	 41	  1	  1	  4	  4	  4	  1	  2	  1	0.35020	  1	0.90000	  0	 14	 32	 33	  1	
09-May-2013	sub2343	2343	  2	  1	 42	  1	  1	  6	  5	  3	  0	  2	  0	0.55401	  1	0.90000	  0	 16	 37	 48	  0	
09-May-2013	sub2343	2343	  2	  1	 43	  1	  1	  6	  5	  3	  0	  2	  0	0.37111	  1	0.90000	  0	 16	 37	 48	  1	
09-May-2013	sub2343	2343	  2	  1	 44	  1	  1	  5	  3	  4	  0	  2	  1	0.47212	  0	0.80000	  0	 15	 47	 38	  1	
09-May-2013	sub2343	2343	  2	  1	 45	  1	  1	  1	  1	  1	  1	  1	  1	0.77719	  1	0.80000	  0	 11	 30	 31	  0	
09-May-2013	sub2343	2343	  2	  1	 46	  1	  1	  1	  1	  1	  1	  1	  1	0.33682	  1	0.80000	  0	 11	 30	 31	  1	
09-May-2013	sub2343	2343	  2	  1	 47	  1	  1	  5	  3	  4	  0	  1	  0	0.52557	  1	0.80000	  0	 15	 37	 48	  0	
09-May-2013	sub2343	2343	  2	  1	 48	  1	  1	  6	  5	  3	  1	  2	  1	0.33063	  1	0.80000	  0	 16	 35	 36	  1	
09-May-2013	sub2343	2343	  2	  1	 49	  1	  1	  4	  4	  4	  0	  2	  0	0.42204	  1	0.80000	  0	 14	 34	 49	  1	
09-May-2013	sub2343	2343	  2	  1	 50	  1	  1	  5	  3	  4	  0	  2	  1	0.46133	  0	0.80000	  0	 15	 47	 38	  1	
09-May-2013	sub2343	2343	  2	  1	 51	  1	  1	  1	  1	  1	  1	  2	  0	0.46610	  0	0.70000	  0	 11	 40	 41	  1	
09-May-2013	sub2343	2343	  2	  1	 52	  1	  1	  6	  5	  3	  1	  2	  1	0.48608	  1	0.70000	  0	 16	 35	 36	  1	
09-May-2013	sub2343	2343	  2	  1	 53	  1	  1	  2	  2	  5	  1	  1	  0	0.55731	  0	0.70000	  0	 12	 40	 41	  0	
09-May-2013	sub2343	2343	  2	  1	 54	  1	  1	  2	  2	  5	  1	  1	  0	0.47335	  0	0.70000	  0	 12	 40	 41	  1	
09-May-2013	sub2343	2343	  2	  1	 55	  1	  1	  1	  1	  1	  1	  2	  0	0.34713	  0	0.70000	  0	 11	 40	 41	  1	
09-May-2013	sub2343	2343	  2	  1	 56	  1	  1	  3	  6	  3	  1	  2	  0	0.61441	  0	0.70000	  0	 13	 42	 43	  0	
09-May-2013	sub2343	2343	  2	  1	 57	  1	  1	  3	  6	  3	  1	  2	  0	0.39174	  0	0.70000	  0	 13	 42	 43	  1	
09-May-2013	sub2343	2343	  2	  1	 58	  1	  1	  6	  5	  3	  0	  2	  0	0.47185	  1	0.70000	  0	 16	 37	 48	  1	
09-May-2013	sub2343	2343	  2	  1	 59	  1	  1	  5	  3	  4	  1	  2	  0	1.62168	  0	0.70000	  1	 15	 45	 51	  0	
09-May-2013	sub2343	2343	  2	  1	 60	  1	  1	  1	  1	  1	  1	  1	  1	0.53721	  1	0.80000	  0	 11	 30	 31	  0	
09-May-2013	sub2343	2343	  2	  1	 61	  1	  1	  6	  5	  3	  1	  2	  1	0.50598	  1	0.80000	  0	 16	 35	 36	  0	
09-May-2013	sub2343	2343	  2	  1	 62	  1	  1	  5	  3	  4	  0	  2	  1	0.51987	  0	0.80000	  0	 15	 47	 38	  0	
09-May-2013	sub2343	2343	  2	  1	 63	  1	  1	  2	  2	  5	  1	  2	  1	0.42985	  1	0.80000	  0	 12	 30	 31	  1	
09-May-2013	sub2343	2343	  2	  1	 64	  1	  1	  3	  6	  3	  0	  2	  1	0.42754	  0	0.80000	  0	 13	 44	 39	  1	
09-May-2013	sub2343	2343	  2	  1	 65	  1	  1	  2	  2	  5	  1	  2	  1	0.24452	  1	0.80000	  0	 12	 30	 31	  1	
09-May-2013	sub2343	2343	  2	  1	 66	  1	  1	  2	  2	  5	  1	  2	  1	0.30981	  1	0.80000	  0	 12	 30	 31	  1	
09-May-2013	sub2343	2343	  2	  1	 67	  1	  1	  4	  4	  4	  0	  2	  0	0.42508	  1	0.80000	  0	 14	 34	 49	  1	
09-May-2013	sub2343	2343	  2	  1	 68	  1	  1	  2	  2	  5	  1	  2	  1	0.60987	  1	0.70000	  0	 12	 30	 31	  0	
09-May-2013	sub2343	2343	  2	  1	 69	  1	  1	  1	  1	  1	  1	  2	  0	0.24924	  0	0.70000	  0	 11	 40	 41	  1	
09-May-2013	sub2343	2343	  2	  1	 70	  1	  1	  6	  5	  3	  0	  2	  0	0.43102	  1	0.70000	  0	 16	 37	 48	  1	
09-May-2013	sub2343	2343	  2	  1	 71	  1	  1	  1	  1	  1	  1	  2	  0	0.58029	  0	0.70000	  0	 11	 40	 41	  0	
09-May-2013	sub2343	2343	  2	  1	 72	  1	  1	  3	  6	  3	  1	  2	  0	0.42887	  0	0.70000	  0	 13	 42	 43	  1	
09-May-2013	sub2343	2343	  2	  1	 73	  1	  1	  5	  3	  4	  1	  2	  0	0.41660	  0	0.70000	  0	 15	 45	 46	  1	
09-May-2013	sub2343	2343	  2	  1	 74	  1	  1	  5	  3	  4	  1	  1	  1	0.46975	  1	0.70000	  0	 15	 35	 36	  1	
09-May-2013	sub2343	2343	  2	  1	 75	  1	  1	  1	  1	  1	  1	  2	  0	0.43611	  0	0.70000	  0	 11	 40	 41	  1	
09-May-2013	sub2343	2343	  2	  1	  1	  2	  1	  2	  6	  5	  1	  2	  1	0.48432	  1	0.60000	  0	 12	 30	 31	  1	
09-May-2013	sub2343	2343	  2	  1	  2	  2	  1	  4	  1	  4	  1	  2	  1	0.42399	  1	0.30000	  1	 14	 32	 51	  1	
09-May-2013	sub2343	2343	  2	  1	  3	  2	  1	  2	  6	  5	  1	  2	  1	0.56941	  1	0.90000	  0	 12	 30	 31	  0	
09-May-2013	sub2343	2343	  2	  1	  4	  2	  1	  5	  2	  1	  0	  2	  1	0.40750	  0	0.90000	  0	 15	 47	 38	  1	
09-May-2013	sub2343	2343	  2	  1	  5	  2	  1	  5	  2	  1	  0	  2	  1	0.39406	  0	0.90000	  0	 15	 47	 38	  1	
09-May-2013	sub2343	2343	  2	  1	  6	  2	  1	  2	  6	  5	  1	  2	  1	0.32128	  1	0.90000	  0	 12	 30	 31	  1	
09-May-2013	sub2343	2343	  2	  1	  7	  2	  1	  2	  6	  5	  1	  2	  1	0.36092	  1	0.90000	  0	 12	 30	 31	  1	
09-May-2013	sub2343	2343	  2	  1	  8	  2	  1	  1	  5	  6	  1	  2	  0	0.41489	  0	0.90000	  0	 11	 40	 41	  1	
09-May-2013	sub2343	2343	  2	  1	  9	  2	  1	  2	  6	  5	  1	  2	  1	0.48638	  1	0.90000	  0	 12	 30	 31	  1	
09-May-2013	sub2343	2343	  2	  1	 10	  2	  1	  4	  1	  4	  1	  2	  1	0.58860	  1	0.90000	  0	 14	 32	 33	  0	
09-May-2013	sub2343	2343	  2	  1	 11	  2	  1	  3	  4	  1	  1	  1	  1	0.50147	  1	0.90000	  0	 13	 32	 33	  0	
09-May-2013	sub2343	2343	  2	  1	 12	  2	  1	  2	  6	  5	  1	  2	  1	0.46746	  1	0.90000	  0	 12	 30	 31	  1	
09-May-2013	sub2343	2343	  2	  1	 13	  2	  1	  3	  4	  1	  1	  2	  0	0.30546	  0	0.90000	  0	 13	 42	 43	  1	
09-May-2013	sub2343	2343	  2	  1	 14	  2	  1	  5	  2	  1	  1	  2	  0	0.38703	  0	0.90000	  0	 15	 45	 46	  1	
09-May-2013	sub2343	2343	  2	  1	 15	  2	  1	  4	  1	  4	  1	  2	  1	0.46642	  1	0.90000	  0	 14	 32	 33	  1	
09-May-2013	sub2343	2343	  2	  1	 16	  2	  1	  6	  3	  1	  1	  2	  1	0.51138	  1	0.80000	  0	 16	 35	 36	  0	
09-May-2013	sub2343	2343	  2	  1	 17	  2	  1	  5	  2	  1	  1	  1	  1	0.51759	  1	0.80000	  0	 15	 35	 36	  0	
09-May-2013	sub2343	2343	  2	  1	 18	  2	  1	  2	  6	  5	  1	  1	  0	0.44688	  0	0.70000	  0	 12	 40	 41	  1	
09-May-2013	sub2343	2343	  2	  1	 19	  2	  1	  3	  4	  1	  1	  1	  1	0.55171	  1	0.70000	  0	 13	 32	 33	  0	
09-May-2013	sub2343	2343	  2	  1	 20	  2	  1	  2	  6	  5	  1	  2	  1	0.47948	  1	0.70000	  0	 12	 30	 31	  1	
09-May-2013	sub2343	2343	  2	  1	 21	  2	  1	  6	  3	  1	  1	  1	  0	0.39168	  0	0.60000	  0	 16	 45	 46	  1	
09-May-2013	sub2343	2343	  2	  1	 22	  2	  1	  6	  3	  1	  1	  2	  1	0.35126	  1	0.60000	  0	 16	 35	 36	  1	
09-May-2013	sub2343	2343	  2	  1	 23	  2	  1	  6	  3	  1	  1	  2	  1	0.32467	  1	0.60000	  0	 16	 35	 36	  1	
09-May-2013	sub2343	2343	  2	  1	 24	  2	  1	  4	  1	  4	  1	  2	  1	0.41798	  1	0.60000	  0	 14	 32	 33	  1	
09-May-2013	sub2343	2343	  2	  1	 25	  2	  1	  3	  4	  1	  1	  2	  0	0.43093	  0	0.60000	  0	 13	 42	 43	  1	
09-May-2013	sub2343	2343	  2	  1	 26	  2	  1	  4	  1	  4	  1	  2	  1	0.43332	  1	0.50000	  0	 14	 32	 33	  1	
09-May-2013	sub2343	2343	  2	  1	 27	  2	  1	  6	  3	  1	  0	  1	  1	0.47519	  0	0.50000	  0	 16	 47	 38	  1	
09-May-2013	sub2343	2343	  2	  1	 28	  2	  1	  6	  3	  1	  0	  2	  0	0.35323	  1	0.50000	  0	 16	 37	 48	  1	
09-May-2013	sub2343	2343	  2	  1	 29	  2	  1	  2	  6	  5	  1	  2	  1	0.42503	  1	0.50000	  0	 12	 30	 31	  1	
09-May-2013	sub2343	2343	  2	  1	 30	  2	  1	  3	  4	  1	  1	  2	  0	0.74069	  0	0.50000	  1	 13	 42	 51	  0	
09-May-2013	sub2343	2343	  2	  1	 31	  2	  1	  1	  5	  6	  1	  1	  1	0.59730	  1	0.80000	  0	 11	 30	 31	  0	
09-May-2013	sub2343	2343	  2	  1	 32	  2	  1	  5	  2	  1	  1	  1	  1	0.51281	  1	0.80000	  0	 15	 35	 36	  0	
09-May-2013	sub2343	2343	  2	  1	 33	  2	  1	  2	  6	  5	  1	  2	  1	0.53172	  1	0.80000	  0	 12	 30	 31	  0	
09-May-2013	sub2343	2343	  2	  1	 34	  2	  1	  1	  5	  6	  1	  1	  1	0.51029	  1	0.80000	  0	 11	 30	 31	  0	
09-May-2013	sub2343	2343	  2	  1	 35	  2	  1	  4	  1	  4	  0	  2	  0	0.41659	  1	0.70000	  0	 14	 34	 49	  1	
09-May-2013	sub2343	2343	  2	  1	 36	  2	  1	  4	  1	  4	  1	  1	  0	0.40044	  0	0.70000	  0	 14	 42	 43	  1	
09-May-2013	sub2343	2343	  2	  1	 37	  2	  1	  4	  1	  4	  1	  1	  0	0.41543	  0	0.70000	  0	 14	 42	 43	  1	
09-May-2013	sub2343	2343	  2	  1	 38	  2	  1	  4	  1	  4	  1	  2	  1	0.36266	  1	0.70000	  0	 14	 32	 33	  1	
09-May-2013	sub2343	2343	  2	  1	 39	  2	  1	  6	  3	  1	  0	  2	  0	0.51398	  1	0.70000	  0	 16	 37	 48	  0	
09-May-2013	sub2343	2343	  2	  1	 40	  2	  1	  2	  6	  5	  1	  2	  1	0.42889	  1	0.70000	  0	 12	 30	 31	  1	
09-May-2013	sub2343	2343	  2	  1	 41	  2	  1	  3	  4	  1	  1	  2	  0	0.38069	  0	0.60000	  0	 13	 42	 43	  1	
09-May-2013	sub2343	2343	  2	  1	 42	  2	  1	  1	  5	  6	  1	  2	  0	0.45053	  0	0.60000	  0	 11	 40	 41	  1	
09-May-2013	sub2343	2343	  2	  1	 43	  2	  1	  3	  4	  1	  1	  1	  1	0.51014	  1	0.60000	  0	 13	 32	 33	  0	
09-May-2013	sub2343	2343	  2	  1	 44	  2	  1	  5	  2	  1	  0	  1	  0	0.47297	  1	0.60000	  0	 15	 37	 48	  1	
09-May-2013	sub2343	2343	  2	  1	 45	  2	  1	  1	  5	  6	  1	  2	  0	0.63142	  0	0.60000	  1	 11	 40	 51	  0	
09-May-2013	sub2343	2343	  2	  1	 46	  2	  1	  6	  3	  1	  1	  1	  0	0.54991	  0	0.80000	  0	 16	 45	 46	  0	
09-May-2013	sub2343	2343	  2	  1	 47	  2	  1	  1	  5	  6	  1	  1	  1	0.77213	  1	0.80000	  0	 11	 30	 31	  0	
09-May-2013	sub2343	2343	  2	  1	 48	  2	  1	  6	  3	  1	  0	  2	  0	0.40172	  1	0.80000	  0	 16	 37	 48	  1	
09-May-2013	sub2343	2343	  2	  1	 49	  2	  1	  3	  4	  1	  1	  1	  1	0.75173	  1	0.80000	  0	 13	 32	 33	  0	
09-May-2013	sub2343	2343	  2	  1	 50	  2	  1	  3	  4	  1	  0	  1	  0	0.37688	  1	0.80000	  0	 13	 34	 49	  1	
09-May-2013	sub2343	2343	  2	  1	 51	  2	  1	  5	  2	  1	  1	  2	  0	0.48530	  0	0.70000	  0	 15	 45	 46	  1	
09-May-2013	sub2343	2343	  2	  1	 52	  2	  1	  1	  5	  6	  1	  2	  0	0.39994	  0	0.70000	  0	 11	 40	 41	  1	
09-May-2013	sub2343	2343	  2	  1	 53	  2	  1	  1	  5	  6	  1	  1	  1	0.50576	  1	0.70000	  0	 11	 30	 31	  0	
09-May-2013	sub2343	2343	  2	  1	 54	  2	  1	  3	  4	  1	  1	  1	  1	0.52011	  1	0.70000	  0	 13	 32	 33	  0	
09-May-2013	sub2343	2343	  2	  1	 55	  2	  1	  5	  2	  1	  1	  2	  0	0.54841	  0	0.70000	  0	 15	 45	 46	  0	
09-May-2013	sub2343	2343	  2	  1	 56	  2	  1	  4	  1	  4	  0	  2	  0	0.46854	  1	0.70000	  0	 14	 34	 49	  1	
09-May-2013	sub2343	2343	  2	  1	 57	  2	  1	  6	  3	  1	  0	  2	  0	0.51579	  1	0.70000	  0	 16	 37	 48	  0	
09-May-2013	sub2343	2343	  2	  1	 58	  2	  1	  6	  3	  1	  1	  1	  0	0.53392	  0	0.70000	  0	 16	 45	 46	  0	
09-May-2013	sub2343	2343	  2	  1	 59	  2	  1	  2	  6	  5	  1	  2	  1	0.42390	  1	0.70000	  0	 12	 30	 31	  1	
09-May-2013	sub2343	2343	  2	  1	 60	  2	  1	  3	  4	  1	  0	  2	  1	0.47763	  0	0.70000	  0	 13	 44	 39	  1	
09-May-2013	sub2343	2343	  2	  1	 61	  2	  1	  5	  2	  1	  1	  2	  0	0.44441	  0	0.60000	  0	 15	 45	 46	  1	
09-May-2013	sub2343	2343	  2	  1	 62	  2	  1	  6	  3	  1	  0	  2	  0	0.42774	  1	0.60000	  0	 16	 37	 48	  1	
09-May-2013	sub2343	2343	  2	  1	 63	  2	  1	  1	  5	  6	  1	  2	  0	0.55821	  0	0.60000	  0	 11	 40	 41	  0	
09-May-2013	sub2343	2343	  2	  1	 64	  2	  1	  5	  2	  1	  1	  2	  0	0.63474	  0	0.60000	  1	 15	 45	 51	  0	
09-May-2013	sub2343	2343	  2	  1	 65	  2	  1	  1	  5	  6	  1	  1	  1	0.62714	  1	0.80000	  0	 11	 30	 31	  0	
09-May-2013	sub2343	2343	  2	  1	 66	  2	  1	  3	  4	  1	  1	  1	  1	0.58986	  1	0.80000	  0	 13	 32	 33	  0	
09-May-2013	sub2343	2343	  2	  1	 67	  2	  1	  4	  1	  4	  1	  1	  0	0.68941	  0	0.80000	  0	 14	 42	 43	  0	
09-May-2013	sub2343	2343	  2	  1	 68	  2	  1	  2	  6	  5	  1	  2	  1	0.44711	  1	0.70000	  0	 12	 30	 31	  1	
09-May-2013	sub2343	2343	  2	  1	 69	  2	  1	  1	  5	  6	  1	  1	  1	0.47282	  1	0.70000	  0	 11	 30	 31	  1	
09-May-2013	sub2343	2343	  2	  1	 70	  2	  1	  6	  3	  1	  0	  2	  0	0.65710	  1	0.70000	  0	 16	 37	 48	  0	
09-May-2013	sub2343	2343	  2	  1	 71	  2	  1	  5	  2	  1	  0	  2	  1	0.59459	  0	0.70000	  0	 15	 47	 38	  0	
09-May-2013	sub2343	2343	  2	  1	 72	  2	  1	  4	  1	  4	  1	  1	  0	0.63530	  0	0.70000	  0	 14	 42	 43	  0	
09-May-2013	sub2343	2343	  2	  1	 73	  2	  1	  1	  5	  6	  1	  1	  1	0.55226	  1	0.70000	  0	 11	 30	 31	  0	
09-May-2013	sub2343	2343	  2	  1	 74	  2	  1	  3	  4	  1	  0	  2	  1	0.61243	  0	0.70000	  0	 13	 44	 39	  0	
09-May-2013	sub2343	2343	  2	  1	 75	  2	  1	  5	  2	  1	  0	  1	  0	0.68578	  1	0.70000	  0	 15	 37	 48	  0	
09-May-2013	sub2343	2343	  2	  1	 76	  2	  2	  4	  1	  4	  1	  1	  0	0.61601	  0	0.70000	  0	 24	 82	 83	  0	
09-May-2013	sub2343	2343	  2	  1	 77	  2	  2	  1	  5	  6	  1	  2	  0	0.45057	  0	0.70000	  0	 21	 80	 81	  1	
09-May-2013	sub2343	2343	  2	  1	 78	  2	  2	  5	  2	  1	  0	  2	  1	0.41551	  0	0.70000	  0	 25	 87	 68	  1	
09-May-2013	sub2343	2343	  2	  1	 79	  2	  2	  2	  6	  5	  1	  2	  1	0.44936	  1	0.70000	  0	 22	 60	 61	  1	
09-May-2013	sub2343	2343	  2	  1	 80	  2	  2	  2	  6	  5	  1	  2	  1	0.35317	  1	0.70000	  0	 22	 60	 61	  1	
09-May-2013	sub2343	2343	  2	  1	 81	  2	  2	  6	  3	  1	  0	  2	  0	0.53394	  1	0.60000	  0	 26	 67	 88	  0	
09-May-2013	sub2343	2343	  2	  1	 82	  2	  2	  1	  5	  6	  1	  1	  1	0.56717	  1	0.60000	  0	 21	 60	 61	  0	
09-May-2013	sub2343	2343	  2	  1	 83	  2	  2	  4	  1	  4	  1	  2	  1	0.57986	  1	0.60000	  0	 24	 62	 63	  0	
09-May-2013	sub2343	2343	  2	  1	 84	  2	  2	  1	  5	  6	  1	  1	  1	0.86074	  1	0.60000	  1	 21	 60	 51	  0	
09-May-2013	sub2343	2343	  2	  1	 85	  2	  2	  5	  2	  1	  0	  2	  1	0.44674	  0	0.70000	  0	 25	 87	 68	  1	
09-May-2013	sub2343	2343	  2	  1	 86	  2	  2	  2	  6	  5	  1	  2	  1	0.52843	  1	0.70000	  0	 22	 60	 61	  0	
09-May-2013	sub2343	2343	  2	  1	 87	  2	  2	  6	  3	  1	  0	  2	  0	0.46117	  1	0.70000	  0	 26	 67	 88	  1	
09-May-2013	sub2343	2343	  2	  1	 88	  2	  2	  3	  4	  1	  1	  2	  0	0.43624	  0	0.70000	  0	 23	 82	 83	  1	
09-May-2013	sub2343	2343	  2	  1	 89	  2	  2	  5	  2	  1	  0	  2	  1	0.46753	  0	0.70000	  0	 25	 87	 68	  1	
09-May-2013	sub2343	2343	  2	  1	 90	  2	  2	  3	  4	  1	  1	  1	  1	0.50649	  1	0.70000	  0	 23	 62	 63	  0	
09-May-2013	sub2343	2343	  2	  1	 91	  2	  2	  3	  4	  1	  1	  1	  1	0.39653	  1	0.70000	  0	 23	 62	 63	  1	
09-May-2013	sub2343	2343	  2	  1	 92	  2	  2	  6	  3	  1	  0	  1	  1	0.41044	  0	0.70000	  0	 26	 87	 68	  1	
09-May-2013	sub2343	2343	  2	  1	 93	  2	  2	  4	  1	  4	  1	  1	  0	0.69241	  0	0.70000	  0	 24	 82	 83	  0	
09-May-2013	sub2343	2343	  2	  1	 94	  2	  2	  2	  6	  5	  1	  2	  1	0.52077	  1	0.70000	  0	 22	 60	 61	  0	
09-May-2013	sub2343	2343	  2	  1	 95	  2	  2	  6	  3	  1	  1	  2	  1	0.62365	  1	0.70000	  0	 26	 65	 66	  0	
09-May-2013	sub2343	2343	  2	  1	 96	  2	  2	  4	  1	  4	  1	  2	  1	0.50406	  1	0.70000	  0	 24	 62	 63	  0	
09-May-2013	sub2343	2343	  2	  1	 97	  2	  2	  1	  5	  6	  1	  1	  1	0.58780	  1	0.70000	  0	 21	 60	 61	  0	
09-May-2013	sub2343	2343	  2	  1	 98	  2	  2	  4	  1	  4	  1	  2	  1	0.45146	  1	0.70000	  0	 24	 62	 63	  1	
09-May-2013	sub2343	2343	  2	  1	 99	  2	  2	  4	  1	  4	  1	  2	  1	0.32421	  1	0.70000	  0	 24	 62	 63	  1	
09-May-2013	sub2343	2343	  2	  1	100	  2	  2	  5	  2	  1	  0	  2	  1	0.53425	  0	0.70000	  0	 25	 87	 68	  0	
09-May-2013	sub2343	2343	  2	  1	101	  2	  2	  2	  6	  5	  1	  2	  1	0.46218	  1	0.60000	  0	 22	 60	 61	  1	
09-May-2013	sub2343	2343	  2	  1	102	  2	  2	  1	  5	  6	  1	  1	  1	0.41250	  1	0.60000	  0	 21	 60	 61	  1	
09-May-2013	sub2343	2343	  2	  1	103	  2	  2	  1	  5	  6	  1	  1	  1	0.38936	  1	0.60000	  0	 21	 60	 61	  1	
09-May-2013	sub2343	2343	  2	  1	104	  2	  2	  3	  4	  1	  1	  1	  1	0.52780	  1	0.60000	  0	 23	 62	 63	  0	
09-May-2013	sub2343	2343	  2	  1	105	  2	  2	  1	  5	  6	  1	  1	  1	0.48025	  1	0.60000	  0	 21	 60	 61	  1	
09-May-2013	sub2343	2343	  2	  1	106	  2	  2	  5	  2	  1	  0	  1	  0	0.45766	  1	0.60000	  0	 25	 67	 88	  1	
09-May-2013	sub2343	2343	  2	  1	107	  2	  2	  1	  5	  6	  1	  2	  0	0.40231	  0	0.60000	  0	 21	 80	 81	  1	
09-May-2013	sub2343	2343	  2	  1	108	  2	  2	  2	  6	  5	  1	  1	  0	0.42676	  0	0.60000	  0	 22	 80	 81	  1	
09-May-2013	sub2343	2343	  2	  1	109	  2	  2	  5	  2	  1	  0	  2	  1	0.51343	  0	0.60000	  0	 25	 87	 68	  0	
09-May-2013	sub2343	2343	  2	  1	110	  2	  2	  4	  1	  4	  1	  2	  1	0.41685	  1	0.60000	  0	 24	 62	 63	  1	
09-May-2013	sub2343	2343	  2	  1	111	  2	  2	  6	  3	  1	  1	  2	  1	0.38718	  1	0.60000	  0	 26	 65	 66	  1	
09-May-2013	sub2343	2343	  2	  1	112	  2	  2	  3	  4	  1	  0	  1	  0	0.61333	  1	0.60000	  1	 23	 64	 51	  0	
09-May-2013	sub2343	2343	  2	  1	113	  2	  2	  6	  3	  1	  0	  1	  1	0.50237	  0	0.70000	  0	 26	 87	 68	  0	
09-May-2013	sub2343	2343	  2	  1	114	  2	  2	  3	  4	  1	  1	  1	  1	0.54493	  1	0.70000	  0	 23	 62	 63	  0	
09-May-2013	sub2343	2343	  2	  1	115	  2	  2	  5	  2	  1	  0	  2	  1	0.62954	  0	0.70000	  0	 25	 87	 68	  0	
09-May-2013	sub2343	2343	  2	  1	116	  2	  2	  4	  1	  4	  0	  2	  0	0.36231	  1	0.70000	  0	 24	 64	 89	  1	
09-May-2013	sub2343	2343	  2	  1	117	  2	  2	  5	  2	  1	  0	  2	  1	0.42337	  0	0.70000	  0	 25	 87	 68	  1	
09-May-2013	sub2343	2343	  2	  1	118	  2	  2	  6	  3	  1	  1	  2	  1	0.56441	  1	0.70000	  0	 26	 65	 66	  0	
09-May-2013	sub2343	2343	  2	  1	119	  2	  2	  1	  5	  6	  1	  1	  1	0.49932	  1	0.70000	  0	 21	 60	 61	  1	
09-May-2013	sub2343	2343	  2	  1	120	  2	  2	  6	  3	  1	  0	  1	  1	0.72727	  0	0.70000	  1	 26	 87	 51	  0	
09-May-2013	sub2343	2343	  2	  1	121	  2	  2	  3	  4	  1	  1	  1	  1	0.64117	  1	0.70000	  0	 23	 62	 63	  0	
09-May-2013	sub2343	2343	  2	  1	122	  2	  2	  5	  2	  1	  0	  2	  1	0.48432	  0	0.70000	  0	 25	 87	 68	  1	
09-May-2013	sub2343	2343	  2	  1	123	  2	  2	  2	  6	  5	  1	  2	  1	0.57266	  1	0.70000	  0	 22	 60	 61	  0	
09-May-2013	sub2343	2343	  2	  1	124	  2	  2	  6	  3	  1	  1	  2	  1	0.41012	  1	0.70000	  0	 26	 65	 66	  1	
09-May-2013	sub2343	2343	  2	  1	125	  2	  2	  3	  4	  1	  1	  1	  1	0.62036	  1	0.70000	  0	 23	 62	 63	  0	
09-May-2013	sub2343	2343	  2	  1	126	  2	  2	  6	  3	  1	  0	  2	  0	0.55758	  1	0.70000	  0	 26	 67	 88	  0	
09-May-2013	sub2343	2343	  2	  1	127	  2	  2	  3	  4	  1	  1	  1	  1	0.55524	  1	0.70000	  0	 23	 62	 63	  0	
09-May-2013	sub2343	2343	  2	  1	128	  2	  2	  1	  5	  6	  1	  1	  1	0.57348	  1	0.70000	  0	 21	 60	 61	  0	
09-May-2013	sub2343	2343	  2	  1	129	  2	  2	  6	  3	  1	  1	  2	  1	0.64242	  1	0.70000	  0	 26	 65	 66	  0	
09-May-2013	sub2343	2343	  2	  1	130	  2	  2	  4	  1	  4	  0	  2	  0	0.45340	  1	0.70000	  0	 24	 64	 89	  1	
09-May-2013	sub2343	2343	  2	  1	131	  2	  2	  1	  5	  6	  1	  1	  1	0.54878	  1	0.70000	  0	 21	 60	 61	  0	
09-May-2013	sub2343	2343	  2	  1	132	  2	  2	  4	  1	  4	  1	  2	  1	0.40175	  1	0.70000	  0	 24	 62	 63	  1	
09-May-2013	sub2343	2343	  2	  1	133	  2	  2	  5	  2	  1	  0	  2	  1	0.48076	  0	0.70000	  0	 25	 87	 68	  1	
09-May-2013	sub2343	2343	  2	  1	134	  2	  2	  6	  3	  1	  1	  2	  1	0.39534	  1	0.70000	  0	 26	 65	 66	  1	
09-May-2013	sub2343	2343	  2	  1	135	  2	  2	  2	  6	  5	  1	  1	  0	0.41003	  0	0.70000	  0	 22	 80	 81	  1	
09-May-2013	sub2343	2343	  2	  1	136	  2	  2	  1	  5	  6	  1	  1	  1	0.62671	  1	0.70000	  0	 21	 60	 61	  0	
09-May-2013	sub2343	2343	  2	  1	137	  2	  2	  2	  6	  5	  1	  2	  1	0.58585	  1	0.70000	  0	 22	 60	 61	  0	
09-May-2013	sub2343	2343	  2	  1	138	  2	  2	  2	  6	  5	  1	  2	  1	0.40996	  1	0.70000	  0	 22	 60	 61	  1	
09-May-2013	sub2343	2343	  2	  1	139	  2	  2	  1	  5	  6	  1	  1	  1	0.54085	  1	0.70000	  0	 21	 60	 61	  0	
09-May-2013	sub2343	2343	  2	  1	140	  2	  2	  3	  4	  1	  1	  1	  1	0.59300	  1	0.70000	  0	 23	 62	 63	  0	
09-May-2013	sub2343	2343	  2	  1	141	  2	  2	  5	  2	  1	  0	  2	  1	0.53840	  0	0.60000	  0	 25	 87	 68	  0	
09-May-2013	sub2343	2343	  2	  1	142	  2	  2	  2	  6	  5	  1	  2	  1	0.35694	  1	0.60000	  0	 22	 60	 61	  1	
09-May-2013	sub2343	2343	  2	  1	143	  2	  2	  4	  1	  4	  1	  2	  1	0.37204	  1	0.60000	  0	 24	 62	 63	  1	
09-May-2013	sub2343	2343	  2	  1	144	  2	  2	  3	  4	  1	  1	  2	  0	0.39782	  0	0.60000	  0	 23	 82	 83	  1	
09-May-2013	sub2343	2343	  2	  1	145	  2	  2	  5	  2	  1	  0	  2	  1	0.48935	  0	0.60000	  0	 25	 87	 68	  1	
09-May-2013	sub2343	2343	  2	  1	146	  2	  2	  3	  4	  1	  0	  2	  1	0.46164	  0	0.60000	  0	 23	 84	 69	  1	
09-May-2013	sub2343	2343	  2	  1	147	  2	  2	  4	  1	  4	  0	  2	  0	0.43247	  1	0.60000	  0	 24	 64	 89	  1	
09-May-2013	sub2343	2343	  2	  1	148	  2	  2	  5	  2	  1	  0	  2	  1	0.50218	  0	0.60000	  0	 25	 87	 68	  0	
09-May-2013	sub2343	2343	  2	  1	149	  2	  2	  2	  6	  5	  1	  2	  1	0.56334	  1	0.60000	  0	 22	 60	 61	  0	
09-May-2013	sub2343	2343	  2	  1	150	  2	  2	  4	  1	  4	  1	  2	  1	0.49063	  1	0.60000	  0	 24	 62	 63	  1	
09-May-2013	sub2343	2343	  2	  1	  1	  3	  1	  1	  6	  2	  1	  2	  0	0.38454	  0	0.60000	  0	 11	 40	 41	  1	
09-May-2013	sub2343	2343	  2	  1	  2	  3	  1	  4	  1	  6	  1	  2	  1	0.51679	  1	0.30000	  1	 14	 32	 51	  0	
09-May-2013	sub2343	2343	  2	  1	  3	  3	  1	  3	  5	  4	  0	  2	  1	0.49138	  0	0.90000	  0	 13	 44	 39	  1	
09-May-2013	sub2343	2343	  2	  1	  4	  3	  1	  3	  5	  4	  1	  2	  0	0.39091	  0	0.90000	  0	 13	 42	 43	  1	
09-May-2013	sub2343	2343	  2	  1	  5	  3	  1	  5	  2	  4	  1	  2	  0	0.52981	  0	0.90000	  0	 15	 45	 46	  0	
09-May-2013	sub2343	2343	  2	  1	  6	  3	  1	  1	  6	  2	  1	  1	  1	0.61161	  1	0.90000	  0	 11	 30	 31	  0	
09-May-2013	sub2343	2343	  2	  1	  7	  3	  1	  4	  1	  6	  1	  1	  0	0.61958	  0	0.90000	  0	 14	 42	 43	  0	
09-May-2013	sub2343	2343	  2	  1	  8	  3	  1	  3	  5	  4	  1	  1	  1	0.66593	  1	0.90000	  0	 13	 32	 33	  0	
09-May-2013	sub2343	2343	  2	  1	  9	  3	  1	  2	  4	  2	  1	  1	  0	0.61119	  0	0.90000	  0	 12	 40	 41	  0	
09-May-2013	sub2343	2343	  2	  1	 10	  3	  1	  5	  2	  4	  1	  1	  1	0.62673	  1	0.90000	  0	 15	 35	 36	  0	
09-May-2013	sub2343	2343	  2	  1	 11	  3	  1	  2	  4	  2	  1	  1	  0	0.49607	  0	0.90000	  0	 12	 40	 41	  1	
09-May-2013	sub2343	2343	  2	  1	 12	  3	  1	  3	  5	  4	  1	  1	  1	0.46222	  1	0.90000	  0	 13	 32	 33	  1	
09-May-2013	sub2343	2343	  2	  1	 13	  3	  1	  5	  2	  4	  1	  1	  1	0.44290	  1	0.90000	  0	 15	 35	 36	  1	
09-May-2013	sub2343	2343	  2	  1	 14	  3	  1	  1	  6	  2	  1	  1	  1	0.48763	  1	0.90000	  0	 11	 30	 31	  1	
09-May-2013	sub2343	2343	  2	  1	 15	  3	  1	  3	  5	  4	  0	  1	  0	0.38203	  1	0.90000	  0	 13	 34	 49	  1	
09-May-2013	sub2343	2343	  2	  1	 16	  3	  1	  2	  4	  2	  1	  1	  0	0.40912	  0	0.80000	  0	 12	 40	 41	  1	
09-May-2013	sub2343	2343	  2	  1	 17	  3	  1	  3	  5	  4	  1	  1	  1	0.43636	  1	0.80000	  0	 13	 32	 33	  1	
09-May-2013	sub2343	2343	  2	  1	 18	  3	  1	  4	  1	  6	  1	  1	  0	0.41078	  0	0.70000	  0	 14	 42	 43	  1	
09-May-2013	sub2343	2343	  2	  1	 19	  3	  1	  6	  3	  2	  1	  1	  0	0.44900	  0	0.70000	  0	 16	 45	 46	  1	
09-May-2013	sub2343	2343	  2	  1	 20	  3	  1	  6	  3	  2	  1	  2	  1	0.58367	  1	0.70000	  0	 16	 35	 36	  0	
09-May-2013	sub2343	2343	  2	  1	 21	  3	  1	  1	  6	  2	  1	  1	  1	0.44249	  1	0.60000	  0	 11	 30	 31	  1	
09-May-2013	sub2343	2343	  2	  1	 22	  3	  1	  6	  3	  2	  0	  2	  0	0.53839	  1	0.60000	  0	 16	 37	 48	  0	
09-May-2013	sub2343	2343	  2	  1	 23	  3	  1	  2	  4	  2	  1	  2	  1	0.68580	  1	0.60000	  1	 12	 30	 51	  0	
09-May-2013	sub2343	2343	  2	  1	 24	  3	  1	  6	  3	  2	  0	  2	  0	0.45115	  1	0.90000	  0	 16	 37	 48	  1	
09-May-2013	sub2343	2343	  2	  1	 25	  3	  1	  6	  3	  2	  0	  2	  0	0.49363	  1	0.90000	  0	 16	 37	 48	  1	
09-May-2013	sub2343	2343	  2	  1	 26	  3	  1	  6	  3	  2	  1	  1	  0	0.49278	  0	0.90000	  0	 16	 45	 46	  1	
09-May-2013	sub2343	2343	  2	  1	 27	  3	  1	  4	  1	  6	  1	  1	  0	0.56459	  0	0.90000	  0	 14	 42	 43	  0	
09-May-2013	sub2343	2343	  2	  1	 28	  3	  1	  3	  5	  4	  0	  1	  0	0.62532	  1	0.90000	  0	 13	 34	 49	  0	
09-May-2013	sub2343	2343	  2	  1	 29	  3	  1	  5	  2	  4	  0	  1	  0	0.62657	  1	0.90000	  0	 15	 37	 48	  0	
09-May-2013	sub2343	2343	  2	  1	 30	  3	  1	  4	  1	  6	  1	  1	  0	0.49081	  0	0.80000	  0	 14	 42	 43	  1	
09-May-2013	sub2343	2343	  2	  1	 31	  3	  1	  2	  4	  2	  1	  2	  1	0.55027	  1	0.80000	  0	 12	 30	 31	  0	
09-May-2013	sub2343	2343	  2	  1	 32	  3	  1	  1	  6	  2	  1	  2	  0	0.43077	  0	0.80000	  0	 11	 40	 41	  1	
09-May-2013	sub2343	2343	  2	  1	 33	  3	  1	  4	  1	  6	  0	  2	  0	0.49889	  1	0.80000	  0	 14	 34	 49	  1	
09-May-2013	sub2343	2343	  2	  1	 34	  3	  1	  1	  6	  2	  1	  1	  1	0.61246	  1	0.80000	  0	 11	 30	 31	  0	
09-May-2013	sub2343	2343	  2	  1	 35	  3	  1	  1	  6	  2	  1	  1	  1	0.48986	  1	0.70000	  0	 11	 30	 31	  1	
09-May-2013	sub2343	2343	  2	  1	 36	  3	  1	  3	  5	  4	  1	  1	  1	0.51877	  1	0.70000	  0	 13	 32	 33	  0	
09-May-2013	sub2343	2343	  2	  1	 37	  3	  1	  5	  2	  4	  1	  2	  0	0.41458	  0	0.70000	  0	 15	 45	 46	  1	
09-May-2013	sub2343	2343	  2	  1	 38	  3	  1	  4	  1	  6	  1	  2	  1	0.63552	  1	0.70000	  0	 14	 32	 33	  0	
09-May-2013	sub2343	2343	  2	  1	 39	  3	  1	  6	  3	  2	  0	  2	  0	0.47659	  1	0.70000	  0	 16	 37	 48	  1	
09-May-2013	sub2343	2343	  2	  1	 40	  3	  1	  2	  4	  2	  1	  1	  0	0.57351	  0	0.70000	  0	 12	 40	 41	  0	
09-May-2013	sub2343	2343	  2	  1	 41	  3	  1	  1	  6	  2	  1	  1	  1	0.42958	  1	0.60000	  0	 11	 30	 31	  1	
09-May-2013	sub2343	2343	  2	  1	 42	  3	  1	  4	  1	  6	  1	  1	  0	0.39666	  0	0.60000	  0	 14	 42	 43	  1	
09-May-2013	sub2343	2343	  2	  1	 43	  3	  1	  3	  5	  4	  1	  1	  1	0.52643	  1	0.60000	  0	 13	 32	 33	  0	
09-May-2013	sub2343	2343	  2	  1	 44	  3	  1	  1	  6	  2	  1	  1	  1	0.50139	  1	0.60000	  0	 11	 30	 31	  0	
09-May-2013	sub2343	2343	  2	  1	 45	  3	  1	  3	  5	  4	  1	  1	  1	0.46945	  1	0.60000	  0	 13	 32	 33	  1	
09-May-2013	sub2343	2343	  2	  1	 46	  3	  1	  6	  3	  2	  0	  2	  0	0.49641	  1	0.60000	  0	 16	 37	 48	  1	
09-May-2013	sub2343	2343	  2	  1	 47	  3	  1	  5	  2	  4	  1	  1	  1	0.74292	  1	0.60000	  1	 15	 35	 51	  0	
09-May-2013	sub2343	2343	  2	  1	 48	  3	  1	  4	  1	  6	  1	  2	  1	0.59051	  1	0.80000	  0	 14	 32	 33	  0	
09-May-2013	sub2343	2343	  2	  1	 49	  3	  1	  4	  1	  6	  0	  2	  0	0.41100	  1	0.80000	  0	 14	 34	 49	  1	
09-May-2013	sub2343	2343	  2	  1	 50	  3	  1	  2	  4	  2	  1	  1	  0	0.51581	  0	0.80000	  0	 12	 40	 41	  0	
09-May-2013	sub2343	2343	  2	  1	 51	  3	  1	  2	  4	  2	  1	  2	  1	0.52255	  1	0.70000	  0	 12	 30	 31	  0	
09-May-2013	sub2343	2343	  2	  1	 52	  3	  1	  6	  3	  2	  1	  2	  1	0.56423	  1	0.70000	  0	 16	 35	 36	  0	
09-May-2013	sub2343	2343	  2	  1	 53	  3	  1	  4	  1	  6	  1	  2	  1	0.50277	  1	0.70000	  0	 14	 32	 33	  0	
09-May-2013	sub2343	2343	  2	  1	 54	  3	  1	  5	  2	  4	  1	  2	  0	0.55385	  0	0.70000	  0	 15	 45	 46	  0	
09-May-2013	sub2343	2343	  2	  1	 55	  3	  1	  5	  2	  4	  0	  1	  0	0.51618	  1	0.70000	  0	 15	 37	 48	  0	
09-May-2013	sub2343	2343	  2	  1	 56	  3	  1	  4	  1	  6	  1	  2	  1	0.50372	  1	0.70000	  0	 14	 32	 33	  0	
09-May-2013	sub2343	2343	  2	  1	 57	  3	  1	  3	  5	  4	  1	  1	  1	0.54820	  1	0.70000	  0	 13	 32	 33	  0	
09-May-2013	sub2343	2343	  2	  1	 58	  3	  1	  5	  2	  4	  0	  1	  0	0.55928	  1	0.70000	  0	 15	 37	 48	  0	
09-May-2013	sub2343	2343	  2	  1	 59	  3	  1	  5	  2	  4	  0	  1	  0	0.48422	  1	0.70000	  0	 15	 37	 48	  1	
09-May-2013	sub2343	2343	  2	  1	 60	  3	  1	  1	  6	  2	  1	  1	  1	0.60858	  1	0.70000	  0	 11	 30	 31	  0	
09-May-2013	sub2343	2343	  2	  1	 61	  3	  1	  1	  6	  2	  1	  1	  1	0.41892	  1	0.60000	  0	 11	 30	 31	  1	
09-May-2013	sub2343	2343	  2	  1	 62	  3	  1	  2	  4	  2	  1	  2	  1	0.42292	  1	0.60000	  0	 12	 30	 31	  1	
09-May-2013	sub2343	2343	  2	  1	 63	  3	  1	  2	  4	  2	  1	  2	  1	0.44702	  1	0.60000	  0	 12	 30	 31	  1	
09-May-2013	sub2343	2343	  2	  1	 64	  3	  1	  5	  2	  4	  1	  2	  0	0.67328	  0	0.60000	  1	 15	 45	 51	  0	
09-May-2013	sub2343	2343	  2	  1	 65	  3	  1	  6	  3	  2	  1	  2	  1	0.52890	  1	0.80000	  0	 16	 35	 36	  0	
09-May-2013	sub2343	2343	  2	  1	 66	  3	  1	  6	  3	  2	  0	  2	  0	0.42209	  1	0.80000	  0	 16	 37	 48	  1	
09-May-2013	sub2343	2343	  2	  1	 67	  3	  1	  2	  4	  2	  1	  2	  1	0.55525	  1	0.80000	  0	 12	 30	 31	  0	
09-May-2013	sub2343	2343	  2	  1	 68	  3	  1	  5	  2	  4	  0	  1	  0	0.70014	  1	0.70000	  1	 15	 37	 51	  0	
09-May-2013	sub2343	2343	  2	  1	 69	  3	  1	  2	  4	  2	  1	  1	  0	0.43283	  0	0.90000	  0	 12	 40	 41	  1	
09-May-2013	sub2343	2343	  2	  1	 70	  3	  1	  3	  5	  4	  1	  1	  1	0.43661	  1	0.90000	  0	 13	 32	 33	  1	
09-May-2013	sub2343	2343	  2	  1	 71	  3	  1	  2	  4	  2	  1	  2	  1	0.50663	  1	0.90000	  0	 12	 30	 31	  0	
09-May-2013	sub2343	2343	  2	  1	 72	  3	  1	  1	  6	  2	  1	  1	  1	0.59517	  1	0.90000	  0	 11	 30	 31	  0	
09-May-2013	sub2343	2343	  2	  1	 73	  3	  1	  6	  3	  2	  1	  2	  1	0.52644	  1	0.80000	  0	 16	 35	 36	  0	
09-May-2013	sub2343	2343	  2	  1	 74	  3	  1	  3	  5	  4	  1	  1	  1	0.57754	  1	0.80000	  0	 13	 32	 33	  0	
09-May-2013	sub2343	2343	  2	  1	 75	  3	  1	  6	  3	  2	  0	  2	  0	0.46653	  1	0.80000	  0	 16	 37	 48	  1	
09-May-2013	sub2343	2343	  2	  1	 76	  3	  2	  6	  3	  2	  0	  2	  0	0.39768	  1	0.80000	  0	 26	 67	 88	  1	
09-May-2013	sub2343	2343	  2	  1	 77	  3	  2	  1	  6	  2	  1	  1	  1	0.54292	  1	0.80000	  0	 21	 60	 61	  0	
09-May-2013	sub2343	2343	  2	  1	 78	  3	  2	  5	  2	  4	  0	  1	  0	0.58788	  1	0.80000	  0	 25	 67	 88	  0	
09-May-2013	sub2343	2343	  2	  1	 79	  3	  2	  3	  5	  4	  1	  1	  1	0.49456	  1	0.80000	  0	 23	 62	 63	  1	
09-May-2013	sub2343	2343	  2	  1	 80	  3	  2	  6	  3	  2	  1	  2	  1	0.45470	  1	0.80000	  0	 26	 65	 66	  1	
09-May-2013	sub2343	2343	  2	  1	 81	  3	  2	  1	  6	  2	  1	  1	  1	0.52176	  1	0.80000	  0	 21	 60	 61	  0	
09-May-2013	sub2343	2343	  2	  1	 82	  3	  2	  4	  1	  6	  1	  2	  1	0.53048	  1	0.80000	  0	 24	 62	 63	  0	
09-May-2013	sub2343	2343	  2	  1	 83	  3	  2	  3	  5	  4	  1	  1	  1	0.54212	  1	0.80000	  0	 23	 62	 63	  0	
09-May-2013	sub2343	2343	  2	  1	 84	  3	  2	  6	  3	  2	  0	  2	  0	0.43603	  1	0.80000	  0	 26	 67	 88	  1	
09-May-2013	sub2343	2343	  2	  1	 85	  3	  2	  1	  6	  2	  1	  1	  1	0.46593	  1	0.70000	  0	 21	 60	 61	  1	
09-May-2013	sub2343	2343	  2	  1	 86	  3	  2	  6	  3	  2	  1	  1	  0	0.52516	  0	0.70000	  0	 26	 85	 86	  0	
09-May-2013	sub2343	2343	  2	  1	 87	  3	  2	  5	  2	  4	  0	  1	  0	0.50349	  1	0.70000	  0	 25	 67	 88	  0	
09-May-2013	sub2343	2343	  2	  1	 88	  3	  2	  2	  4	  2	  1	  2	  1	0.56349	  1	0.70000	  0	 22	 60	 61	  0	
09-May-2013	sub2343	2343	  2	  1	 89	  3	  2	  6	  3	  2	  1	  2	  1	0.39302	  1	0.70000	  0	 26	 65	 66	  1	
09-May-2013	sub2343	2343	  2	  1	 90	  3	  2	  2	  4	  2	  1	  2	  1	0.57072	  1	0.70000	  0	 22	 60	 61	  0	
09-May-2013	sub2343	2343	  2	  1	 91	  3	  2	  2	  4	  2	  1	  2	  1	0.43944	  1	0.70000	  0	 22	 60	 61	  1	
09-May-2013	sub2343	2343	  2	  1	 92	  3	  2	  3	  5	  4	  1	  1	  1	0.46719	  1	0.70000	  0	 23	 62	 63	  1	
09-May-2013	sub2343	2343	  2	  1	 93	  3	  2	  3	  5	  4	  1	  1	  1	0.52468	  1	0.70000	  0	 23	 62	 63	  0	
09-May-2013	sub2343	2343	  2	  1	 94	  3	  2	  1	  6	  2	  1	  1	  1	0.46982	  1	0.70000	  0	 21	 60	 61	  1	
09-May-2013	sub2343	2343	  2	  1	 95	  3	  2	  2	  4	  2	  1	  2	  1	0.59940	  1	0.70000	  0	 22	 60	 61	  0	
09-May-2013	sub2343	2343	  2	  1	 96	  3	  2	  5	  2	  4	  0	  1	  0	0.58695	  1	0.70000	  0	 25	 67	 88	  0	
09-May-2013	sub2343	2343	  2	  1	 97	  3	  2	  1	  6	  2	  1	  1	  1	0.46714	  1	0.70000	  0	 21	 60	 61	  1	
09-May-2013	sub2343	2343	  2	  1	 98	  3	  2	  4	  1	  6	  1	  2	  1	0.46598	  1	0.70000	  0	 24	 62	 63	  1	
09-May-2013	sub2343	2343	  2	  1	 99	  3	  2	  5	  2	  4	  0	  1	  0	0.51703	  1	0.70000	  0	 25	 67	 88	  0	
09-May-2013	sub2343	2343	  2	  1	100	  3	  2	  5	  2	  4	  0	  2	  1	0.56092	  0	0.70000	  0	 25	 87	 68	  0	
09-May-2013	sub2343	2343	  2	  1	101	  3	  2	  6	  3	  2	  1	  2	  1	0.45412	  1	0.60000	  0	 26	 65	 66	  1	
09-May-2013	sub2343	2343	  2	  1	102	  3	  2	  2	  4	  2	  1	  2	  1	0.54308	  1	0.60000	  0	 22	 60	 61	  0	
09-May-2013	sub2343	2343	  2	  1	103	  3	  2	  2	  4	  2	  1	  2	  1	0.52458	  1	0.60000	  0	 22	 60	 61	  0	
09-May-2013	sub2343	2343	  2	  1	104	  3	  2	  3	  5	  4	  1	  1	  1	0.53999	  1	0.60000	  0	 23	 62	 63	  0	
09-May-2013	sub2343	2343	  2	  1	105	  3	  2	  5	  2	  4	  0	  1	  0	0.48241	  1	0.60000	  0	 25	 67	 88	  1	
09-May-2013	sub2343	2343	  2	  1	106	  3	  2	  4	  1	  6	  1	  2	  1	0.45943	  1	0.60000	  0	 24	 62	 63	  1	
09-May-2013	sub2343	2343	  2	  1	107	  3	  2	  1	  6	  2	  1	  1	  1	0.45038	  1	0.60000	  0	 21	 60	 61	  1	
09-May-2013	sub2343	2343	  2	  1	108	  3	  2	  4	  1	  6	  1	  2	  1	0.48150	  1	0.60000	  0	 24	 62	 63	  1	
09-May-2013	sub2343	2343	  2	  1	109	  3	  2	  3	  5	  4	  1	  1	  1	0.43654	  1	0.60000	  0	 23	 62	 63	  1	
09-May-2013	sub2343	2343	  2	  1	110	  3	  2	  5	  2	  4	  0	  2	  1	0.67877	  0	0.60000	  1	 25	 87	 51	  0	
09-May-2013	sub2343	2343	  2	  1	111	  3	  2	  1	  6	  2	  1	  1	  1	0.49542	  1	0.70000	  0	 21	 60	 61	  1	
09-May-2013	sub2343	2343	  2	  1	112	  3	  2	  1	  6	  2	  1	  1	  1	0.45706	  1	0.70000	  0	 21	 60	 61	  1	
09-May-2013	sub2343	2343	  2	  1	113	  3	  2	  4	  1	  6	  0	  2	  0	0.49700	  1	0.70000	  0	 24	 64	 89	  1	
09-May-2013	sub2343	2343	  2	  1	114	  3	  2	  1	  6	  2	  1	  1	  1	0.47956	  1	0.70000	  0	 21	 60	 61	  1	
09-May-2013	sub2343	2343	  2	  1	115	  3	  2	  4	  1	  6	  1	  2	  1	0.49628	  1	0.70000	  0	 24	 62	 63	  1	
09-May-2013	sub2343	2343	  2	  1	116	  3	  2	  1	  6	  2	  1	  1	  1	0.45783	  1	0.70000	  0	 21	 60	 61	  1	
09-May-2013	sub2343	2343	  2	  1	117	  3	  2	  2	  4	  2	  1	  2	  1	0.49857	  1	0.70000	  0	 22	 60	 61	  1	
09-May-2013	sub2343	2343	  2	  1	118	  3	  2	  4	  1	  6	  0	  2	  0	0.44238	  1	0.70000	  0	 24	 64	 89	  1	
09-May-2013	sub2343	2343	  2	  1	119	  3	  2	  4	  1	  6	  1	  2	  1	0.38125	  1	0.70000	  0	 24	 62	 63	  1	
09-May-2013	sub2343	2343	  2	  1	120	  3	  2	  3	  5	  4	  1	  1	  1	0.42617	  1	0.70000	  0	 23	 62	 63	  1	
09-May-2013	sub2343	2343	  2	  1	121	  3	  2	  1	  6	  2	  1	  1	  1	0.38121	  1	0.60000	  0	 21	 60	 61	  1	
09-May-2013	sub2343	2343	  2	  1	122	  3	  2	  2	  4	  2	  1	  2	  1	0.42572	  1	0.60000	  0	 22	 60	 61	  1	
09-May-2013	sub2343	2343	  2	  1	123	  3	  2	  2	  4	  2	  1	  2	  1	0.47269	  1	0.60000	  0	 22	 60	 61	  1	
09-May-2013	sub2343	2343	  2	  1	124	  3	  2	  5	  2	  4	  0	  1	  0	0.61653	  1	0.60000	  1	 25	 67	 51	  0	
09-May-2013	sub2343	2343	  2	  1	125	  3	  2	  4	  1	  6	  1	  2	  1	0.46696	  1	0.70000	  0	 24	 62	 63	  1	
09-May-2013	sub2343	2343	  2	  1	126	  3	  2	  3	  5	  4	  1	  1	  1	0.54246	  1	0.70000	  0	 23	 62	 63	  0	
09-May-2013	sub2343	2343	  2	  1	127	  3	  2	  3	  5	  4	  1	  1	  1	0.42005	  1	0.70000	  0	 23	 62	 63	  1	
09-May-2013	sub2343	2343	  2	  1	128	  3	  2	  5	  2	  4	  0	  2	  1	0.55656	  0	0.70000	  0	 25	 87	 68	  0	
09-May-2013	sub2343	2343	  2	  1	129	  3	  2	  1	  6	  2	  1	  1	  1	0.45086	  1	0.70000	  0	 21	 60	 61	  1	
09-May-2013	sub2343	2343	  2	  1	130	  3	  2	  5	  2	  4	  0	  2	  1	0.63118	  0	0.70000	  0	 25	 87	 68	  0	
09-May-2013	sub2343	2343	  2	  1	131	  3	  2	  3	  5	  4	  0	  1	  0	0.55409	  1	0.70000	  0	 23	 64	 89	  0	
09-May-2013	sub2343	2343	  2	  1	132	  3	  2	  3	  5	  4	  0	  1	  0	0.42903	  1	0.70000	  0	 23	 64	 89	  1	
09-May-2013	sub2343	2343	  2	  1	133	  3	  2	  6	  3	  2	  0	  2	  0	0.41652	  1	0.70000	  0	 26	 67	 88	  1	
09-May-2013	sub2343	2343	  2	  1	134	  3	  2	  3	  5	  4	  1	  1	  1	0.42784	  1	0.70000	  0	 23	 62	 63	  1	
09-May-2013	sub2343	2343	  2	  1	135	  3	  2	  6	  3	  2	  1	  2	  1	0.45254	  1	0.70000	  0	 26	 65	 66	  1	
09-May-2013	sub2343	2343	  2	  1	136	  3	  2	  2	  4	  2	  1	  2	  1	0.59370	  1	0.70000	  0	 22	 60	 61	  0	
09-May-2013	sub2343	2343	  2	  1	137	  3	  2	  4	  1	  6	  0	  2	  0	0.54952	  1	0.70000	  0	 24	 64	 89	  0	
09-May-2013	sub2343	2343	  2	  1	138	  3	  2	  4	  1	  6	  1	  2	  1	0.38745	  1	0.70000	  0	 24	 62	 63	  1	
09-May-2013	sub2343	2343	  2	  1	139	  3	  2	  6	  3	  2	  0	  2	  0	0.41926	  1	0.70000	  0	 26	 67	 88	  1	
09-May-2013	sub2343	2343	  2	  1	140	  3	  2	  2	  4	  2	  1	  2	  1	0.43993	  1	0.70000	  0	 22	 60	 61	  1	
09-May-2013	sub2343	2343	  2	  1	141	  3	  2	  6	  3	  2	  0	  2	  0	0.46139	  1	0.60000	  0	 26	 67	 88	  1	
09-May-2013	sub2343	2343	  2	  1	142	  3	  2	  6	  3	  2	  1	  2	  1	0.37761	  1	0.60000	  0	 26	 65	 66	  1	
09-May-2013	sub2343	2343	  2	  1	143	  3	  2	  4	  1	  6	  1	  2	  1	0.42710	  1	0.60000	  0	 24	 62	 63	  1	
09-May-2013	sub2343	2343	  2	  1	144	  3	  2	  5	  2	  4	  0	  2	  1	0.54219	  0	0.60000	  0	 25	 87	 68	  0	
09-May-2013	sub2343	2343	  2	  1	145	  3	  2	  2	  4	  2	  1	  2	  1	0.53717	  1	0.60000	  0	 22	 60	 61	  0	
09-May-2013	sub2343	2343	  2	  1	146	  3	  2	  4	  1	  6	  1	  2	  1	0.38446	  1	0.60000	  0	 24	 62	 63	  1	
09-May-2013	sub2343	2343	  2	  1	147	  3	  2	  5	  2	  4	  0	  2	  1	0.53060	  0	0.60000	  0	 25	 87	 68	  0	
09-May-2013	sub2343	2343	  2	  1	148	  3	  2	  1	  6	  2	  1	  1	  1	0.49408	  1	0.60000	  0	 21	 60	 61	  1	
09-May-2013	sub2343	2343	  2	  1	149	  3	  2	  5	  2	  4	  0	  2	  1	0.59835	  0	0.60000	  0	 25	 87	 68	  0	
09-May-2013	sub2343	2343	  2	  1	150	  3	  2	  6	  3	  2	  0	  2	  0	0.45557	  1	0.60000	  0	 26	 67	 88	  1	
09-May-2013	sub2343	2343	  2	  1	  1	  4	  1	  4	  6	  6	  1	  2	  1	0.50669	  1	0.60000	  0	 14	 32	 33	  0	
09-May-2013	sub2343	2343	  2	  1	  2	  4	  1	  6	  2	  3	  1	  2	  1	0.37792	  1	0.30000	  1	 16	 35	 51	  1	
09-May-2013	sub2343	2343	  2	  1	  3	  4	  1	  2	  4	  3	  1	  2	  1	0.31626	  1	0.90000	  0	 12	 30	 31	  1	
09-May-2013	sub2343	2343	  2	  1	  4	  4	  1	  3	  3	  3	  1	  2	  0	0.32343	  0	0.90000	  0	 13	 42	 43	  1	
09-May-2013	sub2343	2343	  2	  1	  5	  4	  1	  2	  4	  3	  1	  2	  1	0.36008	  1	0.90000	  0	 12	 30	 31	  1	
09-May-2013	sub2343	2343	  2	  1	  6	  4	  1	  3	  3	  3	  1	  2	  0	0.38880	  0	0.90000	  0	 13	 42	 43	  1	
09-May-2013	sub2343	2343	  2	  1	  7	  4	  1	  6	  2	  3	  1	  2	  1	0.38108	  1	0.90000	  0	 16	 35	 36	  1	
09-May-2013	sub2343	2343	  2	  1	  8	  4	  1	  4	  6	  6	  1	  2	  1	0.53270	  1	0.90000	  0	 14	 32	 33	  0	
09-May-2013	sub2343	2343	  2	  1	  9	  4	  1	  4	  6	  6	  1	  2	  1	0.43259	  1	0.90000	  0	 14	 32	 33	  1	
09-May-2013	sub2343	2343	  2	  1	 10	  4	  1	  4	  6	  6	  0	  2	  0	0.40890	  1	0.90000	  0	 14	 34	 49	  1	
09-May-2013	sub2343	2343	  2	  1	 11	  4	  1	  4	  6	  6	  1	  2	  1	0.40016	  1	0.90000	  0	 14	 32	 33	  1	
09-May-2013	sub2343	2343	  2	  1	 12	  4	  1	  1	  1	  2	  1	  1	  1	0.62566	  1	0.90000	  0	 11	 30	 31	  0	
09-May-2013	sub2343	2343	  2	  1	 13	  4	  1	  3	  3	  3	  1	  1	  1	0.68494	  1	0.90000	  0	 13	 32	 33	  0	
09-May-2013	sub2343	2343	  2	  1	 14	  4	  1	  2	  4	  3	  1	  2	  1	0.44317	  1	0.90000	  0	 12	 30	 31	  1	
09-May-2013	sub2343	2343	  2	  1	 15	  4	  1	  5	  5	  5	  0	  2	  1	0.46507	  0	0.90000	  0	 15	 47	 38	  1	
09-May-2013	sub2343	2343	  2	  1	 16	  4	  1	  6	  2	  3	  1	  2	  1	0.42172	  1	0.80000	  0	 16	 35	 36	  1	
09-May-2013	sub2343	2343	  2	  1	 17	  4	  1	  5	  5	  5	  1	  2	  0	0.51160	  0	0.80000	  0	 15	 45	 46	  0	
09-May-2013	sub2343	2343	  2	  1	 18	  4	  1	  5	  5	  5	  0	  2	  1	0.61312	  0	0.70000	  0	 15	 47	 38	  0	
09-May-2013	sub2343	2343	  2	  1	 19	  4	  1	  6	  2	  3	  1	  1	  0	0.56412	  0	0.70000	  0	 16	 45	 46	  0	
09-May-2013	sub2343	2343	  2	  1	 20	  4	  1	  2	  4	  3	  1	  1	  0	0.47301	  0	0.70000	  0	 12	 40	 41	  1	
09-May-2013	sub2343	2343	  2	  1	 21	  4	  1	  5	  5	  5	  1	  1	  1	0.68246	  1	0.60000	  1	 15	 35	 51	  0	
09-May-2013	sub2343	2343	  2	  1	 22	  4	  1	  6	  2	  3	  0	  1	  1	0.49026	  0	0.90000	  0	 16	 47	 38	  1	
09-May-2013	sub2343	2343	  2	  1	 23	  4	  1	  4	  6	  6	  0	  2	  0	0.51616	  1	0.90000	  0	 14	 34	 49	  0	
09-May-2013	sub2343	2343	  2	  1	 24	  4	  1	  3	  3	  3	  1	  2	  0	0.49898	  0	0.90000	  0	 13	 42	 43	  1	
09-May-2013	sub2343	2343	  2	  1	 25	  4	  1	  5	  5	  5	  1	  2	  0	0.54738	  0	0.90000	  0	 15	 45	 46	  0	
09-May-2013	sub2343	2343	  2	  1	 26	  4	  1	  6	  2	  3	  0	  2	  0	0.65530	  1	0.90000	  0	 16	 37	 48	  0	
09-May-2013	sub2343	2343	  2	  1	 27	  4	  1	  2	  4	  3	  1	  1	  0	0.47425	  0	0.90000	  0	 12	 40	 41	  1	
09-May-2013	sub2343	2343	  2	  1	 28	  4	  1	  5	  5	  5	  0	  2	  1	0.60572	  0	0.90000	  0	 15	 47	 38	  0	
09-May-2013	sub2343	2343	  2	  1	 29	  4	  1	  5	  5	  5	  1	  2	  0	0.46411	  0	0.90000	  0	 15	 45	 46	  1	
09-May-2013	sub2343	2343	  2	  1	 30	  4	  1	  6	  2	  3	  1	  2	  1	0.40612	  1	0.80000	  0	 16	 35	 36	  1	
09-May-2013	sub2343	2343	  2	  1	 31	  4	  1	  2	  4	  3	  1	  2	  1	0.48805	  1	0.80000	  0	 12	 30	 31	  1	
09-May-2013	sub2343	2343	  2	  1	 32	  4	  1	  1	  1	  2	  1	  2	  0	0.49894	  0	0.80000	  0	 11	 40	 41	  1	
09-May-2013	sub2343	2343	  2	  1	 33	  4	  1	  3	  3	  3	  0	  2	  1	0.55093	  0	0.80000	  0	 13	 44	 39	  0	
09-May-2013	sub2343	2343	  2	  1	 34	  4	  1	  1	  1	  2	  1	  2	  0	0.50073	  0	0.80000	  0	 11	 40	 41	  0	
09-May-2013	sub2343	2343	  2	  1	 35	  4	  1	  6	  2	  3	  1	  2	  1	0.59963	  1	0.70000	  0	 16	 35	 36	  0	
09-May-2013	sub2343	2343	  2	  1	 36	  4	  1	  2	  4	  3	  1	  2	  1	0.41744	  1	0.70000	  0	 12	 30	 31	  1	
09-May-2013	sub2343	2343	  2	  1	 37	  4	  1	  2	  4	  3	  1	  2	  1	0.39314	  1	0.70000	  0	 12	 30	 31	  1	
09-May-2013	sub2343	2343	  2	  1	 38	  4	  1	  5	  5	  5	  0	  2	  1	0.54012	  0	0.70000	  0	 15	 47	 38	  0	
09-May-2013	sub2343	2343	  2	  1	 39	  4	  1	  1	  1	  2	  1	  2	  0	0.51638	  0	0.70000	  0	 11	 40	 41	  0	
09-May-2013	sub2343	2343	  2	  1	 40	  4	  1	  2	  4	  3	  1	  2	  1	0.55237	  1	0.70000	  0	 12	 30	 31	  0	
09-May-2013	sub2343	2343	  2	  1	 41	  4	  1	  3	  3	  3	  1	  1	  1	0.53702	  1	0.60000	  0	 13	 32	 33	  0	
09-May-2013	sub2343	2343	  2	  1	 42	  4	  1	  6	  2	  3	  0	  2	  0	0.55060	  1	0.60000	  0	 16	 37	 48	  0	
09-May-2013	sub2343	2343	  2	  1	 43	  4	  1	  2	  4	  3	  1	  2	  1	0.42248	  1	0.60000	  0	 12	 30	 31	  1	
09-May-2013	sub2343	2343	  2	  1	 44	  4	  1	  3	  3	  3	  1	  2	  0	0.41435	  0	0.60000	  0	 13	 42	 43	  1	
09-May-2013	sub2343	2343	  2	  1	 45	  4	  1	  1	  1	  2	  1	  2	  0	0.41983	  0	0.60000	  0	 11	 40	 41	  1	
09-May-2013	sub2343	2343	  2	  1	 46	  4	  1	  3	  3	  3	  1	  1	  1	0.57932	  1	0.60000	  0	 13	 32	 33	  0	
09-May-2013	sub2343	2343	  2	  1	 47	  4	  1	  1	  1	  2	  1	  2	  0	0.49344	  0	0.60000	  0	 11	 40	 41	  1	
09-May-2013	sub2343	2343	  2	  1	 48	  4	  1	  5	  5	  5	  1	  1	  1	0.57031	  1	0.60000	  0	 15	 35	 36	  0	
09-May-2013	sub2343	2343	  2	  1	 49	  4	  1	  1	  1	  2	  1	  2	  0	0.48662	  0	0.60000	  0	 11	 40	 41	  1	
09-May-2013	sub2343	2343	  2	  1	 50	  4	  1	  3	  3	  3	  1	  1	  1	0.56444	  1	0.60000	  0	 13	 32	 33	  0	
09-May-2013	sub2343	2343	  2	  1	 51	  4	  1	  6	  2	  3	  0	  2	  0	0.44796	  1	0.50000	  0	 16	 37	 48	  1	
09-May-2013	sub2343	2343	  2	  1	 52	  4	  1	  1	  1	  2	  1	  1	  1	0.63930	  1	0.50000	  1	 11	 30	 51	  0	
09-May-2013	sub2343	2343	  2	  1	 53	  4	  1	  1	  1	  2	  1	  1	  1	0.44385	  1	0.70000	  0	 11	 30	 31	  1	
09-May-2013	sub2343	2343	  2	  1	 54	  4	  1	  3	  3	  3	  1	  1	  1	0.43418	  1	0.70000	  0	 13	 32	 33	  1	
09-May-2013	sub2343	2343	  2	  1	 55	  4	  1	  5	  5	  5	  1	  1	  1	0.66387	  1	0.70000	  0	 15	 35	 36	  0	
09-May-2013	sub2343	2343	  2	  1	 56	  4	  1	  4	  6	  6	  1	  1	  0	0.59113	  0	0.70000	  0	 14	 42	 43	  0	
09-May-2013	sub2343	2343	  2	  1	 57	  4	  1	  4	  6	  6	  1	  2	  1	0.40643	  1	0.70000	  0	 14	 32	 33	  1	
09-May-2013	sub2343	2343	  2	  1	 58	  4	  1	  6	  2	  3	  1	  2	  1	0.41126	  1	0.70000	  0	 16	 35	 36	  1	
09-May-2013	sub2343	2343	  2	  1	 59	  4	  1	  2	  4	  3	  1	  2	  1	0.50412	  1	0.70000	  0	 12	 30	 31	  0	
09-May-2013	sub2343	2343	  2	  1	 60	  4	  1	  1	  1	  2	  1	  1	  1	0.58245	  1	0.70000	  0	 11	 30	 31	  0	
09-May-2013	sub2343	2343	  2	  1	 61	  4	  1	  6	  2	  3	  0	  1	  1	0.56323	  0	0.60000	  0	 16	 47	 38	  0	
09-May-2013	sub2343	2343	  2	  1	 62	  4	  1	  2	  4	  3	  1	  2	  1	0.52972	  1	0.60000	  0	 12	 30	 31	  0	
09-May-2013	sub2343	2343	  2	  1	 63	  4	  1	  4	  6	  6	  1	  2	  1	0.53249	  1	0.60000	  0	 14	 32	 33	  0	
09-May-2013	sub2343	2343	  2	  1	 64	  4	  1	  1	  1	  2	  1	  1	  1	0.51719	  1	0.60000	  0	 11	 30	 31	  0	
09-May-2013	sub2343	2343	  2	  1	 65	  4	  1	  2	  4	  3	  1	  2	  1	0.56358	  1	0.60000	  0	 12	 30	 31	  0	
09-May-2013	sub2343	2343	  2	  1	 66	  4	  1	  4	  6	  6	  1	  2	  1	0.40282	  1	0.60000	  0	 14	 32	 33	  1	
09-May-2013	sub2343	2343	  2	  1	 67	  4	  1	  3	  3	  3	  0	  1	  0	0.42875	  1	0.60000	  0	 13	 34	 49	  1	
09-May-2013	sub2343	2343	  2	  1	 68	  4	  1	  3	  3	  3	  1	  1	  1	0.51884	  1	0.60000	  0	 13	 32	 33	  0	
09-May-2013	sub2343	2343	  2	  1	 69	  4	  1	  1	  1	  2	  1	  1	  1	0.51577	  1	0.60000	  0	 11	 30	 31	  0	
09-May-2013	sub2343	2343	  2	  1	 70	  4	  1	  4	  6	  6	  1	  2	  1	0.53617	  1	0.60000	  0	 14	 32	 33	  0	
09-May-2013	sub2343	2343	  2	  1	 71	  4	  1	  5	  5	  5	  0	  1	  0	0.49680	  1	0.60000	  0	 15	 37	 48	  1	
09-May-2013	sub2343	2343	  2	  1	 72	  4	  1	  5	  5	  5	  0	  1	  0	0.41074	  1	0.60000	  0	 15	 37	 48	  1	
09-May-2013	sub2343	2343	  2	  1	 73	  4	  1	  3	  3	  3	  0	  1	  0	0.53624	  1	0.60000	  0	 13	 34	 49	  0	
09-May-2013	sub2343	2343	  2	  1	 74	  4	  1	  4	  6	  6	  1	  2	  1	0.56369	  1	0.60000	  0	 14	 32	 33	  0	
09-May-2013	sub2343	2343	  2	  1	 75	  4	  1	  6	  2	  3	  0	  2	  0	0.66622	  1	0.60000	  1	 16	 37	 51	  0	
09-May-2013	sub2343	2343	  2	  1	 76	  4	  2	  5	  5	  5	  0	  1	  0	0.66598	  1	0.70000	  0	 25	 67	 88	  0	
09-May-2013	sub2343	2343	  2	  1	 77	  4	  2	  2	  4	  3	  1	  2	  1	0.45506	  1	0.70000	  0	 22	 60	 61	  1	
09-May-2013	sub2343	2343	  2	  1	 78	  4	  2	  1	  1	  2	  1	  1	  1	0.49236	  1	0.70000	  0	 21	 60	 61	  1	
09-May-2013	sub2343	2343	  2	  1	 79	  4	  2	  5	  5	  5	  0	  1	  0	0.63065	  1	0.70000	  0	 25	 67	 88	  0	
09-May-2013	sub2343	2343	  2	  1	 80	  4	  2	  4	  6	  6	  1	  2	  1	0.53064	  1	0.70000	  0	 24	 62	 63	  0	
09-May-2013	sub2343	2343	  2	  1	 81	  4	  2	  3	  3	  3	  1	  1	  1	0.56237	  1	0.60000	  0	 23	 62	 63	  0	
09-May-2013	sub2343	2343	  2	  1	 82	  4	  2	  2	  4	  3	  1	  2	  1	0.37399	  1	0.60000	  0	 22	 60	 61	  1	
09-May-2013	sub2343	2343	  2	  1	 83	  4	  2	  3	  3	  3	  1	  1	  1	0.56894	  1	0.60000	  0	 23	 62	 63	  0	
09-May-2013	sub2343	2343	  2	  1	 84	  4	  2	  2	  4	  3	  1	  2	  1	0.40099	  1	0.60000	  0	 22	 60	 61	  1	
09-May-2013	sub2343	2343	  2	  1	 85	  4	  2	  4	  6	  6	  1	  2	  1	0.45042	  1	0.60000	  0	 24	 62	 63	  1	
09-May-2013	sub2343	2343	  2	  1	 86	  4	  2	  5	  5	  5	  0	  1	  0	0.54722	  1	0.60000	  0	 25	 67	 88	  0	
09-May-2013	sub2343	2343	  2	  1	 87	  4	  2	  2	  4	  3	  1	  2	  1	0.39875	  1	0.60000	  0	 22	 60	 61	  1	
09-May-2013	sub2343	2343	  2	  1	 88	  4	  2	  2	  4	  3	  1	  2	  1	0.31553	  1	0.60000	  0	 22	 60	 61	  1	
09-May-2013	sub2343	2343	  2	  1	 89	  4	  2	  5	  5	  5	  0	  2	  1	0.49736	  0	0.60000	  0	 25	 87	 68	  1	
09-May-2013	sub2343	2343	  2	  1	 90	  4	  2	  2	  4	  3	  1	  2	  1	0.36156	  1	0.60000	  0	 22	 60	 61	  1	
09-May-2013	sub2343	2343	  2	  1	 91	  4	  2	  5	  5	  5	  0	  2	  1	0.46284	  0	0.60000	  0	 25	 87	 68	  1	
09-May-2013	sub2343	2343	  2	  1	 92	  4	  2	  4	  6	  6	  1	  2	  1	0.47018	  1	0.60000	  0	 24	 62	 63	  1	
09-May-2013	sub2343	2343	  2	  1	 93	  4	  2	  3	  3	  3	  1	  1	  1	0.61758	  1	0.60000	  1	 23	 62	 51	  0	
09-May-2013	sub2343	2343	  2	  1	 94	  4	  2	  5	  5	  5	  0	  2	  1	0.47156	  0	0.70000	  0	 25	 87	 68	  1	
09-May-2013	sub2343	2343	  2	  1	 95	  4	  2	  5	  5	  5	  0	  2	  1	0.39186	  0	0.70000	  0	 25	 87	 68	  1	
09-May-2013	sub2343	2343	  2	  1	 96	  4	  2	  5	  5	  5	  0	  2	  1	0.34187	  0	0.70000	  0	 25	 87	 68	  1	
09-May-2013	sub2343	2343	  2	  1	 97	  4	  2	  3	  3	  3	  1	  2	  0	0.33033	  0	0.70000	  0	 23	 82	 83	  1	
09-May-2013	sub2343	2343	  2	  1	 98	  4	  2	  5	  5	  5	  0	  2	  1	0.38859	  0	0.70000	  0	 25	 87	 68	  1	
09-May-2013	sub2343	2343	  2	  1	 99	  4	  2	  5	  5	  5	  0	  2	  1	0.40791	  0	0.70000	  0	 25	 87	 68	  1	
09-May-2013	sub2343	2343	  2	  1	100	  4	  2	  4	  6	  6	  1	  2	  1	0.48656	  1	0.70000	  0	 24	 62	 63	  1	
09-May-2013	sub2343	2343	  2	  1	101	  4	  2	  2	  4	  3	  1	  2	  1	0.38910	  1	0.60000	  0	 22	 60	 61	  1	
09-May-2013	sub2343	2343	  2	  1	102	  4	  2	  4	  6	  6	  0	  2	  0	0.47858	  1	0.60000	  0	 24	 64	 89	  1	
09-May-2013	sub2343	2343	  2	  1	103	  4	  2	  1	  1	  2	  1	  1	  1	0.65096	  1	0.60000	  1	 21	 60	 51	  0	
09-May-2013	sub2343	2343	  2	  1	104	  4	  2	  1	  1	  2	  1	  1	  1	0.46701	  1	0.70000	  0	 21	 60	 61	  1	
09-May-2013	sub2343	2343	  2	  1	105	  4	  2	  2	  4	  3	  1	  2	  1	0.44919	  1	0.70000	  0	 22	 60	 61	  1	
09-May-2013	sub2343	2343	  2	  1	106	  4	  2	  3	  3	  3	  1	  1	  1	0.56846	  1	0.70000	  0	 23	 62	 63	  0	
09-May-2013	sub2343	2343	  2	  1	107	  4	  2	  5	  5	  5	  0	  2	  1	0.39783	  0	0.70000	  0	 25	 87	 68	  1	
09-May-2013	sub2343	2343	  2	  1	108	  4	  2	  6	  2	  3	  0	  2	  0	0.58742	  1	0.70000	  0	 26	 67	 88	  0	
09-May-2013	sub2343	2343	  2	  1	109	  4	  2	  6	  2	  3	  1	  1	  0	0.39520	  0	0.70000	  0	 26	 85	 86	  1	
09-May-2013	sub2343	2343	  2	  1	110	  4	  2	  2	  4	  3	  1	  2	  1	0.50584	  1	0.70000	  0	 22	 60	 61	  0	
09-May-2013	sub2343	2343	  2	  1	111	  4	  2	  5	  5	  5	  0	  2	  1	0.39721	  0	0.70000	  0	 25	 87	 68	  1	
09-May-2013	sub2343	2343	  2	  1	112	  4	  2	  4	  6	  6	  1	  2	  1	0.31930	  1	0.70000	  0	 24	 62	 63	  1	
09-May-2013	sub2343	2343	  2	  1	113	  4	  2	  6	  2	  3	  0	  2	  0	0.58357	  1	0.70000	  0	 26	 67	 88	  0	
09-May-2013	sub2343	2343	  2	  1	114	  4	  2	  4	  6	  6	  0	  2	  0	0.59200	  1	0.70000	  0	 24	 64	 89	  0	
09-May-2013	sub2343	2343	  2	  1	115	  4	  2	  3	  3	  3	  1	  1	  1	0.48620	  1	0.70000	  0	 23	 62	 63	  1	
09-May-2013	sub2343	2343	  2	  1	116	  4	  2	  6	  2	  3	  1	  1	  0	0.47808	  0	0.70000	  0	 26	 85	 86	  1	
09-May-2013	sub2343	2343	  2	  1	117	  4	  2	  1	  1	  2	  1	  1	  1	0.49005	  1	0.70000	  0	 21	 60	 61	  1	
09-May-2013	sub2343	2343	  2	  1	118	  4	  2	  3	  3	  3	  1	  1	  1	0.45285	  1	0.70000	  0	 23	 62	 63	  1	
09-May-2013	sub2343	2343	  2	  1	119	  4	  2	  4	  6	  6	  0	  2	  0	0.59236	  1	0.70000	  0	 24	 64	 89	  0	
09-May-2013	sub2343	2343	  2	  1	120	  4	  2	  6	  2	  3	  1	  2	  1	0.53800	  1	0.70000	  0	 26	 65	 66	  0	
09-May-2013	sub2343	2343	  2	  1	121	  4	  2	  3	  3	  3	  0	  1	  0	0.55819	  1	0.60000	  0	 23	 64	 89	  0	
09-May-2013	sub2343	2343	  2	  1	122	  4	  2	  1	  1	  2	  1	  2	  0	0.39330	  0	0.60000	  0	 21	 80	 81	  1	
09-May-2013	sub2343	2343	  2	  1	123	  4	  2	  4	  6	  6	  1	  2	  1	0.46793	  1	0.60000	  0	 24	 62	 63	  1	
09-May-2013	sub2343	2343	  2	  1	124	  4	  2	  3	  3	  3	  1	  1	  1	0.47371	  1	0.60000	  0	 23	 62	 63	  1	
09-May-2013	sub2343	2343	  2	  1	125	  4	  2	  6	  2	  3	  0	  2	  0	0.57503	  1	0.60000	  0	 26	 67	 88	  0	
09-May-2013	sub2343	2343	  2	  1	126	  4	  2	  2	  4	  3	  1	  2	  1	0.42540	  1	0.60000	  0	 22	 60	 61	  1	
09-May-2013	sub2343	2343	  2	  1	127	  4	  2	  6	  2	  3	  0	  2	  0	0.51365	  1	0.60000	  0	 26	 67	 88	  0	
09-May-2013	sub2343	2343	  2	  1	128	  4	  2	  6	  2	  3	  1	  2	  1	0.49036	  1	0.60000	  0	 26	 65	 66	  1	
09-May-2013	sub2343	2343	  2	  1	129	  4	  2	  1	  1	  2	  1	  1	  1	0.53319	  1	0.60000	  0	 21	 60	 61	  0	
09-May-2013	sub2343	2343	  2	  1	130	  4	  2	  6	  2	  3	  1	  1	  0	0.53141	  0	0.60000	  0	 26	 85	 86	  0	
09-May-2013	sub2343	2343	  2	  1	131	  4	  2	  6	  2	  3	  1	  2	  1	0.52863	  1	0.60000	  0	 26	 65	 66	  0	
09-May-2013	sub2343	2343	  2	  1	132	  4	  2	  1	  1	  2	  1	  1	  1	0.58676	  1	0.60000	  0	 21	 60	 61	  0	
09-May-2013	sub2343	2343	  2	  1	133	  4	  2	  6	  2	  3	  0	  2	  0	0.64736	  1	0.60000	  1	 26	 67	 51	  0	
09-May-2013	sub2343	2343	  2	  1	134	  4	  2	  4	  6	  6	  1	  2	  1	0.47620	  1	0.70000	  0	 24	 62	 63	  1	
09-May-2013	sub2343	2343	  2	  1	135	  4	  2	  1	  1	  2	  1	  1	  1	0.66944	  1	0.70000	  0	 21	 60	 61	  0	
09-May-2013	sub2343	2343	  2	  1	136	  4	  2	  4	  6	  6	  1	  2	  1	0.38971	  1	0.70000	  0	 24	 62	 63	  1	
09-May-2013	sub2343	2343	  2	  1	137	  4	  2	  4	  6	  6	  1	  2	  1	0.35856	  1	0.70000	  0	 24	 62	 63	  1	
09-May-2013	sub2343	2343	  2	  1	138	  4	  2	  2	  4	  3	  1	  2	  1	0.46516	  1	0.70000	  0	 22	 60	 61	  1	
09-May-2013	sub2343	2343	  2	  1	139	  4	  2	  5	  5	  5	  0	  2	  1	0.53310	  0	0.70000	  0	 25	 87	 68	  0	
09-May-2013	sub2343	2343	  2	  1	140	  4	  2	  2	  4	  3	  1	  2	  1	0.41167	  1	0.70000	  0	 22	 60	 61	  1	
09-May-2013	sub2343	2343	  2	  1	141	  4	  2	  4	  6	  6	  1	  2	  1	0.34512	  1	0.60000	  0	 24	 62	 63	  1	
09-May-2013	sub2343	2343	  2	  1	142	  4	  2	  3	  3	  3	  1	  1	  1	0.53993	  1	0.60000	  0	 23	 62	 63	  0	
09-May-2013	sub2343	2343	  2	  1	143	  4	  2	  1	  1	  2	  1	  2	  0	0.51323	  0	0.60000	  0	 21	 80	 81	  0	
09-May-2013	sub2343	2343	  2	  1	144	  4	  2	  1	  1	  2	  1	  1	  1	0.43269	  1	0.60000	  0	 21	 60	 61	  1	
09-May-2013	sub2343	2343	  2	  1	145	  4	  2	  6	  2	  3	  0	  2	  0	0.49573	  1	0.60000	  0	 26	 67	 88	  1	
09-May-2013	sub2343	2343	  2	  1	146	  4	  2	  1	  1	  2	  1	  1	  1	0.56269	  1	0.60000	  0	 21	 60	 61	  0	
09-May-2013	sub2343	2343	  2	  1	147	  4	  2	  1	  1	  2	  1	  2	  0	0.43363	  0	0.60000	  0	 21	 80	 81	  1	
09-May-2013	sub2343	2343	  2	  1	148	  4	  2	  1	  1	  2	  1	  1	  1	0.48615	  1	0.60000	  0	 21	 60	 61	  1	
09-May-2013	sub2343	2343	  2	  1	149	  4	  2	  3	  3	  3	  0	  1	  0	0.57512	  1	0.60000	  0	 23	 64	 89	  0	
09-May-2013	sub2343	2343	  2	  1	150	  4	  2	  3	  3	  3	  1	  1	  1	0.38966	  1	0.60000	  0	 23	 62	 63	  1	
09-May-2013	sub2343	2343	  2	  1	  1	  5	  1	  3	  5	  2	  1	  2	  0	0.39642	  0	0.60000	  0	 13	 42	 43	  1	
09-May-2013	sub2343	2343	  2	  1	  2	  5	  1	  1	  1	  3	  1	  2	  0	0.45388	  0	0.30000	  1	 11	 40	 51	  1	
09-May-2013	sub2343	2343	  2	  1	  3	  5	  1	  4	  2	  2	  1	  2	  1	0.30256	  1	0.90000	  0	 14	 32	 33	  1	
09-May-2013	sub2343	2343	  2	  1	  4	  5	  1	  1	  1	  3	  1	  2	  0	0.39381	  0	0.90000	  0	 11	 40	 41	  1	
09-May-2013	sub2343	2343	  2	  1	  5	  5	  1	  2	  6	  1	  1	  1	  0	0.44407	  0	0.90000	  0	 12	 40	 41	  1	
09-May-2013	sub2343	2343	  2	  1	  6	  5	  1	  5	  4	  5	  1	  1	  1	0.51758	  1	0.90000	  0	 15	 35	 36	  0	
09-May-2013	sub2343	2343	  2	  1	  7	  5	  1	  1	  1	  3	  1	  1	  1	0.46081	  1	0.90000	  0	 11	 30	 31	  1	
09-May-2013	sub2343	2343	  2	  1	  8	  5	  1	  2	  6	  1	  1	  1	  0	0.54029	  0	0.90000	  0	 12	 40	 41	  0	
09-May-2013	sub2343	2343	  2	  1	  9	  5	  1	  6	  3	  5	  1	  1	  0	0.57162	  0	0.90000	  0	 16	 45	 46	  0	
09-May-2013	sub2343	2343	  2	  1	 10	  5	  1	  6	  3	  5	  1	  2	  1	0.42838	  1	0.90000	  0	 16	 35	 36	  1	
09-May-2013	sub2343	2343	  2	  1	 11	  5	  1	  5	  4	  5	  0	  2	  1	0.48355	  0	0.90000	  0	 15	 47	 38	  1	
09-May-2013	sub2343	2343	  2	  1	 12	  5	  1	  4	  2	  2	  0	  2	  0	0.44229	  1	0.90000	  0	 14	 34	 49	  1	
09-May-2013	sub2343	2343	  2	  1	 13	  5	  1	  5	  4	  5	  1	  2	  0	0.47008	  0	0.90000	  0	 15	 45	 46	  1	
09-May-2013	sub2343	2343	  2	  1	 14	  5	  1	  6	  3	  5	  0	  2	  0	0.46650	  1	0.90000	  0	 16	 37	 48	  1	
09-May-2013	sub2343	2343	  2	  1	 15	  5	  1	  4	  2	  2	  1	  2	  1	0.41506	  1	0.90000	  0	 14	 32	 33	  1	
09-May-2013	sub2343	2343	  2	  1	 16	  5	  1	  2	  6	  1	  1	  1	  0	0.48675	  0	0.80000	  0	 12	 40	 41	  1	
09-May-2013	sub2343	2343	  2	  1	 17	  5	  1	  5	  4	  5	  0	  2	  1	0.59962	  0	0.80000	  0	 15	 47	 38	  0	
09-May-2013	sub2343	2343	  2	  1	 18	  5	  1	  5	  4	  5	  1	  2	  0	0.44892	  0	0.70000	  0	 15	 45	 46	  1	
09-May-2013	sub2343	2343	  2	  1	 19	  5	  1	  5	  4	  5	  0	  2	  1	0.41431	  0	0.70000	  0	 15	 47	 38	  1	
09-May-2013	sub2343	2343	  2	  1	 20	  5	  1	  6	  3	  5	  0	  2	  0	0.44905	  1	0.70000	  0	 16	 37	 48	  1	
09-May-2013	sub2343	2343	  2	  1	 21	  5	  1	  1	  1	  3	  1	  2	  0	0.38324	  0	0.60000	  0	 11	 40	 41	  1	
09-May-2013	sub2343	2343	  2	  1	 22	  5	  1	  1	  1	  3	  1	  2	  0	0.36057	  0	0.60000	  0	 11	 40	 41	  1	
09-May-2013	sub2343	2343	  2	  1	 23	  5	  1	  1	  1	  3	  1	  1	  1	0.38082	  1	0.60000	  0	 11	 30	 31	  1	
09-May-2013	sub2343	2343	  2	  1	 24	  5	  1	  3	  5	  2	  1	  1	  1	0.50386	  1	0.60000	  0	 13	 32	 33	  0	
09-May-2013	sub2343	2343	  2	  1	 25	  5	  1	  1	  1	  3	  1	  1	  1	0.55736	  1	0.60000	  0	 11	 30	 31	  0	
09-May-2013	sub2343	2343	  2	  1	 26	  5	  1	  2	  6	  1	  1	  2	  1	0.45250	  1	0.50000	  0	 12	 30	 31	  1	
09-May-2013	sub2343	2343	  2	  1	 27	  5	  1	  2	  6	  1	  1	  2	  1	0.51036	  1	0.50000	  1	 12	 30	 51	  0	
09-May-2013	sub2343	2343	  2	  1	 28	  5	  1	  2	  6	  1	  1	  2	  1	0.38726	  1	0.90000	  0	 12	 30	 31	  1	
09-May-2013	sub2343	2343	  2	  1	 29	  5	  1	  6	  3	  5	  0	  2	  0	0.44847	  1	0.90000	  0	 16	 37	 48	  1	
09-May-2013	sub2343	2343	  2	  1	 30	  5	  1	  5	  4	  5	  1	  2	  0	0.44183	  0	0.80000	  0	 15	 45	 46	  1	
09-May-2013	sub2343	2343	  2	  1	 31	  5	  1	  2	  6	  1	  1	  2	  1	0.47133	  1	0.80000	  0	 12	 30	 31	  1	
09-May-2013	sub2343	2343	  2	  1	 32	  5	  1	  3	  5	  2	  1	  2	  0	0.44701	  0	0.80000	  0	 13	 42	 43	  1	
09-May-2013	sub2343	2343	  2	  1	 33	  5	  1	  5	  4	  5	  1	  2	  0	0.46368	  0	0.80000	  0	 15	 45	 46	  1	
09-May-2013	sub2343	2343	  2	  1	 34	  5	  1	  1	  1	  3	  1	  2	  0	0.58402	  0	0.80000	  0	 11	 40	 41	  0	
09-May-2013	sub2343	2343	  2	  1	 35	  5	  1	  6	  3	  5	  1	  2	  1	0.32109	  1	0.70000	  0	 16	 35	 36	  1	
09-May-2013	sub2343	2343	  2	  1	 36	  5	  1	  6	  3	  5	  1	  2	  1	0.40554	  1	0.70000	  0	 16	 35	 36	  1	
09-May-2013	sub2343	2343	  2	  1	 37	  5	  1	  3	  5	  2	  1	  1	  1	0.43613	  1	0.70000	  0	 13	 32	 33	  1	
09-May-2013	sub2343	2343	  2	  1	 38	  5	  1	  3	  5	  2	  0	  1	  0	0.33787	  1	0.70000	  0	 13	 34	 49	  1	
09-May-2013	sub2343	2343	  2	  1	 39	  5	  1	  3	  5	  2	  1	  1	  1	0.37446	  1	0.70000	  0	 13	 32	 33	  1	
09-May-2013	sub2343	2343	  2	  1	 40	  5	  1	  2	  6	  1	  1	  1	  0	0.49151	  0	0.70000	  0	 12	 40	 41	  1	
09-May-2013	sub2343	2343	  2	  1	 41	  5	  1	  4	  2	  2	  1	  1	  0	0.50028	  0	0.60000	  0	 14	 42	 43	  1	
09-May-2013	sub2343	2343	  2	  1	 42	  5	  1	  3	  5	  2	  1	  2	  0	0.46330	  0	0.60000	  0	 13	 42	 43	  1	
09-May-2013	sub2343	2343	  2	  1	 43	  5	  1	  6	  3	  5	  1	  2	  1	0.49047	  1	0.60000	  0	 16	 35	 36	  1	
09-May-2013	sub2343	2343	  2	  1	 44	  5	  1	  6	  3	  5	  0	  2	  0	0.35546	  1	0.60000	  0	 16	 37	 48	  1	
09-May-2013	sub2343	2343	  2	  1	 45	  5	  1	  2	  6	  1	  1	  2	  1	0.47198	  1	0.60000	  0	 12	 30	 31	  1	
09-May-2013	sub2343	2343	  2	  1	 46	  5	  1	  4	  2	  2	  1	  1	  0	0.54406	  0	0.60000	  0	 14	 42	 43	  0	
09-May-2013	sub2343	2343	  2	  1	 47	  5	  1	  5	  4	  5	  0	  1	  0	0.59969	  1	0.60000	  0	 15	 37	 48	  0	
09-May-2013	sub2343	2343	  2	  1	 48	  5	  1	  2	  6	  1	  1	  2	  1	0.48917	  1	0.60000	  0	 12	 30	 31	  1	
09-May-2013	sub2343	2343	  2	  1	 49	  5	  1	  6	  3	  5	  0	  2	  0	0.44319	  1	0.60000	  0	 16	 37	 48	  1	
09-May-2013	sub2343	2343	  2	  1	 50	  5	  1	  1	  1	  3	  1	  2	  0	0.36143	  0	0.60000	  0	 11	 40	 41	  1	
09-May-2013	sub2343	2343	  2	  1	 51	  5	  1	  1	  1	  3	  1	  1	  1	0.40165	  1	0.50000	  0	 11	 30	 31	  1	
09-May-2013	sub2343	2343	  2	  1	 52	  5	  1	  3	  5	  2	  1	  1	  1	0.47651	  1	0.50000	  0	 13	 32	 33	  1	
09-May-2013	sub2343	2343	  2	  1	 53	  5	  1	  3	  5	  2	  1	  1	  1	0.53186	  1	0.50000	  1	 13	 32	 51	  0	
09-May-2013	sub2343	2343	  2	  1	 54	  5	  1	  4	  2	  2	  1	  2	  1	0.47532	  1	0.70000	  0	 14	 32	 33	  1	
09-May-2013	sub2343	2343	  2	  1	 55	  5	  1	  3	  5	  2	  1	  1	  1	0.56185	  1	0.70000	  0	 13	 32	 33	  0	
09-May-2013	sub2343	2343	  2	  1	 56	  5	  1	  5	  4	  5	  1	  1	  1	0.52525	  1	0.70000	  0	 15	 35	 36	  0	
09-May-2013	sub2343	2343	  2	  1	 57	  5	  1	  3	  5	  2	  0	  2	  1	0.52333	  0	0.70000	  0	 13	 44	 39	  0	
09-May-2013	sub2343	2343	  2	  1	 58	  5	  1	  5	  4	  5	  0	  1	  0	0.49764	  1	0.70000	  0	 15	 37	 48	  1	
09-May-2013	sub2343	2343	  2	  1	 59	  5	  1	  1	  1	  3	  1	  1	  1	0.58092	  1	0.70000	  0	 11	 30	 31	  0	
09-May-2013	sub2343	2343	  2	  1	 60	  5	  1	  6	  3	  5	  0	  2	  0	0.46007	  1	0.70000	  0	 16	 37	 48	  1	
09-May-2013	sub2343	2343	  2	  1	 61	  5	  1	  6	  3	  5	  0	  2	  0	0.39728	  1	0.60000	  0	 16	 37	 48	  1	
09-May-2013	sub2343	2343	  2	  1	 62	  5	  1	  2	  6	  1	  1	  2	  1	0.37331	  1	0.60000	  0	 12	 30	 31	  1	
09-May-2013	sub2343	2343	  2	  1	 63	  5	  1	  2	  6	  1	  1	  2	  1	0.52805	  1	0.60000	  0	 12	 30	 31	  0	
09-May-2013	sub2343	2343	  2	  1	 64	  5	  1	  3	  5	  2	  0	  2	  1	0.44250	  0	0.60000	  0	 13	 44	 39	  1	
09-May-2013	sub2343	2343	  2	  1	 65	  5	  1	  3	  5	  2	  1	  1	  1	0.46832	  1	0.60000	  0	 13	 32	 33	  1	
09-May-2013	sub2343	2343	  2	  1	 66	  5	  1	  5	  4	  5	  1	  1	  1	0.56456	  1	0.60000	  0	 15	 35	 36	  0	
09-May-2013	sub2343	2343	  2	  1	 67	  5	  1	  4	  2	  2	  1	  1	  0	0.58250	  0	0.60000	  0	 14	 42	 43	  0	
09-May-2013	sub2343	2343	  2	  1	 68	  5	  1	  4	  2	  2	  1	  2	  1	0.47531	  1	0.60000	  0	 14	 32	 33	  1	
09-May-2013	sub2343	2343	  2	  1	 69	  5	  1	  4	  2	  2	  1	  2	  1	0.46972	  1	0.60000	  0	 14	 32	 33	  1	
09-May-2013	sub2343	2343	  2	  1	 70	  5	  1	  1	  1	  3	  1	  1	  1	0.55036	  1	0.60000	  0	 11	 30	 31	  0	
09-May-2013	sub2343	2343	  2	  1	 71	  5	  1	  4	  2	  2	  0	  2	  0	0.54884	  1	0.60000	  0	 14	 34	 49	  0	
09-May-2013	sub2343	2343	  2	  1	 72	  5	  1	  6	  3	  5	  0	  2	  0	0.48658	  1	0.60000	  0	 16	 37	 48	  1	
09-May-2013	sub2343	2343	  2	  1	 73	  5	  1	  4	  2	  2	  1	  2	  1	0.46775	  1	0.60000	  0	 14	 32	 33	  1	
09-May-2013	sub2343	2343	  2	  1	 74	  5	  1	  2	  6	  1	  1	  2	  1	0.47576	  1	0.60000	  0	 12	 30	 31	  1	
09-May-2013	sub2343	2343	  2	  1	 75	  5	  1	  4	  2	  2	  1	  2	  1	0.53095	  1	0.60000	  0	 14	 32	 33	  0	
09-May-2013	sub2343	2343	  2	  1	 76	  5	  2	  1	  1	  3	  1	  1	  1	0.58674	  1	0.50000	  1	 21	 60	 51	  0	
09-May-2013	sub2343	2343	  2	  1	 77	  5	  2	  3	  5	  2	  1	  1	  1	0.48575	  1	0.70000	  0	 23	 62	 63	  1	
09-May-2013	sub2343	2343	  2	  1	 78	  5	  2	  2	  6	  1	  1	  2	  1	0.57953	  1	0.70000	  0	 22	 60	 61	  0	
09-May-2013	sub2343	2343	  2	  1	 79	  5	  2	  1	  1	  3	  1	  1	  1	0.52601	  1	0.70000	  0	 21	 60	 61	  0	
09-May-2013	sub2343	2343	  2	  1	 80	  5	  2	  3	  5	  2	  1	  1	  1	0.54754	  1	0.70000	  0	 23	 62	 63	  0	
09-May-2013	sub2343	2343	  2	  1	 81	  5	  2	  4	  2	  2	  0	  2	  0	0.54613	  1	0.60000	  0	 24	 64	 89	  0	
09-May-2013	sub2343	2343	  2	  1	 82	  5	  2	  2	  6	  1	  1	  2	  1	0.44147	  1	0.60000	  0	 22	 60	 61	  1	
09-May-2013	sub2343	2343	  2	  1	 83	  5	  2	  5	  4	  5	  0	  1	  0	0.50938	  1	0.60000	  0	 25	 67	 88	  0	
09-May-2013	sub2343	2343	  2	  1	 84	  5	  2	  6	  3	  5	  1	  1	  0	0.45987	  0	0.60000	  0	 26	 85	 86	  1	
09-May-2013	sub2343	2343	  2	  1	 85	  5	  2	  5	  4	  5	  0	  1	  0	0.46063	  1	0.60000	  0	 25	 67	 88	  1	
09-May-2013	sub2343	2343	  2	  1	 86	  5	  2	  3	  5	  2	  1	  1	  1	0.65963	  1	0.60000	  1	 23	 62	 51	  0	
09-May-2013	sub2343	2343	  2	  1	 87	  5	  2	  5	  4	  5	  0	  1	  0	0.50044	  1	0.70000	  0	 25	 67	 88	  0	
09-May-2013	sub2343	2343	  2	  1	 88	  5	  2	  4	  2	  2	  1	  2	  1	0.51625	  1	0.70000	  0	 24	 62	 63	  0	
09-May-2013	sub2343	2343	  2	  1	 89	  5	  2	  6	  3	  5	  0	  2	  0	0.38045	  1	0.70000	  0	 26	 67	 88	  1	
09-May-2013	sub2343	2343	  2	  1	 90	  5	  2	  1	  1	  3	  1	  1	  1	0.52095	  1	0.70000	  0	 21	 60	 61	  0	
09-May-2013	sub2343	2343	  2	  1	 91	  5	  2	  2	  6	  1	  1	  2	  1	0.46104	  1	0.70000	  0	 22	 60	 61	  1	
09-May-2013	sub2343	2343	  2	  1	 92	  5	  2	  2	  6	  1	  1	  2	  1	0.53608	  1	0.70000	  0	 22	 60	 61	  0	
09-May-2013	sub2343	2343	  2	  1	 93	  5	  2	  6	  3	  5	  1	  2	  1	0.43544	  1	0.70000	  0	 26	 65	 66	  1	
09-May-2013	sub2343	2343	  2	  1	 94	  5	  2	  2	  6	  1	  1	  2	  1	0.47927	  1	0.70000	  0	 22	 60	 61	  1	
09-May-2013	sub2343	2343	  2	  1	 95	  5	  2	  4	  2	  2	  1	  2	  1	0.51412	  1	0.70000	  0	 24	 62	 63	  0	
09-May-2013	sub2343	2343	  2	  1	 96	  5	  2	  3	  5	  2	  1	  1	  1	0.56111	  1	0.70000	  0	 23	 62	 63	  0	
09-May-2013	sub2343	2343	  2	  1	 97	  5	  2	  4	  2	  2	  1	  2	  1	0.47142	  1	0.70000	  0	 24	 62	 63	  1	
09-May-2013	sub2343	2343	  2	  1	 98	  5	  2	  2	  6	  1	  1	  2	  1	0.48320	  1	0.70000	  0	 22	 60	 61	  1	
09-May-2013	sub2343	2343	  2	  1	 99	  5	  2	  1	  1	  3	  1	  1	  1	0.44762	  1	0.70000	  0	 21	 60	 61	  1	
09-May-2013	sub2343	2343	  2	  1	100	  5	  2	  2	  6	  1	  1	  2	  1	0.46251	  1	0.70000	  0	 22	 60	 61	  1	
09-May-2013	sub2343	2343	  2	  1	101	  5	  2	  4	  2	  2	  1	  2	  1	0.45249	  1	0.60000	  0	 24	 62	 63	  1	
09-May-2013	sub2343	2343	  2	  1	102	  5	  2	  6	  3	  5	  0	  2	  0	0.41736	  1	0.60000	  0	 26	 67	 88	  1	
09-May-2013	sub2343	2343	  2	  1	103	  5	  2	  1	  1	  3	  1	  1	  1	0.55357	  1	0.60000	  0	 21	 60	 61	  0	
09-May-2013	sub2343	2343	  2	  1	104	  5	  2	  5	  4	  5	  0	  1	  0	0.45095	  1	0.60000	  0	 25	 67	 88	  1	
09-May-2013	sub2343	2343	  2	  1	105	  5	  2	  3	  5	  2	  1	  2	  0	0.41862	  0	0.60000	  0	 23	 82	 83	  1	
09-May-2013	sub2343	2343	  2	  1	106	  5	  2	  3	  5	  2	  0	  1	  0	0.59248	  1	0.60000	  0	 23	 64	 89	  0	
09-May-2013	sub2343	2343	  2	  1	107	  5	  2	  6	  3	  5	  0	  2	  0	0.51013	  1	0.60000	  0	 26	 67	 88	  0	
09-May-2013	sub2343	2343	  2	  1	108	  5	  2	  3	  5	  2	  1	  1	  1	0.53379	  1	0.60000	  0	 23	 62	 63	  0	
09-May-2013	sub2343	2343	  2	  1	109	  5	  2	  1	  1	  3	  1	  1	  1	0.52294	  1	0.60000	  0	 21	 60	 61	  0	
09-May-2013	sub2343	2343	  2	  1	110	  5	  2	  4	  2	  2	  1	  2	  1	0.50710	  1	0.60000	  0	 24	 62	 63	  0	
09-May-2013	sub2343	2343	  2	  1	111	  5	  2	  2	  6	  1	  1	  2	  1	0.39375	  1	0.60000	  0	 22	 60	 61	  1	
09-May-2013	sub2343	2343	  2	  1	112	  5	  2	  1	  1	  3	  1	  1	  1	0.50330	  1	0.60000	  0	 21	 60	 61	  0	
09-May-2013	sub2343	2343	  2	  1	113	  5	  2	  2	  6	  1	  1	  2	  1	0.38461	  1	0.60000	  0	 22	 60	 61	  1	
09-May-2013	sub2343	2343	  2	  1	114	  5	  2	  1	  1	  3	  1	  1	  1	0.49458	  1	0.60000	  0	 21	 60	 61	  1	
09-May-2013	sub2343	2343	  2	  1	115	  5	  2	  6	  3	  5	  0	  2	  0	0.46923	  1	0.60000	  0	 26	 67	 88	  1	
09-May-2013	sub2343	2343	  2	  1	116	  5	  2	  5	  4	  5	  0	  1	  0	0.43475	  1	0.60000	  0	 25	 67	 88	  1	
09-May-2013	sub2343	2343	  2	  1	117	  5	  2	  3	  5	  2	  1	  1	  1	0.44781	  1	0.60000	  0	 23	 62	 63	  1	
09-May-2013	sub2343	2343	  2	  1	118	  5	  2	  1	  1	  3	  1	  1	  1	0.51621	  1	0.60000	  0	 21	 60	 61	  0	
09-May-2013	sub2343	2343	  2	  1	119	  5	  2	  3	  5	  2	  0	  1	  0	0.54782	  1	0.60000	  0	 23	 64	 89	  0	
09-May-2013	sub2343	2343	  2	  1	120	  5	  2	  1	  1	  3	  1	  1	  1	0.40533	  1	0.60000	  0	 21	 60	 61	  1	
09-May-2013	sub2343	2343	  2	  1	121	  5	  2	  4	  2	  2	  0	  2	  0	0.48924	  1	0.60000	  0	 24	 64	 89	  1	
09-May-2013	sub2343	2343	  2	  1	122	  5	  2	  3	  5	  2	  1	  1	  1	0.64205	  1	0.60000	  1	 23	 62	 51	  0	
09-May-2013	sub2343	2343	  2	  1	123	  5	  2	  6	  3	  5	  1	  2	  1	0.49340	  1	0.60000	  0	 26	 65	 66	  1	
09-May-2013	sub2343	2343	  2	  1	124	  5	  2	  6	  3	  5	  1	  2	  1	0.51414	  1	0.60000	  0	 26	 65	 66	  0	
09-May-2013	sub2343	2343	  2	  1	125	  5	  2	  4	  2	  2	  1	  2	  1	0.55125	  1	0.60000	  0	 24	 62	 63	  0	
09-May-2013	sub2343	2343	  2	  1	126	  5	  2	  5	  4	  5	  0	  1	  0	0.56572	  1	0.60000	  0	 25	 67	 88	  0	
09-May-2013	sub2343	2343	  2	  1	127	  5	  2	  6	  3	  5	  0	  2	  0	0.52000	  1	0.60000	  0	 26	 67	 88	  0	
09-May-2013	sub2343	2343	  2	  1	128	  5	  2	  2	  6	  1	  1	  2	  1	0.51602	  1	0.60000	  0	 22	 60	 61	  0	
09-May-2013	sub2343	2343	  2	  1	129	  5	  2	  4	  2	  2	  1	  2	  1	0.43385	  1	0.60000	  0	 24	 62	 63	  1	
09-May-2013	sub2343	2343	  2	  1	130	  5	  2	  2	  6	  1	  1	  2	  1	0.42915	  1	0.60000	  0	 22	 60	 61	  1	
09-May-2013	sub2343	2343	  2	  1	131	  5	  2	  1	  1	  3	  1	  1	  1	0.51953	  1	0.60000	  0	 21	 60	 61	  0	
09-May-2013	sub2343	2343	  2	  1	132	  5	  2	  6	  3	  5	  1	  2	  1	0.41011	  1	0.60000	  0	 26	 65	 66	  1	
09-May-2013	sub2343	2343	  2	  1	133	  5	  2	  4	  2	  2	  1	  2	  1	0.51198	  1	0.60000	  0	 24	 62	 63	  0	
09-May-2013	sub2343	2343	  2	  1	134	  5	  2	  3	  5	  2	  1	  1	  1	0.56321	  1	0.60000	  0	 23	 62	 63	  0	
09-May-2013	sub2343	2343	  2	  1	135	  5	  2	  6	  3	  5	  0	  2	  0	0.40369	  1	0.60000	  0	 26	 67	 88	  1	
09-May-2013	sub2343	2343	  2	  1	136	  5	  2	  1	  1	  3	  1	  1	  1	0.50577	  1	0.60000	  0	 21	 60	 61	  0	
09-May-2013	sub2343	2343	  2	  1	137	  5	  2	  5	  4	  5	  0	  1	  0	0.51183	  1	0.60000	  0	 25	 67	 88	  0	
09-May-2013	sub2343	2343	  2	  1	138	  5	  2	  4	  2	  2	  1	  1	  0	0.49232	  0	0.60000	  0	 24	 82	 83	  1	
09-May-2013	sub2343	2343	  2	  1	139	  5	  2	  5	  4	  5	  0	  1	  0	0.62553	  1	0.60000	  1	 25	 67	 51	  0	
09-May-2013	sub2343	2343	  2	  1	140	  5	  2	  1	  1	  3	  1	  1	  1	0.52857	  1	0.70000	  0	 21	 60	 61	  0	
09-May-2013	sub2343	2343	  2	  1	141	  5	  2	  4	  2	  2	  1	  2	  1	0.43267	  1	0.60000	  0	 24	 62	 63	  1	
09-May-2013	sub2343	2343	  2	  1	142	  5	  2	  2	  6	  1	  1	  2	  1	0.44493	  1	0.60000	  0	 22	 60	 61	  1	
09-May-2013	sub2343	2343	  2	  1	143	  5	  2	  5	  4	  5	  0	  1	  0	0.47430	  1	0.60000	  0	 25	 67	 88	  1	
09-May-2013	sub2343	2343	  2	  1	144	  5	  2	  6	  3	  5	  1	  2	  1	0.43565	  1	0.60000	  0	 26	 65	 66	  1	
09-May-2013	sub2343	2343	  2	  1	145	  5	  2	  3	  5	  2	  1	  2	  0	0.73134	  0	0.60000	  1	 23	 82	 51	  0	
09-May-2013	sub2343	2343	  2	  1	146	  5	  2	  4	  2	  2	  0	  2	  0	0.46725	  1	0.70000	  0	 24	 64	 89	  1	
09-May-2013	sub2343	2343	  2	  1	147	  5	  2	  5	  4	  5	  0	  1	  0	0.50757	  1	0.70000	  0	 25	 67	 88	  0	
09-May-2013	sub2343	2343	  2	  1	148	  5	  2	  5	  4	  5	  0	  1	  0	0.50627	  1	0.70000	  0	 25	 67	 88	  0	
09-May-2013	sub2343	2343	  2	  1	149	  5	  2	  5	  4	  5	  0	  1	  0	0.45508	  1	0.70000	  0	 25	 67	 88	  1	
09-May-2013	sub2343	2343	  2	  1	150	  5	  2	  5	  4	  5	  0	  2	  1	0.54192	  0	0.70000	  0	 25	 87	 68	  0	
09-May-2013	sub2343	2343	  2	  1	  1	  6	  1	  1	  3	  6	  1	  2	  0	0.40462	  0	0.60000	  0	 11	 40	 41	  1	
09-May-2013	sub2343	2343	  2	  1	  2	  6	  1	  1	  3	  6	  1	  2	  0	0.45683	  0	0.30000	  1	 11	 40	 51	  1	
09-May-2013	sub2343	2343	  2	  1	  3	  6	  1	  6	  1	  5	  1	  2	  1	0.39193	  1	0.90000	  0	 16	 35	 36	  1	
09-May-2013	sub2343	2343	  2	  1	  4	  6	  1	  3	  4	  6	  1	  2	  0	0.33467	  0	0.90000	  0	 13	 42	 43	  1	
09-May-2013	sub2343	2343	  2	  1	  5	  6	  1	  3	  4	  6	  1	  2	  0	0.29318	  0	0.90000	  0	 13	 42	 43	  1	
09-May-2013	sub2343	2343	  2	  1	  6	  6	  1	  3	  4	  6	  1	  1	  1	0.33529	  1	0.90000	  0	 13	 32	 33	  1	
09-May-2013	sub2343	2343	  2	  1	  7	  6	  1	  4	  2	  6	  1	  2	  1	0.47640	  1	0.90000	  0	 14	 32	 33	  1	
09-May-2013	sub2343	2343	  2	  1	  8	  6	  1	  6	  1	  5	  1	  2	  1	0.37830	  1	0.90000	  0	 16	 35	 36	  1	
09-May-2013	sub2343	2343	  2	  1	  9	  6	  1	  4	  2	  6	  1	  2	  1	0.36877	  1	0.90000	  0	 14	 32	 33	  1	
09-May-2013	sub2343	2343	  2	  1	 10	  6	  1	  1	  3	  6	  1	  1	  1	0.44365	  1	0.90000	  0	 11	 30	 31	  1	
09-May-2013	sub2343	2343	  2	  1	 11	  6	  1	  3	  4	  6	  0	  1	  0	0.48569	  1	0.90000	  0	 13	 34	 49	  1	
09-May-2013	sub2343	2343	  2	  1	 12	  6	  1	  1	  3	  6	  1	  1	  1	0.53958	  1	0.90000	  0	 11	 30	 31	  0	
09-May-2013	sub2343	2343	  2	  1	 13	  6	  1	  2	  5	  1	  1	  2	  1	0.39166	  1	0.90000	  0	 12	 30	 31	  1	
09-May-2013	sub2343	2343	  2	  1	 14	  6	  1	  6	  1	  5	  1	  1	  0	0.44172	  0	0.90000	  0	 16	 45	 46	  1	
09-May-2013	sub2343	2343	  2	  1	 15	  6	  1	  5	  6	  4	  1	  1	  1	0.55998	  1	0.90000	  0	 15	 35	 36	  0	
09-May-2013	sub2343	2343	  2	  1	 16	  6	  1	  3	  4	  6	  1	  1	  1	0.45058	  1	0.80000	  0	 13	 32	 33	  1	
09-May-2013	sub2343	2343	  2	  1	 17	  6	  1	  5	  6	  4	  0	  2	  1	0.51739	  0	0.80000	  0	 15	 47	 38	  0	
09-May-2013	sub2343	2343	  2	  1	 18	  6	  1	  4	  2	  6	  1	  2	  1	0.53127	  1	0.70000	  0	 14	 32	 33	  0	
09-May-2013	sub2343	2343	  2	  1	 19	  6	  1	  6	  1	  5	  0	  2	  0	0.43403	  1	0.70000	  0	 16	 37	 48	  1	
09-May-2013	sub2343	2343	  2	  1	 20	  6	  1	  5	  6	  4	  0	  2	  1	0.41576	  0	0.70000	  0	 15	 47	 38	  1	
09-May-2013	sub2343	2343	  2	  1	 21	  6	  1	  6	  1	  5	  0	  2	  0	0.41699	  1	0.60000	  0	 16	 37	 48	  1	
09-May-2013	sub2343	2343	  2	  1	 22	  6	  1	  4	  2	  6	  0	  2	  0	0.49062	  1	0.60000	  0	 14	 34	 49	  1	
09-May-2013	sub2343	2343	  2	  1	 23	  6	  1	  6	  1	  5	  0	  2	  0	0.38796	  1	0.60000	  0	 16	 37	 48	  1	
09-May-2013	sub2343	2343	  2	  1	 24	  6	  1	  4	  2	  6	  1	  2	  1	0.39795	  1	0.60000	  0	 14	 32	 33	  1	
09-May-2013	sub2343	2343	  2	  1	 25	  6	  1	  5	  6	  4	  1	  2	  0	0.43787	  0	0.60000	  0	 15	 45	 46	  1	
09-May-2013	sub2343	2343	  2	  1	 26	  6	  1	  2	  5	  1	  1	  2	  1	0.44629	  1	0.50000	  0	 12	 30	 31	  1	
09-May-2013	sub2343	2343	  2	  1	 27	  6	  1	  2	  5	  1	  1	  2	  1	0.40843	  1	0.50000	  0	 12	 30	 31	  1	
09-May-2013	sub2343	2343	  2	  1	 28	  6	  1	  2	  5	  1	  1	  2	  1	0.38630	  1	0.50000	  0	 12	 30	 31	  1	
09-May-2013	sub2343	2343	  2	  1	 29	  6	  1	  5	  6	  4	  1	  2	  0	0.45844	  0	0.50000	  0	 15	 45	 46	  1	
09-May-2013	sub2343	2343	  2	  1	 30	  6	  1	  2	  5	  1	  1	  2	  1	0.57648	  1	0.50000	  1	 12	 30	 51	  0	
09-May-2013	sub2343	2343	  2	  1	 31	  6	  1	  6	  1	  5	  0	  2	  0	0.38183	  1	0.80000	  0	 16	 37	 48	  1	
09-May-2013	sub2343	2343	  2	  1	 32	  6	  1	  2	  5	  1	  1	  2	  1	0.43010	  1	0.80000	  0	 12	 30	 31	  1	
09-May-2013	sub2343	2343	  2	  1	 33	  6	  1	  1	  3	  6	  1	  1	  1	0.35803	  1	0.80000	  0	 11	 30	 31	  1	
09-May-2013	sub2343	2343	  2	  1	 34	  6	  1	  3	  4	  6	  1	  1	  1	0.58718	  1	0.80000	  0	 13	 32	 33	  0	
09-May-2013	sub2343	2343	  2	  1	 35	  6	  1	  2	  5	  1	  1	  2	  1	0.58780	  1	0.70000	  0	 12	 30	 31	  0	
09-May-2013	sub2343	2343	  2	  1	 36	  6	  1	  4	  2	  6	  0	  2	  0	0.53770	  1	0.70000	  0	 14	 34	 49	  0	
09-May-2013	sub2343	2343	  2	  1	 37	  6	  1	  6	  1	  5	  0	  2	  0	0.52206	  1	0.70000	  0	 16	 37	 48	  0	
09-May-2013	sub2343	2343	  2	  1	 38	  6	  1	  5	  6	  4	  1	  1	  1	0.51674	  1	0.70000	  0	 15	 35	 36	  0	
09-May-2013	sub2343	2343	  2	  1	 39	  6	  1	  1	  3	  6	  1	  2	  0	0.45115	  0	0.70000	  0	 11	 40	 41	  1	
09-May-2013	sub2343	2343	  2	  1	 40	  6	  1	  4	  2	  6	  1	  2	  1	0.46303	  1	0.70000	  0	 14	 32	 33	  1	
09-May-2013	sub2343	2343	  2	  1	 41	  6	  1	  5	  6	  4	  0	  1	  0	0.49001	  1	0.60000	  0	 15	 37	 48	  1	
09-May-2013	sub2343	2343	  2	  1	 42	  6	  1	  3	  4	  6	  1	  1	  1	0.52082	  1	0.60000	  0	 13	 32	 33	  0	
09-May-2013	sub2343	2343	  2	  1	 43	  6	  1	  1	  3	  6	  1	  1	  1	0.48699	  1	0.60000	  0	 11	 30	 31	  1	
09-May-2013	sub2343	2343	  2	  1	 44	  6	  1	  6	  1	  5	  0	  1	  1	0.43134	  0	0.60000	  0	 16	 47	 38	  1	
09-May-2013	sub2343	2343	  2	  1	 45	  6	  1	  2	  5	  1	  1	  2	  1	0.44005	  1	0.60000	  0	 12	 30	 31	  1	
09-May-2013	sub2343	2343	  2	  1	 46	  6	  1	  5	  6	  4	  0	  2	  1	0.43464	  0	0.60000	  0	 15	 47	 38	  1	
09-May-2013	sub2343	2343	  2	  1	 47	  6	  1	  4	  2	  6	  1	  2	  1	0.47148	  1	0.60000	  0	 14	 32	 33	  1	
09-May-2013	sub2343	2343	  2	  1	 48	  6	  1	  2	  5	  1	  1	  2	  1	0.47405	  1	0.60000	  0	 12	 30	 31	  1	
09-May-2013	sub2343	2343	  2	  1	 49	  6	  1	  4	  2	  6	  1	  2	  1	0.37912	  1	0.60000	  0	 14	 32	 33	  1	
09-May-2013	sub2343	2343	  2	  1	 50	  6	  1	  6	  1	  5	  1	  2	  1	0.48430	  1	0.60000	  0	 16	 35	 36	  1	
09-May-2013	sub2343	2343	  2	  1	 51	  6	  1	  6	  1	  5	  0	  2	  0	0.46141	  1	0.50000	  0	 16	 37	 48	  1	
09-May-2013	sub2343	2343	  2	  1	 52	  6	  1	  2	  5	  1	  1	  2	  1	0.46853	  1	0.50000	  0	 12	 30	 31	  1	
09-May-2013	sub2343	2343	  2	  1	 53	  6	  1	  6	  1	  5	  0	  2	  0	0.55385	  1	0.50000	  1	 16	 37	 51	  0	
09-May-2013	sub2343	2343	  2	  1	 54	  6	  1	  1	  3	  6	  1	  1	  1	0.51451	  1	0.70000	  0	 11	 30	 31	  0	
09-May-2013	sub2343	2343	  2	  1	 55	  6	  1	  3	  4	  6	  1	  1	  1	0.46583	  1	0.70000	  0	 13	 32	 33	  1	
09-May-2013	sub2343	2343	  2	  1	 56	  6	  1	  1	  3	  6	  1	  1	  1	0.40405	  1	0.70000	  0	 11	 30	 31	  1	
09-May-2013	sub2343	2343	  2	  1	 57	  6	  1	  3	  4	  6	  1	  1	  1	0.45314	  1	0.70000	  0	 13	 32	 33	  1	
09-May-2013	sub2343	2343	  2	  1	 58	  6	  1	  5	  6	  4	  0	  1	  0	0.48823	  1	0.70000	  0	 15	 37	 48	  1	
09-May-2013	sub2343	2343	  2	  1	 59	  6	  1	  4	  2	  6	  1	  2	  1	0.42851	  1	0.70000	  0	 14	 32	 33	  1	
09-May-2013	sub2343	2343	  2	  1	 60	  6	  1	  4	  2	  6	  1	  2	  1	0.42740	  1	0.70000	  0	 14	 32	 33	  1	
09-May-2013	sub2343	2343	  2	  1	 61	  6	  1	  5	  6	  4	  1	  1	  1	0.62446	  1	0.60000	  1	 15	 35	 51	  0	
09-May-2013	sub2343	2343	  2	  1	 62	  6	  1	  3	  4	  6	  0	  1	  0	0.44659	  1	0.80000	  0	 13	 34	 49	  1	
09-May-2013	sub2343	2343	  2	  1	 63	  6	  1	  2	  5	  1	  1	  2	  1	0.42201	  1	0.80000	  0	 12	 30	 31	  1	
09-May-2013	sub2343	2343	  2	  1	 64	  6	  1	  5	  6	  4	  1	  1	  1	0.45048	  1	0.80000	  0	 15	 35	 36	  1	
09-May-2013	sub2343	2343	  2	  1	 65	  6	  1	  2	  5	  1	  1	  2	  1	0.49094	  1	0.80000	  0	 12	 30	 31	  1	
09-May-2013	sub2343	2343	  2	  1	 66	  6	  1	  2	  5	  1	  1	  2	  1	0.42624	  1	0.80000	  0	 12	 30	 31	  1	
09-May-2013	sub2343	2343	  2	  1	 67	  6	  1	  4	  2	  6	  1	  2	  1	0.45708	  1	0.80000	  0	 14	 32	 33	  1	
09-May-2013	sub2343	2343	  2	  1	 68	  6	  1	  3	  4	  6	  1	  2	  0	0.32588	  0	0.70000	  0	 13	 42	 43	  1	
09-May-2013	sub2343	2343	  2	  1	 69	  6	  1	  3	  4	  6	  1	  1	  1	0.51880	  1	0.70000	  0	 13	 32	 33	  0	
09-May-2013	sub2343	2343	  2	  1	 70	  6	  1	  3	  4	  6	  0	  2	  1	0.45758	  0	0.70000	  0	 13	 44	 39	  1	
09-May-2013	sub2343	2343	  2	  1	 71	  6	  1	  6	  1	  5	  1	  1	  0	0.52793	  0	0.70000	  0	 16	 45	 46	  0	
09-May-2013	sub2343	2343	  2	  1	 72	  6	  1	  1	  3	  6	  1	  1	  1	0.46244	  1	0.70000	  0	 11	 30	 31	  1	
09-May-2013	sub2343	2343	  2	  1	 73	  6	  1	  1	  3	  6	  1	  1	  1	0.41159	  1	0.70000	  0	 11	 30	 31	  1	
09-May-2013	sub2343	2343	  2	  1	 74	  6	  1	  5	  6	  4	  1	  1	  1	0.41572	  1	0.70000	  0	 15	 35	 36	  1	
09-May-2013	sub2343	2343	  2	  1	 75	  6	  1	  1	  3	  6	  1	  1	  1	0.43099	  1	0.70000	  0	 11	 30	 31	  1	
09-May-2013	sub2343	2343	  2	  1	 76	  6	  2	  5	  6	  4	  0	  1	  0	0.44057	  1	0.70000	  0	 25	 67	 88	  1	
09-May-2013	sub2343	2343	  2	  1	 77	  6	  2	  6	  1	  5	  0	  2	  0	0.54520	  1	0.70000	  0	 26	 67	 88	  0	
09-May-2013	sub2343	2343	  2	  1	 78	  6	  2	  3	  4	  6	  1	  1	  1	0.46216	  1	0.70000	  0	 23	 62	 63	  1	
09-May-2013	sub2343	2343	  2	  1	 79	  6	  2	  5	  6	  4	  0	  1	  0	0.39146	  1	0.70000	  0	 25	 67	 88	  1	
09-May-2013	sub2343	2343	  2	  1	 80	  6	  2	  4	  2	  6	  1	  2	  1	0.47475	  1	0.70000	  0	 24	 62	 63	  1	
09-May-2013	sub2343	2343	  2	  1	 81	  6	  2	  5	  6	  4	  0	  1	  0	0.52083	  1	0.60000	  0	 25	 67	 88	  0	
09-May-2013	sub2343	2343	  2	  1	 82	  6	  2	  6	  1	  5	  1	  1	  0	0.55640	  0	0.60000	  0	 26	 85	 86	  0	
09-May-2013	sub2343	2343	  2	  1	 83	  6	  2	  1	  3	  6	  1	  1	  1	0.42888	  1	0.60000	  0	 21	 60	 61	  1	
09-May-2013	sub2343	2343	  2	  1	 84	  6	  2	  1	  3	  6	  1	  1	  1	0.33048	  1	0.60000	  0	 21	 60	 61	  1	
09-May-2013	sub2343	2343	  2	  1	 85	  6	  2	  4	  2	  6	  1	  2	  1	0.47073	  1	0.60000	  0	 24	 62	 63	  1	
09-May-2013	sub2343	2343	  2	  1	 86	  6	  2	  3	  4	  6	  0	  1	  0	0.55429	  1	0.60000	  0	 23	 64	 89	  0	
09-May-2013	sub2343	2343	  2	  1	 87	  6	  2	  2	  5	  1	  1	  2	  1	0.49237	  1	0.60000	  0	 22	 60	 61	  1	
09-May-2013	sub2343	2343	  2	  1	 88	  6	  2	  5	  6	  4	  0	  1	  0	0.40696	  1	0.60000	  0	 25	 67	 88	  1	
09-May-2013	sub2343	2343	  2	  1	 89	  6	  2	  6	  1	  5	  0	  1	  1	0.45218	  0	0.60000	  0	 26	 87	 68	  1	
09-May-2013	sub2343	2343	  2	  1	 90	  6	  2	  1	  3	  6	  1	  1	  1	0.45559	  1	0.60000	  0	 21	 60	 61	  1	
09-May-2013	sub2343	2343	  2	  1	 91	  6	  2	  4	  2	  6	  1	  2	  1	0.44731	  1	0.60000	  0	 24	 62	 63	  1	
09-May-2013	sub2343	2343	  2	  1	 92	  6	  2	  1	  3	  6	  1	  1	  1	0.46874	  1	0.60000	  0	 21	 60	 61	  1	
09-May-2013	sub2343	2343	  2	  1	 93	  6	  2	  3	  4	  6	  1	  2	  0	0.37770	  0	0.60000	  0	 23	 82	 83	  1	
09-May-2013	sub2343	2343	  2	  1	 94	  6	  2	  4	  2	  6	  0	  2	  0	0.50594	  1	0.60000	  0	 24	 64	 89	  0	
09-May-2013	sub2343	2343	  2	  1	 95	  6	  2	  4	  2	  6	  1	  2	  1	0.40361	  1	0.60000	  0	 24	 62	 63	  1	
09-May-2013	sub2343	2343	  2	  1	 96	  6	  2	  1	  3	  6	  1	  1	  1	0.38602	  1	0.60000	  0	 21	 60	 61	  1	
09-May-2013	sub2343	2343	  2	  1	 97	  6	  2	  6	  1	  5	  0	  2	  0	0.42639	  1	0.60000	  0	 26	 67	 88	  1	
09-May-2013	sub2343	2343	  2	  1	 98	  6	  2	  2	  5	  1	  1	  2	  1	0.47197	  1	0.60000	  0	 22	 60	 61	  1	
09-May-2013	sub2343	2343	  2	  1	 99	  6	  2	  2	  5	  1	  1	  2	  1	0.43780	  1	0.60000	  0	 22	 60	 61	  1	
09-May-2013	sub2343	2343	  2	  1	100	  6	  2	  1	  3	  6	  1	  1	  1	0.53946	  1	0.60000	  0	 21	 60	 61	  0	
09-May-2013	sub2343	2343	  2	  1	101	  6	  2	  1	  3	  6	  1	  1	  1	0.38420	  1	0.50000	  0	 21	 60	 61	  1	
09-May-2013	sub2343	2343	  2	  1	102	  6	  2	  5	  6	  4	  0	  1	  0	0.48761	  1	0.50000	  0	 25	 67	 88	  1	
09-May-2013	sub2343	2343	  2	  1	103	  6	  2	  2	  5	  1	  1	  2	  1	0.42730	  1	0.50000	  0	 22	 60	 61	  1	
09-May-2013	sub2343	2343	  2	  1	104	  6	  2	  1	  3	  6	  1	  1	  1	0.45138	  1	0.50000	  0	 21	 60	 61	  1	
09-May-2013	sub2343	2343	  2	  1	105	  6	  2	  6	  1	  5	  1	  1	  0	0.41821	  0	0.50000	  0	 26	 85	 86	  1	
09-May-2013	sub2343	2343	  2	  1	106	  6	  2	  4	  2	  6	  0	  2	  0	0.52175	  1	0.50000	  1	 24	 64	 51	  0	
09-May-2013	sub2343	2343	  2	  1	107	  6	  2	  1	  3	  6	  1	  1	  1	0.43076	  1	0.60000	  0	 21	 60	 61	  1	
09-May-2013	sub2343	2343	  2	  1	108	  6	  2	  2	  5	  1	  1	  2	  1	0.41692	  1	0.60000	  0	 22	 60	 61	  1	
09-May-2013	sub2343	2343	  2	  1	109	  6	  2	  3	  4	  6	  1	  1	  1	0.40031	  1	0.60000	  0	 23	 62	 63	  1	
09-May-2013	sub2343	2343	  2	  1	110	  6	  2	  2	  5	  1	  1	  1	  0	0.37412	  0	0.60000	  0	 22	 80	 81	  1	
09-May-2013	sub2343	2343	  2	  1	111	  6	  2	  3	  4	  6	  1	  1	  1	0.47892	  1	0.60000	  0	 23	 62	 63	  1	
09-May-2013	sub2343	2343	  2	  1	112	  6	  2	  6	  1	  5	  1	  1	  0	0.43579	  0	0.60000	  0	 26	 85	 86	  1	
09-May-2013	sub2343	2343	  2	  1	113	  6	  2	  1	  3	  6	  1	  1	  1	0.47341	  1	0.60000	  0	 21	 60	 61	  1	
09-May-2013	sub2343	2343	  2	  1	114	  6	  2	  4	  2	  6	  1	  2	  1	0.47140	  1	0.60000	  0	 24	 62	 63	  1	
09-May-2013	sub2343	2343	  2	  1	115	  6	  2	  3	  4	  6	  1	  1	  1	0.44609	  1	0.60000	  0	 23	 62	 63	  1	
09-May-2013	sub2343	2343	  2	  1	116	  6	  2	  1	  3	  6	  1	  1	  1	0.50647	  1	0.60000	  0	 21	 60	 61	  0	
09-May-2013	sub2343	2343	  2	  1	117	  6	  2	  2	  5	  1	  1	  1	  0	0.41832	  0	0.60000	  0	 22	 80	 81	  1	
09-May-2013	sub2343	2343	  2	  1	118	  6	  2	  2	  5	  1	  1	  1	  0	0.43770	  0	0.60000	  0	 22	 80	 81	  1	
09-May-2013	sub2343	2343	  2	  1	119	  6	  2	  4	  2	  6	  1	  2	  1	0.48289	  1	0.60000	  0	 24	 62	 63	  1	
09-May-2013	sub2343	2343	  2	  1	120	  6	  2	  4	  2	  6	  0	  2	  0	0.47915	  1	0.60000	  0	 24	 64	 89	  1	
09-May-2013	sub2343	2343	  2	  1	121	  6	  2	  5	  6	  4	  0	  1	  0	0.50489	  1	0.60000	  0	 25	 67	 88	  0	
09-May-2013	sub2343	2343	  2	  1	122	  6	  2	  4	  2	  6	  1	  2	  1	0.40618	  1	0.60000	  0	 24	 62	 63	  1	
09-May-2013	sub2343	2343	  2	  1	123	  6	  2	  2	  5	  1	  1	  2	  1	0.41708	  1	0.60000	  0	 22	 60	 61	  1	
09-May-2013	sub2343	2343	  2	  1	124	  6	  2	  5	  6	  4	  0	  2	  1	0.52083	  0	0.60000	  0	 25	 87	 68	  0	
09-May-2013	sub2343	2343	  2	  1	125	  6	  2	  6	  1	  5	  0	  1	  1	0.49307	  0	0.60000	  0	 26	 87	 68	  1	
09-May-2013	sub2343	2343	  2	  1	126	  6	  2	  3	  4	  6	  1	  1	  1	0.49931	  1	0.50000	  0	 23	 62	 63	  1	
09-May-2013	sub2343	2343	  2	  1	127	  6	  2	  5	  6	  4	  0	  2	  1	0.60419	  0	0.50000	  1	 25	 87	 51	  0	
09-May-2013	sub2343	2343	  2	  1	128	  6	  2	  2	  5	  1	  1	  2	  1	0.49206	  1	0.60000	  0	 22	 60	 61	  1	
09-May-2013	sub2343	2343	  2	  1	129	  6	  2	  3	  4	  6	  0	  1	  0	0.57646	  1	0.60000	  0	 23	 64	 89	  0	
09-May-2013	sub2343	2343	  2	  1	130	  6	  2	  3	  4	  6	  1	  1	  1	0.43964	  1	0.60000	  0	 23	 62	 63	  1	
09-May-2013	sub2343	2343	  2	  1	131	  6	  2	  6	  1	  5	  0	  1	  1	0.47973	  0	0.60000	  0	 26	 87	 68	  1	
09-May-2013	sub2343	2343	  2	  1	132	  6	  2	  6	  1	  5	  1	  1	  0	0.46429	  0	0.60000	  0	 26	 85	 86	  1	
09-May-2013	sub2343	2343	  2	  1	133	  6	  2	  5	  6	  4	  0	  2	  1	0.58480	  0	0.60000	  0	 25	 87	 68	  0	
09-May-2013	sub2343	2343	  2	  1	134	  6	  2	  5	  6	  4	  0	  2	  1	0.44577	  0	0.60000	  0	 25	 87	 68	  1	
09-May-2013	sub2343	2343	  2	  1	135	  6	  2	  4	  2	  6	  1	  2	  1	0.40769	  1	0.60000	  0	 24	 62	 63	  1	
09-May-2013	sub2343	2343	  2	  1	136	  6	  2	  6	  1	  5	  1	  1	  0	0.52166	  0	0.60000	  0	 26	 85	 86	  0	
09-May-2013	sub2343	2343	  2	  1	137	  6	  2	  5	  6	  4	  0	  2	  1	0.46555	  0	0.60000	  0	 25	 87	 68	  1	
09-May-2013	sub2343	2343	  2	  1	138	  6	  2	  1	  3	  6	  1	  1	  1	0.49475	  1	0.60000	  0	 21	 60	 61	  1	
09-May-2013	sub2343	2343	  2	  1	139	  6	  2	  5	  6	  4	  0	  2	  1	0.50359	  0	0.60000	  0	 25	 87	 68	  0	
09-May-2013	sub2343	2343	  2	  1	140	  6	  2	  6	  1	  5	  1	  1	  0	0.52247	  0	0.60000	  0	 26	 85	 86	  0	
09-May-2013	sub2343	2343	  2	  1	141	  6	  2	  3	  4	  6	  1	  1	  1	0.44715	  1	0.60000	  0	 23	 62	 63	  1	
09-May-2013	sub2343	2343	  2	  1	142	  6	  2	  4	  2	  6	  1	  2	  1	0.42222	  1	0.60000	  0	 24	 62	 63	  1	
09-May-2013	sub2343	2343	  2	  1	143	  6	  2	  2	  5	  1	  1	  2	  1	0.45438	  1	0.60000	  0	 22	 60	 61	  1	
09-May-2013	sub2343	2343	  2	  1	144	  6	  2	  2	  5	  1	  1	  2	  1	0.36825	  1	0.60000	  0	 22	 60	 61	  1	
09-May-2013	sub2343	2343	  2	  1	145	  6	  2	  6	  1	  5	  0	  1	  1	0.55825	  0	0.60000	  0	 26	 87	 68	  0	
09-May-2013	sub2343	2343	  2	  1	146	  6	  2	  4	  2	  6	  1	  2	  1	0.45554	  1	0.60000	  0	 24	 62	 63	  1	
09-May-2013	sub2343	2343	  2	  1	147	  6	  2	  5	  6	  4	  0	  2	  1	0.52495	  0	0.60000	  0	 25	 87	 68	  0	
09-May-2013	sub2343	2343	  2	  1	148	  6	  2	  3	  4	  6	  1	  1	  1	0.48485	  1	0.60000	  0	 23	 62	 63	  1	
09-May-2013	sub2343	2343	  2	  1	149	  6	  2	  3	  4	  6	  1	  2	  0	0.40977	  0	0.60000	  0	 23	 82	 83	  1	
09-May-2013	sub2343	2343	  2	  1	150	  6	  2	  1	  3	  6	  1	  1	  1	0.62032	  1	0.60000	  1	 21	 60	 51	  0	
