Date 	 Name 	 ID 	 Gender 	 Appearance 	 Trial 	 Block 	 Bin 	 Condition 	 Category 	 Number 	 Valid 	 Keypress 	 Correct 	 RT 	 Realcorrect 	 Deadline 	 Timeout 	 Stimtrigger 	 Resptrigger 	 Fedtrigger 	 WithinTime 	 
11-May-2013	sub2344	2344	  1	  1	  1	  1	  1	  3	  3	  5	  1	  1	  1	0.85986	  1	0.60000	  1	 13	 32	 51	  0	
11-May-2013	sub2344	2344	  1	  1	  2	  1	  1	  3	  3	  5	  1	  1	  1	0.42558	  1	0.90000	  0	 13	 32	 33	  1	
11-May-2013	sub2344	2344	  1	  1	  3	  1	  1	  3	  3	  5	  0	  1	  0	0.48640	  1	0.90000	  0	 13	 34	 49	  1	
11-May-2013	sub2344	2344	  1	  1	  4	  1	  1	  3	  3	  5	  1	  1	  1	0.35929	  1	0.90000	  0	 13	 32	 33	  1	
11-May-2013	sub2344	2344	  1	  1	  5	  1	  1	  6	  4	  3	  1	  2	  1	0.60834	  1	0.90000	  0	 16	 35	 36	  0	
11-May-2013	sub2344	2344	  1	  1	  6	  1	  1	  3	  3	  5	  0	  1	  0	0.48515	  1	0.90000	  0	 13	 34	 49	  1	
11-May-2013	sub2344	2344	  1	  1	  7	  1	  1	  5	  6	  4	  1	  1	  1	0.66919	  1	0.90000	  0	 15	 35	 36	  0	
11-May-2013	sub2344	2344	  1	  1	  8	  1	  1	  5	  6	  4	  1	  1	  1	0.38752	  1	0.90000	  0	 15	 35	 36	  1	
11-May-2013	sub2344	2344	  1	  1	  9	  1	  1	  4	  1	  2	  1	  2	  1	0.51083	  1	0.90000	  0	 14	 32	 33	  0	
11-May-2013	sub2344	2344	  1	  1	 10	  1	  1	  2	  2	  4	  1	  1	  0	0.40248	  0	0.90000	  0	 12	 40	 41	  1	
11-May-2013	sub2344	2344	  1	  1	 11	  1	  1	  5	  6	  4	  0	  2	  1	0.48842	  0	0.90000	  0	 15	 47	 38	  1	
11-May-2013	sub2344	2344	  1	  1	 12	  1	  1	  5	  6	  4	  1	  2	  0	0.56396	  0	0.90000	  0	 15	 45	 46	  0	
11-May-2013	sub2344	2344	  1	  1	 13	  1	  1	  4	  1	  2	  1	  1	  0	0.42172	  0	0.90000	  0	 14	 42	 43	  1	
11-May-2013	sub2344	2344	  1	  1	 14	  1	  1	  1	  5	  3	  1	  1	  1	0.26481	  1	0.90000	  0	 11	 30	 31	  1	
11-May-2013	sub2344	2344	  1	  1	 15	  1	  1	  3	  3	  5	  1	  2	  0	0.41297	  0	0.90000	  0	 13	 42	 43	  1	
11-May-2013	sub2344	2344	  1	  1	 16	  1	  1	  4	  1	  2	  1	  2	  1	0.49161	  1	0.80000	  0	 14	 32	 33	  1	
11-May-2013	sub2344	2344	  1	  1	 17	  1	  1	  6	  4	  3	  0	  2	  0	0.52373	  1	0.80000	  0	 16	 37	 48	  0	
11-May-2013	sub2344	2344	  1	  1	 18	  1	  1	  1	  5	  3	  1	  2	  0	0.46087	  0	0.70000	  0	 11	 40	 41	  1	
11-May-2013	sub2344	2344	  1	  1	 19	  1	  1	  1	  5	  3	  1	  2	  0	0.44955	  0	0.70000	  0	 11	 40	 41	  1	
11-May-2013	sub2344	2344	  1	  1	 20	  1	  1	  4	  1	  2	  1	  1	  0	0.42914	  0	0.70000	  0	 14	 42	 43	  1	
11-May-2013	sub2344	2344	  1	  1	 21	  1	  1	  6	  4	  3	  0	  1	  1	0.47272	  0	0.60000	  0	 16	 47	 38	  1	
11-May-2013	sub2344	2344	  1	  1	 22	  1	  1	  1	  5	  3	  1	  2	  0	0.51848	  0	0.60000	  0	 11	 40	 41	  0	
11-May-2013	sub2344	2344	  1	  1	 23	  1	  1	  4	  1	  2	  1	  1	  0	0.48537	  0	0.60000	  0	 14	 42	 43	  1	
11-May-2013	sub2344	2344	  1	  1	 24	  1	  1	  2	  2	  4	  1	  1	  0	0.54231	  0	0.60000	  0	 12	 40	 41	  0	
11-May-2013	sub2344	2344	  1	  1	 25	  1	  1	  3	  3	  5	  1	  1	  1	0.43109	  1	0.60000	  0	 13	 32	 33	  1	
11-May-2013	sub2344	2344	  1	  1	 26	  1	  1	  5	  6	  4	  0	  2	  1	0.59534	  0	0.50000	  1	 15	 47	 51	  0	
11-May-2013	sub2344	2344	  1	  1	 27	  1	  1	  2	  2	  4	  1	  1	  0	0.54141	  0	0.90000	  0	 12	 40	 41	  0	
11-May-2013	sub2344	2344	  1	  1	 28	  1	  1	  3	  3	  5	  1	  1	  1	0.51414	  1	0.90000	  0	 13	 32	 33	  0	
11-May-2013	sub2344	2344	  1	  1	 29	  1	  1	  4	  1	  2	  1	  1	  0	0.54732	  0	0.90000	  0	 14	 42	 43	  0	
11-May-2013	sub2344	2344	  1	  1	 30	  1	  1	  3	  3	  5	  0	  1	  0	0.49519	  1	0.80000	  0	 13	 34	 49	  1	
11-May-2013	sub2344	2344	  1	  1	 31	  1	  1	  5	  6	  4	  1	  2	  0	0.49866	  0	0.80000	  0	 15	 45	 46	  1	
11-May-2013	sub2344	2344	  1	  1	 32	  1	  1	  6	  4	  3	  1	  2	  1	0.53397	  1	0.80000	  0	 16	 35	 36	  0	
11-May-2013	sub2344	2344	  1	  1	 33	  1	  1	  1	  5	  3	  1	  2	  0	0.40758	  0	0.80000	  0	 11	 40	 41	  1	
11-May-2013	sub2344	2344	  1	  1	 34	  1	  1	  4	  1	  2	  1	  1	  0	0.51346	  0	0.80000	  0	 14	 42	 43	  0	
11-May-2013	sub2344	2344	  1	  1	 35	  1	  1	  1	  5	  3	  1	  1	  1	0.33722	  1	0.70000	  0	 11	 30	 31	  1	
11-May-2013	sub2344	2344	  1	  1	 36	  1	  1	  5	  6	  4	  1	  1	  1	0.45310	  1	0.70000	  0	 15	 35	 36	  1	
11-May-2013	sub2344	2344	  1	  1	 37	  1	  1	  3	  3	  5	  1	  1	  1	0.45935	  1	0.70000	  0	 13	 32	 33	  1	
11-May-2013	sub2344	2344	  1	  1	 38	  1	  1	  5	  6	  4	  1	  1	  1	0.40637	  1	0.70000	  0	 15	 35	 36	  1	
11-May-2013	sub2344	2344	  1	  1	 39	  1	  1	  5	  6	  4	  0	  2	  1	0.35876	  0	0.70000	  0	 15	 47	 38	  1	
11-May-2013	sub2344	2344	  1	  1	 40	  1	  1	  2	  2	  4	  1	  1	  0	0.39502	  0	0.70000	  0	 12	 40	 41	  1	
11-May-2013	sub2344	2344	  1	  1	 41	  1	  1	  6	  4	  3	  0	  2	  0	0.44812	  1	0.60000	  0	 16	 37	 48	  1	
11-May-2013	sub2344	2344	  1	  1	 42	  1	  1	  6	  4	  3	  1	  2	  1	0.44986	  1	0.60000	  0	 16	 35	 36	  1	
11-May-2013	sub2344	2344	  1	  1	 43	  1	  1	  2	  2	  4	  1	  1	  0	0.49920	  0	0.60000	  0	 12	 40	 41	  1	
11-May-2013	sub2344	2344	  1	  1	 44	  1	  1	  2	  2	  4	  1	  1	  0	0.43263	  0	0.60000	  0	 12	 40	 41	  1	
11-May-2013	sub2344	2344	  1	  1	 45	  1	  1	  6	  4	  3	  0	  2	  0	0.49512	  1	0.60000	  0	 16	 37	 48	  1	
11-May-2013	sub2344	2344	  1	  1	 46	  1	  1	  2	  2	  4	  1	  1	  0	0.42073	  0	0.60000	  0	 12	 40	 41	  1	
11-May-2013	sub2344	2344	  1	  1	 47	  1	  1	  2	  2	  4	  1	  2	  1	0.44889	  1	0.60000	  0	 12	 30	 31	  1	
11-May-2013	sub2344	2344	  1	  1	 48	  1	  1	  1	  5	  3	  1	  1	  1	0.36140	  1	0.60000	  0	 11	 30	 31	  1	
11-May-2013	sub2344	2344	  1	  1	 49	  1	  1	  3	  3	  5	  1	  1	  1	0.47419	  1	0.60000	  0	 13	 32	 33	  1	
11-May-2013	sub2344	2344	  1	  1	 50	  1	  1	  1	  5	  3	  1	  1	  1	0.58214	  1	0.60000	  0	 11	 30	 31	  0	
11-May-2013	sub2344	2344	  1	  1	 51	  1	  1	  6	  4	  3	  0	  2	  0	0.51955	  1	0.50000	  1	 16	 37	 51	  0	
11-May-2013	sub2344	2344	  1	  1	 52	  1	  1	  1	  5	  3	  1	  2	  0	0.38834	  0	0.70000	  0	 11	 40	 41	  1	
11-May-2013	sub2344	2344	  1	  1	 53	  1	  1	  3	  3	  5	  1	  1	  1	0.37575	  1	0.70000	  0	 13	 32	 33	  1	
11-May-2013	sub2344	2344	  1	  1	 54	  1	  1	  4	  1	  2	  0	  2	  0	0.49203	  1	0.70000	  0	 14	 34	 49	  1	
11-May-2013	sub2344	2344	  1	  1	 55	  1	  1	  4	  1	  2	  1	  1	  0	0.50690	  0	0.70000	  0	 14	 42	 43	  0	
11-May-2013	sub2344	2344	  1	  1	 56	  1	  1	  6	  4	  3	  1	  1	  0	0.35547	  0	0.70000	  0	 16	 45	 46	  1	
11-May-2013	sub2344	2344	  1	  1	 57	  1	  1	  6	  4	  3	  1	  1	  0	0.41998	  0	0.70000	  0	 16	 45	 46	  1	
11-May-2013	sub2344	2344	  1	  1	 58	  1	  1	  1	  5	  3	  1	  2	  0	0.46177	  0	0.70000	  0	 11	 40	 41	  1	
11-May-2013	sub2344	2344	  1	  1	 59	  1	  1	  1	  5	  3	  1	  1	  1	0.42542	  1	0.70000	  0	 11	 30	 31	  1	
11-May-2013	sub2344	2344	  1	  1	 60	  1	  1	  2	  2	  4	  1	  1	  0	0.48192	  0	0.70000	  0	 12	 40	 41	  1	
11-May-2013	sub2344	2344	  1	  1	 61	  1	  1	  5	  6	  4	  1	  1	  1	0.70114	  1	0.60000	  1	 15	 35	 51	  0	
11-May-2013	sub2344	2344	  1	  1	 62	  1	  1	  4	  1	  2	  0	  2	  0	0.50320	  1	0.80000	  0	 14	 34	 49	  0	
11-May-2013	sub2344	2344	  1	  1	 63	  1	  1	  2	  2	  4	  1	  1	  0	0.52472	  0	0.80000	  0	 12	 40	 41	  0	
11-May-2013	sub2344	2344	  1	  1	 64	  1	  1	  1	  5	  3	  1	  2	  0	0.26297	  0	0.80000	  0	 11	 40	 41	  1	
11-May-2013	sub2344	2344	  1	  1	 65	  1	  1	  4	  1	  2	  1	  1	  0	0.25166	  0	0.80000	  0	 14	 42	 43	  1	
11-May-2013	sub2344	2344	  1	  1	 66	  1	  1	  2	  2	  4	  1	  1	  0	0.43784	  0	0.80000	  0	 12	 40	 41	  1	
11-May-2013	sub2344	2344	  1	  1	 67	  1	  1	  6	  4	  3	  0	  2	  0	0.38086	  1	0.80000	  0	 16	 37	 48	  1	
11-May-2013	sub2344	2344	  1	  1	 68	  1	  1	  6	  4	  3	  0	  1	  1	0.48106	  0	0.70000	  0	 16	 47	 38	  1	
11-May-2013	sub2344	2344	  1	  1	 69	  1	  1	  2	  2	  4	  1	  1	  0	0.42576	  0	0.70000	  0	 12	 40	 41	  1	
11-May-2013	sub2344	2344	  1	  1	 70	  1	  1	  4	  1	  2	  1	  1	  0	0.49042	  0	0.70000	  0	 14	 42	 43	  1	
11-May-2013	sub2344	2344	  1	  1	 71	  1	  1	  6	  4	  3	  1	  1	  0	0.37053	  0	0.70000	  0	 16	 45	 46	  1	
11-May-2013	sub2344	2344	  1	  1	 72	  1	  1	  5	  6	  4	  0	  1	  0	0.52036	  1	0.70000	  0	 15	 37	 48	  0	
11-May-2013	sub2344	2344	  1	  1	 73	  1	  1	  5	  6	  4	  0	  2	  1	0.41731	  0	0.70000	  0	 15	 47	 38	  1	
11-May-2013	sub2344	2344	  1	  1	 74	  1	  1	  3	  3	  5	  1	  1	  1	0.48133	  1	0.70000	  0	 13	 32	 33	  1	
11-May-2013	sub2344	2344	  1	  1	 75	  1	  1	  2	  2	  4	  1	  1	  0	0.46795	  0	0.70000	  0	 12	 40	 41	  1	
11-May-2013	sub2344	2344	  1	  1	  1	  2	  1	  6	  2	  3	  0	  1	  1	0.71068	  0	0.60000	  1	 16	 47	 51	  0	
11-May-2013	sub2344	2344	  1	  1	  2	  2	  1	  5	  6	  2	  1	  1	  1	0.21801	  1	0.90000	  0	 15	 35	 36	  1	
11-May-2013	sub2344	2344	  1	  1	  3	  2	  1	  2	  1	  3	  1	  2	  1	0.39641	  1	0.90000	  0	 12	 30	 31	  1	
11-May-2013	sub2344	2344	  1	  1	  4	  2	  1	  5	  6	  2	  0	  1	  0	0.38080	  1	0.90000	  0	 15	 37	 48	  1	
11-May-2013	sub2344	2344	  1	  1	  5	  2	  1	  3	  3	  4	  0	  2	  1	0.39728	  0	0.90000	  0	 13	 44	 39	  1	
11-May-2013	sub2344	2344	  1	  1	  6	  2	  1	  3	  3	  4	  1	  2	  0	0.39741	  0	0.90000	  0	 13	 42	 43	  1	
11-May-2013	sub2344	2344	  1	  1	  7	  2	  1	  4	  4	  4	  0	  2	  0	0.40614	  1	0.90000	  0	 14	 34	 49	  1	
11-May-2013	sub2344	2344	  1	  1	  8	  2	  1	  4	  4	  4	  1	  1	  0	0.26504	  0	0.90000	  0	 14	 42	 43	  1	
11-May-2013	sub2344	2344	  1	  1	  9	  2	  1	  2	  1	  3	  1	  1	  0	0.21093	  0	0.90000	  0	 12	 40	 41	  1	
11-May-2013	sub2344	2344	  1	  1	 10	  2	  1	  1	  5	  4	  1	  1	  1	0.37457	  1	0.90000	  0	 11	 30	 31	  1	
11-May-2013	sub2344	2344	  1	  1	 11	  2	  1	  2	  1	  3	  1	  1	  0	0.35623	  0	0.90000	  0	 12	 40	 41	  1	
11-May-2013	sub2344	2344	  1	  1	 12	  2	  1	  4	  4	  4	  1	  1	  0	0.34713	  0	0.90000	  0	 14	 42	 43	  1	
11-May-2013	sub2344	2344	  1	  1	 13	  2	  1	  6	  2	  3	  1	  2	  1	0.39496	  1	0.90000	  0	 16	 35	 36	  1	
11-May-2013	sub2344	2344	  1	  1	 14	  2	  1	  3	  3	  4	  0	  1	  0	0.35341	  1	0.90000	  0	 13	 34	 49	  1	
11-May-2013	sub2344	2344	  1	  1	 15	  2	  1	  3	  3	  4	  1	  1	  1	0.32864	  1	0.90000	  0	 13	 32	 33	  1	
11-May-2013	sub2344	2344	  1	  1	 16	  2	  1	  1	  5	  4	  1	  2	  0	0.34579	  0	0.80000	  0	 11	 40	 41	  1	
11-May-2013	sub2344	2344	  1	  1	 17	  2	  1	  6	  2	  3	  1	  1	  0	0.38329	  0	0.80000	  0	 16	 45	 46	  1	
11-May-2013	sub2344	2344	  1	  1	 18	  2	  1	  2	  1	  3	  1	  1	  0	0.30118	  0	0.70000	  0	 12	 40	 41	  1	
11-May-2013	sub2344	2344	  1	  1	 19	  2	  1	  5	  6	  2	  0	  1	  0	0.39390	  1	0.70000	  0	 15	 37	 48	  1	
11-May-2013	sub2344	2344	  1	  1	 20	  2	  1	  6	  2	  3	  0	  2	  0	0.38716	  1	0.70000	  0	 16	 37	 48	  1	
11-May-2013	sub2344	2344	  1	  1	 21	  2	  1	  2	  1	  3	  1	  2	  1	0.19921	  1	0.60000	  0	 12	 30	 31	  1	
11-May-2013	sub2344	2344	  1	  1	 22	  2	  1	  2	  1	  3	  1	  2	  1	0.39178	  1	0.60000	  0	 12	 30	 31	  1	
11-May-2013	sub2344	2344	  1	  1	 23	  2	  1	  5	  6	  2	  1	  1	  1	0.38402	  1	0.60000	  0	 15	 35	 36	  1	
11-May-2013	sub2344	2344	  1	  1	 24	  2	  1	  2	  1	  3	  1	  1	  0	0.36729	  0	0.60000	  0	 12	 40	 41	  1	
11-May-2013	sub2344	2344	  1	  1	 25	  2	  1	  4	  4	  4	  1	  2	  1	0.33220	  1	0.60000	  0	 14	 32	 33	  1	
11-May-2013	sub2344	2344	  1	  1	 26	  2	  1	  5	  6	  2	  1	  1	  1	0.39731	  1	0.50000	  0	 15	 35	 36	  1	
11-May-2013	sub2344	2344	  1	  1	 27	  2	  1	  1	  5	  4	  1	  2	  0	0.41774	  0	0.50000	  0	 11	 40	 41	  1	
11-May-2013	sub2344	2344	  1	  1	 28	  2	  1	  5	  6	  2	  1	  2	  0	0.39125	  0	0.50000	  0	 15	 45	 46	  1	
11-May-2013	sub2344	2344	  1	  1	 29	  2	  1	  6	  2	  3	  0	  1	  1	0.30811	  0	0.50000	  0	 16	 47	 38	  1	
11-May-2013	sub2344	2344	  1	  1	 30	  2	  1	  5	  6	  2	  0	  1	  0	0.37220	  1	0.50000	  0	 15	 37	 48	  1	
11-May-2013	sub2344	2344	  1	  1	 31	  2	  1	  4	  4	  4	  1	  1	  0	0.39127	  0	0.50000	  0	 14	 42	 43	  1	
11-May-2013	sub2344	2344	  1	  1	 32	  2	  1	  3	  3	  4	  1	  2	  0	0.40633	  0	0.50000	  0	 13	 42	 43	  1	
11-May-2013	sub2344	2344	  1	  1	 33	  2	  1	  6	  2	  3	  1	  2	  1	0.39374	  1	0.50000	  0	 16	 35	 36	  1	
11-May-2013	sub2344	2344	  1	  1	 34	  2	  1	  4	  4	  4	  1	  2	  1	0.43393	  1	0.50000	  0	 14	 32	 33	  1	
11-May-2013	sub2344	2344	  1	  1	 35	  2	  1	  1	  5	  4	  1	  1	  1	0.39259	  1	0.40000	  0	 11	 30	 31	  1	
11-May-2013	sub2344	2344	  1	  1	 36	  2	  1	  3	  3	  4	  1	  1	  1	0.39744	  1	0.40000	  0	 13	 32	 33	  1	
11-May-2013	sub2344	2344	  1	  1	 37	  2	  1	  4	  4	  4	  1	  1	  0	0.40263	  0	0.40000	  1	 14	 42	 51	  1	
11-May-2013	sub2344	2344	  1	  1	 38	  2	  1	  2	  1	  3	  1	  1	  0	0.46014	  0	0.70000	  0	 12	 40	 41	  1	
11-May-2013	sub2344	2344	  1	  1	 39	  2	  1	  4	  4	  4	  0	  1	  1	0.40382	  0	0.70000	  0	 14	 44	 39	  1	
11-May-2013	sub2344	2344	  1	  1	 40	  2	  1	  1	  5	  4	  1	  1	  1	0.43839	  1	0.70000	  0	 11	 30	 31	  1	
11-May-2013	sub2344	2344	  1	  1	 41	  2	  1	  3	  3	  4	  1	  2	  0	0.35283	  0	0.60000	  0	 13	 42	 43	  1	
11-May-2013	sub2344	2344	  1	  1	 42	  2	  1	  2	  1	  3	  1	  2	  1	0.39848	  1	0.60000	  0	 12	 30	 31	  1	
11-May-2013	sub2344	2344	  1	  1	 43	  2	  1	  4	  4	  4	  1	  1	  0	0.37938	  0	0.60000	  0	 14	 42	 43	  1	
11-May-2013	sub2344	2344	  1	  1	 44	  2	  1	  6	  2	  3	  1	  2	  1	0.38813	  1	0.60000	  0	 16	 35	 36	  1	
11-May-2013	sub2344	2344	  1	  1	 45	  2	  1	  3	  3	  4	  1	  2	  0	0.47480	  0	0.60000	  0	 13	 42	 43	  1	
11-May-2013	sub2344	2344	  1	  1	 46	  2	  1	  3	  3	  4	  1	  2	  0	0.31896	  0	0.60000	  0	 13	 42	 43	  1	
11-May-2013	sub2344	2344	  1	  1	 47	  2	  1	  1	  5	  4	  1	  2	  0	0.37759	  0	0.60000	  0	 11	 40	 41	  1	
11-May-2013	sub2344	2344	  1	  1	 48	  2	  1	  4	  4	  4	  1	  1	  0	0.34797	  0	0.60000	  0	 14	 42	 43	  1	
11-May-2013	sub2344	2344	  1	  1	 49	  2	  1	  3	  3	  4	  0	  1	  0	0.31451	  1	0.60000	  0	 13	 34	 49	  1	
11-May-2013	sub2344	2344	  1	  1	 50	  2	  1	  4	  4	  4	  1	  1	  0	0.29534	  0	0.60000	  0	 14	 42	 43	  1	
11-May-2013	sub2344	2344	  1	  1	 51	  2	  1	  2	  1	  3	  1	  1	  0	0.28305	  0	0.50000	  0	 12	 40	 41	  1	
11-May-2013	sub2344	2344	  1	  1	 52	  2	  1	  6	  2	  3	  0	  1	  1	0.38167	  0	0.50000	  0	 16	 47	 38	  1	
11-May-2013	sub2344	2344	  1	  1	 53	  2	  1	  1	  5	  4	  1	  2	  0	0.30812	  0	0.50000	  0	 11	 40	 41	  1	
11-May-2013	sub2344	2344	  1	  1	 54	  2	  1	  1	  5	  4	  1	  1	  1	0.40609	  1	0.50000	  0	 11	 30	 31	  1	
11-May-2013	sub2344	2344	  1	  1	 55	  2	  1	  5	  6	  2	  1	  1	  1	0.43316	  1	0.50000	  0	 15	 35	 36	  1	
11-May-2013	sub2344	2344	  1	  1	 56	  2	  1	  3	  3	  4	  1	  1	  1	0.32502	  1	0.50000	  0	 13	 32	 33	  1	
11-May-2013	sub2344	2344	  1	  1	 57	  2	  1	  2	  1	  3	  1	  2	  1	0.39180	  1	0.50000	  0	 12	 30	 31	  1	
11-May-2013	sub2344	2344	  1	  1	 58	  2	  1	  6	  2	  3	  0	  2	  0	0.38439	  1	0.50000	  0	 16	 37	 48	  1	
11-May-2013	sub2344	2344	  1	  1	 59	  2	  1	  6	  2	  3	  0	  2	  0	0.36750	  1	0.50000	  0	 16	 37	 48	  1	
11-May-2013	sub2344	2344	  1	  1	 60	  2	  1	  1	  5	  4	  1	  1	  1	0.31370	  1	0.50000	  0	 11	 30	 31	  1	
11-May-2013	sub2344	2344	  1	  1	 61	  2	  1	  6	  2	  3	  1	  1	  0	0.31808	  0	0.50000	  0	 16	 45	 46	  1	
11-May-2013	sub2344	2344	  1	  1	 62	  2	  1	  2	  1	  3	  1	  1	  0	0.36621	  0	0.50000	  0	 12	 40	 41	  1	
11-May-2013	sub2344	2344	  1	  1	 63	  2	  1	  5	  6	  2	  1	  2	  0	0.30866	  0	0.50000	  0	 15	 45	 46	  1	
11-May-2013	sub2344	2344	  1	  1	 64	  2	  1	  5	  6	  2	  1	  1	  1	0.35205	  1	0.50000	  0	 15	 35	 36	  1	
11-May-2013	sub2344	2344	  1	  1	 65	  2	  1	  6	  2	  3	  0	  1	  1	0.40363	  0	0.50000	  0	 16	 47	 38	  1	
11-May-2013	sub2344	2344	  1	  1	 66	  2	  1	  5	  6	  2	  0	  1	  0	0.36149	  1	0.50000	  0	 15	 37	 48	  1	
11-May-2013	sub2344	2344	  1	  1	 67	  2	  1	  1	  5	  4	  1	  1	  1	0.48505	  1	0.50000	  0	 11	 30	 31	  1	
11-May-2013	sub2344	2344	  1	  1	 68	  2	  1	  3	  3	  4	  1	  1	  1	0.38690	  1	0.40000	  0	 13	 32	 33	  1	
11-May-2013	sub2344	2344	  1	  1	 69	  2	  1	  4	  4	  4	  1	  1	  0	0.37141	  0	0.40000	  0	 14	 42	 43	  1	
11-May-2013	sub2344	2344	  1	  1	 70	  2	  1	  1	  5	  4	  1	  1	  1	0.36778	  1	0.40000	  0	 11	 30	 31	  1	
11-May-2013	sub2344	2344	  1	  1	 71	  2	  1	  5	  6	  2	  0	  1	  0	0.45078	  1	0.40000	  1	 15	 37	 51	  1	
11-May-2013	sub2344	2344	  1	  1	 72	  2	  1	  2	  1	  3	  1	  1	  0	0.32920	  0	0.60000	  0	 12	 40	 41	  1	
11-May-2013	sub2344	2344	  1	  1	 73	  2	  1	  1	  5	  4	  1	  1	  1	0.46462	  1	0.60000	  0	 11	 30	 31	  1	
11-May-2013	sub2344	2344	  1	  1	 74	  2	  1	  6	  2	  3	  1	  1	  0	0.46074	  0	0.60000	  0	 16	 45	 46	  1	
11-May-2013	sub2344	2344	  1	  1	 75	  2	  1	  3	  3	  4	  1	  1	  1	0.30117	  1	0.60000	  0	 13	 32	 33	  1	
11-May-2013	sub2344	2344	  1	  1	 76	  2	  2	  6	  2	  3	  0	  2	  0	0.30808	  1	0.50000	  0	 26	 67	 88	  1	
11-May-2013	sub2344	2344	  1	  1	 77	  2	  2	  5	  6	  2	  0	  2	  1	0.32908	  0	0.50000	  0	 25	 87	 68	  1	
11-May-2013	sub2344	2344	  1	  1	 78	  2	  2	  4	  4	  4	  0	  1	  1	0.29511	  0	0.50000	  0	 24	 84	 69	  1	
11-May-2013	sub2344	2344	  1	  1	 79	  2	  2	  6	  2	  3	  1	  1	  0	0.34735	  0	0.50000	  0	 26	 85	 86	  1	
11-May-2013	sub2344	2344	  1	  1	 80	  2	  2	  4	  4	  4	  0	  1	  1	0.38328	  0	0.50000	  0	 24	 84	 69	  1	
11-May-2013	sub2344	2344	  1	  1	 81	  2	  2	  3	  3	  4	  1	  1	  1	0.39743	  1	0.50000	  0	 23	 62	 63	  1	
11-May-2013	sub2344	2344	  1	  1	 82	  2	  2	  5	  6	  2	  0	  2	  1	0.29139	  0	0.50000	  0	 25	 87	 68	  1	
11-May-2013	sub2344	2344	  1	  1	 83	  2	  2	  2	  1	  3	  1	  1	  0	0.37399	  0	0.50000	  0	 22	 80	 81	  1	
11-May-2013	sub2344	2344	  1	  1	 84	  2	  2	  5	  6	  2	  0	  1	  0	0.49827	  1	0.50000	  0	 25	 67	 88	  1	
11-May-2013	sub2344	2344	  1	  1	 85	  2	  2	  4	  4	  4	  0	  2	  0	0.41721	  1	0.50000	  0	 24	 64	 89	  1	
11-May-2013	sub2344	2344	  1	  1	 86	  2	  2	  2	  1	  3	  1	  2	  1	0.41603	  1	0.50000	  0	 22	 60	 61	  1	
11-May-2013	sub2344	2344	  1	  1	 87	  2	  2	  4	  4	  4	  1	  1	  0	0.35285	  0	0.50000	  0	 24	 82	 83	  1	
11-May-2013	sub2344	2344	  1	  1	 88	  2	  2	  1	  5	  4	  1	  1	  1	0.34350	  1	0.50000	  0	 21	 60	 61	  1	
11-May-2013	sub2344	2344	  1	  1	 89	  2	  2	  6	  2	  3	  0	  1	  1	0.35743	  0	0.50000	  0	 26	 87	 68	  1	
11-May-2013	sub2344	2344	  1	  1	 90	  2	  2	  6	  2	  3	  0	  2	  0	0.42867	  1	0.50000	  0	 26	 67	 88	  1	
11-May-2013	sub2344	2344	  1	  1	 91	  2	  2	  2	  1	  3	  1	  1	  0	0.37877	  0	0.50000	  0	 22	 80	 81	  1	
11-May-2013	sub2344	2344	  1	  1	 92	  2	  2	  4	  4	  4	  1	  1	  0	0.43469	  0	0.50000	  0	 24	 82	 83	  1	
11-May-2013	sub2344	2344	  1	  1	 93	  2	  2	  5	  6	  2	  0	  1	  0	0.37778	  1	0.50000	  0	 25	 67	 88	  1	
11-May-2013	sub2344	2344	  1	  1	 94	  2	  2	  1	  5	  4	  1	  1	  1	0.29731	  1	0.50000	  0	 21	 60	 61	  1	
11-May-2013	sub2344	2344	  1	  1	 95	  2	  2	  5	  6	  2	  0	  2	  1	0.36111	  0	0.50000	  0	 25	 87	 68	  1	
11-May-2013	sub2344	2344	  1	  1	 96	  2	  2	  2	  1	  3	  1	  2	  1	0.40870	  1	0.50000	  0	 22	 60	 61	  1	
11-May-2013	sub2344	2344	  1	  1	 97	  2	  2	  1	  5	  4	  1	  1	  1	0.47096	  1	0.50000	  0	 21	 60	 61	  1	
11-May-2013	sub2344	2344	  1	  1	 98	  2	  2	  1	  5	  4	  1	  1	  1	0.37362	  1	0.50000	  0	 21	 60	 61	  1	
11-May-2013	sub2344	2344	  1	  1	 99	  2	  2	  3	  3	  4	  1	  1	  1	0.36625	  1	0.50000	  0	 23	 62	 63	  1	
11-May-2013	sub2344	2344	  1	  1	100	  2	  2	  2	  1	  3	  1	  1	  0	0.35429	  0	0.50000	  0	 22	 80	 81	  1	
11-May-2013	sub2344	2344	  1	  1	101	  2	  2	  6	  2	  3	  0	  1	  1	0.47038	  0	0.40000	  1	 26	 87	 51	  1	
11-May-2013	sub2344	2344	  1	  1	102	  2	  2	  6	  2	  3	  0	  2	  0	0.47098	  1	0.50000	  0	 26	 67	 88	  1	
11-May-2013	sub2344	2344	  1	  1	103	  2	  2	  4	  4	  4	  1	  1	  0	0.39359	  0	0.50000	  0	 24	 82	 83	  1	
11-May-2013	sub2344	2344	  1	  1	104	  2	  2	  6	  2	  3	  1	  1	  0	0.20101	  0	0.50000	  0	 26	 85	 86	  1	
11-May-2013	sub2344	2344	  1	  1	105	  2	  2	  6	  2	  3	  1	  2	  1	0.29799	  1	0.50000	  0	 26	 65	 66	  1	
11-May-2013	sub2344	2344	  1	  1	106	  2	  2	  4	  4	  4	  1	  2	  1	0.37145	  1	0.50000	  0	 24	 62	 63	  1	
11-May-2013	sub2344	2344	  1	  1	107	  2	  2	  2	  1	  3	  1	  1	  0	0.44466	  0	0.50000	  0	 22	 80	 81	  1	
11-May-2013	sub2344	2344	  1	  1	108	  2	  2	  2	  1	  3	  1	  1	  0	0.48246	  0	0.50000	  0	 22	 80	 81	  1	
11-May-2013	sub2344	2344	  1	  1	109	  2	  2	  1	  5	  4	  1	  1	  1	0.66119	  1	0.50000	  1	 21	 60	 51	  0	
11-May-2013	sub2344	2344	  1	  1	110	  2	  2	  6	  2	  3	  0	  1	  1	0.38433	  0	0.60000	  0	 26	 87	 68	  1	
11-May-2013	sub2344	2344	  1	  1	111	  2	  2	  1	  5	  4	  1	  2	  0	0.46303	  0	0.60000	  0	 21	 80	 81	  1	
11-May-2013	sub2344	2344	  1	  1	112	  2	  2	  1	  5	  4	  1	  1	  1	0.34635	  1	0.60000	  0	 21	 60	 61	  1	
11-May-2013	sub2344	2344	  1	  1	113	  2	  2	  4	  4	  4	  1	  1	  0	0.38517	  0	0.60000	  0	 24	 82	 83	  1	
11-May-2013	sub2344	2344	  1	  1	114	  2	  2	  2	  1	  3	  1	  2	  1	0.38175	  1	0.60000	  0	 22	 60	 61	  1	
11-May-2013	sub2344	2344	  1	  1	115	  2	  2	  5	  6	  2	  0	  2	  1	0.29114	  0	0.60000	  0	 25	 87	 68	  1	
11-May-2013	sub2344	2344	  1	  1	116	  2	  2	  1	  5	  4	  1	  2	  0	0.36223	  0	0.60000	  0	 21	 80	 81	  1	
11-May-2013	sub2344	2344	  1	  1	117	  2	  2	  4	  4	  4	  1	  1	  0	0.35817	  0	0.60000	  0	 24	 82	 83	  1	
11-May-2013	sub2344	2344	  1	  1	118	  2	  2	  2	  1	  3	  1	  1	  0	0.36308	  0	0.60000	  0	 22	 80	 81	  1	
11-May-2013	sub2344	2344	  1	  1	119	  2	  2	  4	  4	  4	  1	  2	  1	0.38458	  1	0.60000	  0	 24	 62	 63	  1	
11-May-2013	sub2344	2344	  1	  1	120	  2	  2	  3	  3	  4	  1	  1	  1	0.38837	  1	0.60000	  0	 23	 62	 63	  1	
11-May-2013	sub2344	2344	  1	  1	121	  2	  2	  2	  1	  3	  1	  2	  1	0.44256	  1	0.60000	  0	 22	 60	 61	  1	
11-May-2013	sub2344	2344	  1	  1	122	  2	  2	  3	  3	  4	  1	  2	  0	0.38076	  0	0.60000	  0	 23	 82	 83	  1	
11-May-2013	sub2344	2344	  1	  1	123	  2	  2	  5	  6	  2	  0	  1	  0	0.33286	  1	0.60000	  0	 25	 67	 88	  1	
11-May-2013	sub2344	2344	  1	  1	124	  2	  2	  5	  6	  2	  0	  2	  1	0.55117	  0	0.60000	  0	 25	 87	 68	  0	
11-May-2013	sub2344	2344	  1	  1	125	  2	  2	  4	  4	  4	  1	  1	  0	0.43901	  0	0.60000	  0	 24	 82	 83	  1	
11-May-2013	sub2344	2344	  1	  1	126	  2	  2	  6	  2	  3	  1	  1	  0	0.45716	  0	0.50000	  0	 26	 85	 86	  1	
11-May-2013	sub2344	2344	  1	  1	127	  2	  2	  3	  3	  4	  1	  1	  1	0.41624	  1	0.50000	  0	 23	 62	 63	  1	
11-May-2013	sub2344	2344	  1	  1	128	  2	  2	  1	  5	  4	  1	  1	  1	0.35003	  1	0.50000	  0	 21	 60	 61	  1	
11-May-2013	sub2344	2344	  1	  1	129	  2	  2	  2	  1	  3	  1	  1	  0	0.47356	  0	0.50000	  0	 22	 80	 81	  1	
11-May-2013	sub2344	2344	  1	  1	130	  2	  2	  3	  3	  4	  1	  1	  1	0.35544	  1	0.50000	  0	 23	 62	 63	  1	
11-May-2013	sub2344	2344	  1	  1	131	  2	  2	  3	  3	  4	  1	  1	  1	0.46305	  1	0.50000	  0	 23	 62	 63	  1	
11-May-2013	sub2344	2344	  1	  1	132	  2	  2	  4	  4	  4	  1	  2	  1	0.29974	  1	0.50000	  0	 24	 62	 63	  1	
11-May-2013	sub2344	2344	  1	  1	133	  2	  2	  1	  5	  4	  1	  2	  0	0.39622	  0	0.50000	  0	 21	 80	 81	  1	
11-May-2013	sub2344	2344	  1	  1	134	  2	  2	  6	  2	  3	  1	  1	  0	0.36799	  0	0.50000	  0	 26	 85	 86	  1	
11-May-2013	sub2344	2344	  1	  1	135	  2	  2	  3	  3	  4	  0	  1	  0	0.36506	  1	0.50000	  0	 23	 64	 89	  1	
11-May-2013	sub2344	2344	  1	  1	136	  2	  2	  1	  5	  4	  1	  1	  1	0.54690	  1	0.50000	  1	 21	 60	 51	  0	
11-May-2013	sub2344	2344	  1	  1	137	  2	  2	  6	  2	  3	  1	  2	  1	0.44035	  1	0.60000	  0	 26	 65	 66	  1	
11-May-2013	sub2344	2344	  1	  1	138	  2	  2	  1	  5	  4	  1	  2	  0	0.41438	  0	0.60000	  0	 21	 80	 81	  1	
11-May-2013	sub2344	2344	  1	  1	139	  2	  2	  1	  5	  4	  1	  1	  1	0.49615	  1	0.60000	  0	 21	 60	 61	  1	
11-May-2013	sub2344	2344	  1	  1	140	  2	  2	  5	  6	  2	  0	  2	  1	0.55807	  0	0.60000	  0	 25	 87	 68	  0	
11-May-2013	sub2344	2344	  1	  1	141	  2	  2	  5	  6	  2	  0	  2	  1	0.46781	  0	0.60000	  0	 25	 87	 68	  1	
11-May-2013	sub2344	2344	  1	  1	142	  2	  2	  3	  3	  4	  1	  1	  1	0.44374	  1	0.60000	  0	 23	 62	 63	  1	
11-May-2013	sub2344	2344	  1	  1	143	  2	  2	  3	  3	  4	  1	  2	  0	0.45936	  0	0.60000	  0	 23	 82	 83	  1	
11-May-2013	sub2344	2344	  1	  1	144	  2	  2	  5	  6	  2	  0	  2	  1	0.49325	  0	0.60000	  0	 25	 87	 68	  1	
11-May-2013	sub2344	2344	  1	  1	145	  2	  2	  2	  1	  3	  1	  2	  1	0.50624	  1	0.60000	  0	 22	 60	 61	  0	
11-May-2013	sub2344	2344	  1	  1	146	  2	  2	  5	  6	  2	  0	  2	  1	0.35491	  0	0.60000	  0	 25	 87	 68	  1	
11-May-2013	sub2344	2344	  1	  1	147	  2	  2	  5	  6	  2	  0	  2	  1	0.33781	  0	0.60000	  0	 25	 87	 68	  1	
11-May-2013	sub2344	2344	  1	  1	148	  2	  2	  4	  4	  4	  1	  1	  0	0.44123	  0	0.60000	  0	 24	 82	 83	  1	
11-May-2013	sub2344	2344	  1	  1	149	  2	  2	  3	  3	  4	  0	  1	  0	0.31443	  1	0.60000	  0	 23	 64	 89	  1	
11-May-2013	sub2344	2344	  1	  1	150	  2	  2	  3	  3	  4	  1	  1	  1	0.29544	  1	0.60000	  0	 23	 62	 63	  1	
11-May-2013	sub2344	2344	  1	  1	  1	  3	  1	  1	  1	  5	  1	  1	  1	0.30542	  1	0.60000	  0	 11	 30	 31	  1	
11-May-2013	sub2344	2344	  1	  1	  2	  3	  1	  3	  3	  6	  1	  2	  0	0.38761	  0	0.30000	  1	 13	 42	 51	  1	
11-May-2013	sub2344	2344	  1	  1	  3	  3	  1	  5	  4	  6	  1	  1	  1	0.40405	  1	0.90000	  0	 15	 35	 36	  1	
11-May-2013	sub2344	2344	  1	  1	  4	  3	  1	  3	  3	  6	  1	  2	  0	0.44386	  0	0.90000	  0	 13	 42	 43	  1	
11-May-2013	sub2344	2344	  1	  1	  5	  3	  1	  4	  2	  1	  1	  2	  1	0.45435	  1	0.90000	  0	 14	 32	 33	  1	
11-May-2013	sub2344	2344	  1	  1	  6	  3	  1	  2	  6	  5	  1	  2	  1	0.49218	  1	0.90000	  0	 12	 30	 31	  1	
11-May-2013	sub2344	2344	  1	  1	  7	  3	  1	  4	  2	  1	  1	  2	  1	0.57483	  1	0.90000	  0	 14	 32	 33	  0	
11-May-2013	sub2344	2344	  1	  1	  8	  3	  1	  4	  2	  1	  1	  2	  1	0.42032	  1	0.90000	  0	 14	 32	 33	  1	
11-May-2013	sub2344	2344	  1	  1	  9	  3	  1	  3	  3	  6	  1	  2	  0	0.51147	  0	0.90000	  0	 13	 42	 43	  0	
11-May-2013	sub2344	2344	  1	  1	 10	  3	  1	  1	  1	  5	  1	  1	  1	0.49869	  1	0.90000	  0	 11	 30	 31	  1	
11-May-2013	sub2344	2344	  1	  1	 11	  3	  1	  2	  6	  5	  1	  2	  1	0.48192	  1	0.90000	  0	 12	 30	 31	  1	
11-May-2013	sub2344	2344	  1	  1	 12	  3	  1	  5	  4	  6	  0	  1	  0	0.59545	  1	0.90000	  0	 15	 37	 48	  0	
11-May-2013	sub2344	2344	  1	  1	 13	  3	  1	  3	  3	  6	  0	  2	  1	0.34958	  0	0.90000	  0	 13	 44	 39	  1	
11-May-2013	sub2344	2344	  1	  1	 14	  3	  1	  3	  3	  6	  1	  2	  0	0.31890	  0	0.90000	  0	 13	 42	 43	  1	
11-May-2013	sub2344	2344	  1	  1	 15	  3	  1	  1	  1	  5	  1	  1	  1	0.51192	  1	0.90000	  0	 11	 30	 31	  0	
11-May-2013	sub2344	2344	  1	  1	 16	  3	  1	  1	  1	  5	  1	  1	  1	0.39326	  1	0.80000	  0	 11	 30	 31	  1	
11-May-2013	sub2344	2344	  1	  1	 17	  3	  1	  1	  1	  5	  1	  1	  1	0.35510	  1	0.80000	  0	 11	 30	 31	  1	
11-May-2013	sub2344	2344	  1	  1	 18	  3	  1	  5	  4	  6	  1	  2	  0	0.42591	  0	0.70000	  0	 15	 45	 46	  1	
11-May-2013	sub2344	2344	  1	  1	 19	  3	  1	  5	  4	  6	  1	  2	  0	0.32142	  0	0.70000	  0	 15	 45	 46	  1	
11-May-2013	sub2344	2344	  1	  1	 20	  3	  1	  6	  5	  6	  1	  1	  0	0.32362	  0	0.70000	  0	 16	 45	 46	  1	
11-May-2013	sub2344	2344	  1	  1	 21	  3	  1	  2	  6	  5	  1	  2	  1	0.44511	  1	0.60000	  0	 12	 30	 31	  1	
11-May-2013	sub2344	2344	  1	  1	 22	  3	  1	  6	  5	  6	  1	  2	  1	0.43292	  1	0.60000	  0	 16	 35	 36	  1	
11-May-2013	sub2344	2344	  1	  1	 23	  3	  1	  2	  6	  5	  1	  2	  1	0.33186	  1	0.60000	  0	 12	 30	 31	  1	
11-May-2013	sub2344	2344	  1	  1	 24	  3	  1	  1	  1	  5	  1	  2	  0	0.36890	  0	0.60000	  0	 11	 40	 41	  1	
11-May-2013	sub2344	2344	  1	  1	 25	  3	  1	  2	  6	  5	  1	  2	  1	0.38182	  1	0.60000	  0	 12	 30	 31	  1	
11-May-2013	sub2344	2344	  1	  1	 26	  3	  1	  4	  2	  1	  1	  2	  1	0.36280	  1	0.50000	  0	 14	 32	 33	  1	
11-May-2013	sub2344	2344	  1	  1	 27	  3	  1	  5	  4	  6	  1	  2	  0	0.38686	  0	0.50000	  0	 15	 45	 46	  1	
11-May-2013	sub2344	2344	  1	  1	 28	  3	  1	  6	  5	  6	  1	  2	  1	0.34561	  1	0.50000	  0	 16	 35	 36	  1	
11-May-2013	sub2344	2344	  1	  1	 29	  3	  1	  2	  6	  5	  1	  2	  1	0.33765	  1	0.50000	  0	 12	 30	 31	  1	
11-May-2013	sub2344	2344	  1	  1	 30	  3	  1	  2	  6	  5	  1	  2	  1	0.34476	  1	0.50000	  0	 12	 30	 31	  1	
11-May-2013	sub2344	2344	  1	  1	 31	  3	  1	  3	  3	  6	  1	  2	  0	0.32915	  0	0.50000	  0	 13	 42	 43	  1	
11-May-2013	sub2344	2344	  1	  1	 32	  3	  1	  2	  6	  5	  1	  2	  1	0.25077	  1	0.50000	  0	 12	 30	 31	  1	
11-May-2013	sub2344	2344	  1	  1	 33	  3	  1	  1	  1	  5	  1	  2	  0	0.45171	  0	0.50000	  0	 11	 40	 41	  1	
11-May-2013	sub2344	2344	  1	  1	 34	  3	  1	  3	  3	  6	  1	  1	  1	0.39245	  1	0.50000	  0	 13	 32	 33	  1	
11-May-2013	sub2344	2344	  1	  1	 35	  3	  1	  4	  2	  1	  1	  2	  1	0.36032	  1	0.40000	  0	 14	 32	 33	  1	
11-May-2013	sub2344	2344	  1	  1	 36	  3	  1	  6	  5	  6	  1	  1	  0	0.39056	  0	0.40000	  0	 16	 45	 46	  1	
11-May-2013	sub2344	2344	  1	  1	 37	  3	  1	  3	  3	  6	  1	  2	  0	0.31086	  0	0.40000	  0	 13	 42	 43	  1	
11-May-2013	sub2344	2344	  1	  1	 38	  3	  1	  5	  4	  6	  1	  1	  1	0.30304	  1	0.40000	  0	 15	 35	 36	  1	
11-May-2013	sub2344	2344	  1	  1	 39	  3	  1	  3	  3	  6	  1	  1	  1	0.37411	  1	0.40000	  0	 13	 32	 33	  1	
11-May-2013	sub2344	2344	  1	  1	 40	  3	  1	  1	  1	  5	  1	  1	  1	0.33765	  1	0.40000	  0	 11	 30	 31	  1	
11-May-2013	sub2344	2344	  1	  1	 41	  3	  1	  1	  1	  5	  1	  1	  1	0.30970	  1	0.40000	  0	 11	 30	 31	  1	
11-May-2013	sub2344	2344	  1	  1	 42	  3	  1	  5	  4	  6	  1	  2	  0	0.37855	  0	0.40000	  0	 15	 45	 46	  1	
11-May-2013	sub2344	2344	  1	  1	 43	  3	  1	  5	  4	  6	  0	  2	  1	0.36134	  0	0.40000	  0	 15	 47	 38	  1	
11-May-2013	sub2344	2344	  1	  1	 44	  3	  1	  6	  5	  6	  0	  1	  1	0.44651	  0	0.40000	  1	 16	 47	 51	  1	
11-May-2013	sub2344	2344	  1	  1	 45	  3	  1	  5	  4	  6	  0	  2	  1	0.35121	  0	0.60000	  0	 15	 47	 38	  1	
11-May-2013	sub2344	2344	  1	  1	 46	  3	  1	  5	  4	  6	  0	  2	  1	0.30099	  0	0.60000	  0	 15	 47	 38	  1	
11-May-2013	sub2344	2344	  1	  1	 47	  3	  1	  2	  6	  5	  1	  2	  1	0.30284	  1	0.60000	  0	 12	 30	 31	  1	
11-May-2013	sub2344	2344	  1	  1	 48	  3	  1	  2	  6	  5	  1	  2	  1	0.36015	  1	0.60000	  0	 12	 30	 31	  1	
11-May-2013	sub2344	2344	  1	  1	 49	  3	  1	  2	  6	  5	  1	  2	  1	0.35139	  1	0.60000	  0	 12	 30	 31	  1	
11-May-2013	sub2344	2344	  1	  1	 50	  3	  1	  4	  2	  1	  1	  1	  0	0.52108	  0	0.60000	  0	 14	 42	 43	  0	
11-May-2013	sub2344	2344	  1	  1	 51	  3	  1	  6	  5	  6	  0	  2	  0	0.60753	  1	0.50000	  1	 16	 37	 51	  0	
11-May-2013	sub2344	2344	  1	  1	 52	  3	  1	  4	  2	  1	  1	  2	  1	0.17682	  1	0.70000	  0	 14	 32	 33	  1	
11-May-2013	sub2344	2344	  1	  1	 53	  3	  1	  6	  5	  6	  1	  2	  1	0.29205	  1	0.70000	  0	 16	 35	 36	  1	
11-May-2013	sub2344	2344	  1	  1	 54	  3	  1	  4	  2	  1	  1	  2	  1	0.28331	  1	0.70000	  0	 14	 32	 33	  1	
11-May-2013	sub2344	2344	  1	  1	 55	  3	  1	  6	  5	  6	  0	  2	  0	0.21447	  1	0.70000	  0	 16	 37	 48	  1	
11-May-2013	sub2344	2344	  1	  1	 56	  3	  1	  5	  4	  6	  0	  2	  1	0.18325	  0	0.70000	  0	 15	 47	 38	  1	
11-May-2013	sub2344	2344	  1	  1	 57	  3	  1	  6	  5	  6	  0	  1	  1	0.25641	  0	0.70000	  0	 16	 47	 38	  1	
11-May-2013	sub2344	2344	  1	  1	 58	  3	  1	  1	  1	  5	  1	  2	  0	0.26700	  0	0.70000	  0	 11	 40	 41	  1	
11-May-2013	sub2344	2344	  1	  1	 59	  3	  1	  3	  3	  6	  1	  2	  0	0.40822	  0	0.70000	  0	 13	 42	 43	  1	
11-May-2013	sub2344	2344	  1	  1	 60	  3	  1	  1	  1	  5	  1	  1	  1	0.23600	  1	0.70000	  0	 11	 30	 31	  1	
11-May-2013	sub2344	2344	  1	  1	 61	  3	  1	  6	  5	  6	  1	  1	  0	0.36224	  0	0.60000	  0	 16	 45	 46	  1	
11-May-2013	sub2344	2344	  1	  1	 62	  3	  1	  2	  6	  5	  1	  1	  0	0.27210	  0	0.60000	  0	 12	 40	 41	  1	
11-May-2013	sub2344	2344	  1	  1	 63	  3	  1	  4	  2	  1	  1	  2	  1	0.31147	  1	0.60000	  0	 14	 32	 33	  1	
11-May-2013	sub2344	2344	  1	  1	 64	  3	  1	  5	  4	  6	  1	  2	  0	0.29890	  0	0.60000	  0	 15	 45	 46	  1	
11-May-2013	sub2344	2344	  1	  1	 65	  3	  1	  4	  2	  1	  0	  1	  1	0.28202	  0	0.60000	  0	 14	 44	 39	  1	
11-May-2013	sub2344	2344	  1	  1	 66	  3	  1	  4	  2	  1	  1	  1	  0	0.34669	  0	0.60000	  0	 14	 42	 43	  1	
11-May-2013	sub2344	2344	  1	  1	 67	  3	  1	  6	  5	  6	  0	  2	  0	0.32164	  1	0.60000	  0	 16	 37	 48	  1	
11-May-2013	sub2344	2344	  1	  1	 68	  3	  1	  3	  3	  6	  0	  2	  1	0.32398	  0	0.60000	  0	 13	 44	 39	  1	
11-May-2013	sub2344	2344	  1	  1	 69	  3	  1	  6	  5	  6	  0	  1	  1	0.39741	  0	0.60000	  0	 16	 47	 38	  1	
11-May-2013	sub2344	2344	  1	  1	 70	  3	  1	  1	  1	  5	  1	  2	  0	0.26752	  0	0.60000	  0	 11	 40	 41	  1	
11-May-2013	sub2344	2344	  1	  1	 71	  3	  1	  3	  3	  6	  0	  1	  0	0.41452	  1	0.60000	  0	 13	 34	 49	  1	
11-May-2013	sub2344	2344	  1	  1	 72	  3	  1	  2	  6	  5	  1	  1	  0	0.28572	  0	0.60000	  0	 12	 40	 41	  1	
11-May-2013	sub2344	2344	  1	  1	 73	  3	  1	  4	  2	  1	  0	  1	  1	0.41383	  0	0.60000	  0	 14	 44	 39	  1	
11-May-2013	sub2344	2344	  1	  1	 74	  3	  1	  3	  3	  6	  1	  1	  1	0.40380	  1	0.60000	  0	 13	 32	 33	  1	
11-May-2013	sub2344	2344	  1	  1	 75	  3	  1	  6	  5	  6	  0	  1	  1	0.35356	  0	0.60000	  0	 16	 47	 38	  1	
11-May-2013	sub2344	2344	  1	  1	 76	  3	  2	  5	  4	  6	  0	  2	  1	0.35211	  0	0.50000	  0	 25	 87	 68	  1	
11-May-2013	sub2344	2344	  1	  1	 77	  3	  2	  1	  1	  5	  1	  2	  0	0.41699	  0	0.50000	  0	 21	 80	 81	  1	
11-May-2013	sub2344	2344	  1	  1	 78	  3	  2	  6	  5	  6	  1	  1	  0	0.38211	  0	0.50000	  0	 26	 85	 86	  1	
11-May-2013	sub2344	2344	  1	  1	 79	  3	  2	  4	  2	  1	  1	  2	  1	0.47357	  1	0.50000	  0	 24	 62	 63	  1	
11-May-2013	sub2344	2344	  1	  1	 80	  3	  2	  2	  6	  5	  1	  1	  0	0.53313	  0	0.50000	  1	 22	 80	 51	  0	
11-May-2013	sub2344	2344	  1	  1	 81	  3	  2	  4	  2	  1	  0	  1	  1	0.53726	  0	0.60000	  0	 24	 84	 69	  0	
11-May-2013	sub2344	2344	  1	  1	 82	  3	  2	  2	  6	  5	  1	  2	  1	0.39685	  1	0.60000	  0	 22	 60	 61	  1	
11-May-2013	sub2344	2344	  1	  1	 83	  3	  2	  6	  5	  6	  0	  2	  0	0.40350	  1	0.60000	  0	 26	 67	 88	  1	
11-May-2013	sub2344	2344	  1	  1	 84	  3	  2	  6	  5	  6	  0	  2	  0	0.31680	  1	0.60000	  0	 26	 67	 88	  1	
11-May-2013	sub2344	2344	  1	  1	 85	  3	  2	  6	  5	  6	  0	  2	  0	0.33595	  1	0.60000	  0	 26	 67	 88	  1	
11-May-2013	sub2344	2344	  1	  1	 86	  3	  2	  1	  1	  5	  1	  1	  1	0.21637	  1	0.60000	  0	 21	 60	 61	  1	
11-May-2013	sub2344	2344	  1	  1	 87	  3	  2	  1	  1	  5	  1	  1	  1	0.32114	  1	0.60000	  0	 21	 60	 61	  1	
11-May-2013	sub2344	2344	  1	  1	 88	  3	  2	  5	  4	  6	  0	  1	  0	0.35759	  1	0.60000	  0	 25	 67	 88	  1	
11-May-2013	sub2344	2344	  1	  1	 89	  3	  2	  6	  5	  6	  1	  1	  0	0.34812	  0	0.60000	  0	 26	 85	 86	  1	
11-May-2013	sub2344	2344	  1	  1	 90	  3	  2	  1	  1	  5	  1	  1	  1	0.40581	  1	0.60000	  0	 21	 60	 61	  1	
11-May-2013	sub2344	2344	  1	  1	 91	  3	  2	  2	  6	  5	  1	  2	  1	0.39728	  1	0.60000	  0	 22	 60	 61	  1	
11-May-2013	sub2344	2344	  1	  1	 92	  3	  2	  4	  2	  1	  1	  2	  1	0.44042	  1	0.60000	  0	 24	 62	 63	  1	
11-May-2013	sub2344	2344	  1	  1	 93	  3	  2	  1	  1	  5	  1	  2	  0	0.31858	  0	0.60000	  0	 21	 80	 81	  1	
11-May-2013	sub2344	2344	  1	  1	 94	  3	  2	  3	  3	  6	  0	  2	  1	0.38473	  0	0.60000	  0	 23	 84	 69	  1	
11-May-2013	sub2344	2344	  1	  1	 95	  3	  2	  2	  6	  5	  1	  1	  0	0.43333	  0	0.60000	  0	 22	 80	 81	  1	
11-May-2013	sub2344	2344	  1	  1	 96	  3	  2	  2	  6	  5	  1	  2	  1	0.36757	  1	0.60000	  0	 22	 60	 61	  1	
11-May-2013	sub2344	2344	  1	  1	 97	  3	  2	  5	  4	  6	  0	  2	  1	0.43878	  0	0.60000	  0	 25	 87	 68	  1	
11-May-2013	sub2344	2344	  1	  1	 98	  3	  2	  3	  3	  6	  1	  2	  0	0.32735	  0	0.60000	  0	 23	 82	 83	  1	
11-May-2013	sub2344	2344	  1	  1	 99	  3	  2	  3	  3	  6	  1	  2	  0	0.38046	  0	0.60000	  0	 23	 82	 83	  1	
11-May-2013	sub2344	2344	  1	  1	100	  3	  2	  5	  4	  6	  0	  1	  0	0.39964	  1	0.60000	  0	 25	 67	 88	  1	
11-May-2013	sub2344	2344	  1	  1	101	  3	  2	  3	  3	  6	  1	  1	  1	0.42473	  1	0.50000	  0	 23	 62	 63	  1	
11-May-2013	sub2344	2344	  1	  1	102	  3	  2	  1	  1	  5	  1	  1	  1	0.41206	  1	0.50000	  0	 21	 60	 61	  1	
11-May-2013	sub2344	2344	  1	  1	103	  3	  2	  6	  5	  6	  1	  1	  0	0.42797	  0	0.50000	  0	 26	 85	 86	  1	
11-May-2013	sub2344	2344	  1	  1	104	  3	  2	  5	  4	  6	  0	  1	  0	0.50650	  1	0.50000	  1	 25	 67	 51	  0	
11-May-2013	sub2344	2344	  1	  1	105	  3	  2	  3	  3	  6	  1	  1	  1	0.27828	  1	0.60000	  0	 23	 62	 63	  1	
11-May-2013	sub2344	2344	  1	  1	106	  3	  2	  5	  4	  6	  0	  1	  0	0.47882	  1	0.60000	  0	 25	 67	 88	  1	
11-May-2013	sub2344	2344	  1	  1	107	  3	  2	  4	  2	  1	  1	  2	  1	0.54628	  1	0.60000	  0	 24	 62	 63	  0	
11-May-2013	sub2344	2344	  1	  1	108	  3	  2	  5	  4	  6	  0	  2	  1	0.40192	  0	0.60000	  0	 25	 87	 68	  1	
11-May-2013	sub2344	2344	  1	  1	109	  3	  2	  6	  5	  6	  0	  2	  0	0.32451	  1	0.60000	  0	 26	 67	 88	  1	
11-May-2013	sub2344	2344	  1	  1	110	  3	  2	  3	  3	  6	  0	  2	  1	0.30080	  0	0.60000	  0	 23	 84	 69	  1	
11-May-2013	sub2344	2344	  1	  1	111	  3	  2	  3	  3	  6	  1	  1	  1	0.32823	  1	0.60000	  0	 23	 62	 63	  1	
11-May-2013	sub2344	2344	  1	  1	112	  3	  2	  4	  2	  1	  0	  1	  1	0.43930	  0	0.60000	  0	 24	 84	 69	  1	
11-May-2013	sub2344	2344	  1	  1	113	  3	  2	  3	  3	  6	  1	  2	  0	0.32602	  0	0.60000	  0	 23	 82	 83	  1	
11-May-2013	sub2344	2344	  1	  1	114	  3	  2	  4	  2	  1	  1	  2	  1	0.50141	  1	0.60000	  0	 24	 62	 63	  0	
11-May-2013	sub2344	2344	  1	  1	115	  3	  2	  1	  1	  5	  1	  1	  1	0.61929	  1	0.60000	  1	 21	 60	 51	  0	
11-May-2013	sub2344	2344	  1	  1	116	  3	  2	  5	  4	  6	  0	  2	  1	0.40050	  0	0.70000	  0	 25	 87	 68	  1	
11-May-2013	sub2344	2344	  1	  1	117	  3	  2	  5	  4	  6	  0	  2	  1	0.38210	  0	0.70000	  0	 25	 87	 68	  1	
11-May-2013	sub2344	2344	  1	  1	118	  3	  2	  4	  2	  1	  1	  1	  0	0.27789	  0	0.70000	  0	 24	 82	 83	  1	
11-May-2013	sub2344	2344	  1	  1	119	  3	  2	  4	  2	  1	  0	  2	  0	0.49238	  1	0.70000	  0	 24	 64	 89	  1	
11-May-2013	sub2344	2344	  1	  1	120	  3	  2	  4	  2	  1	  1	  2	  1	0.21958	  1	0.70000	  0	 24	 62	 63	  1	
11-May-2013	sub2344	2344	  1	  1	121	  3	  2	  1	  1	  5	  1	  1	  1	0.33339	  1	0.60000	  0	 21	 60	 61	  1	
11-May-2013	sub2344	2344	  1	  1	122	  3	  2	  2	  6	  5	  1	  1	  0	0.31732	  0	0.60000	  0	 22	 80	 81	  1	
11-May-2013	sub2344	2344	  1	  1	123	  3	  2	  5	  4	  6	  0	  2	  1	0.18371	  0	0.60000	  0	 25	 87	 68	  1	
11-May-2013	sub2344	2344	  1	  1	124	  3	  2	  3	  3	  6	  1	  2	  0	0.27096	  0	0.60000	  0	 23	 82	 83	  1	
11-May-2013	sub2344	2344	  1	  1	125	  3	  2	  6	  5	  6	  1	  1	  0	0.32411	  0	0.60000	  0	 26	 85	 86	  1	
11-May-2013	sub2344	2344	  1	  1	126	  3	  2	  6	  5	  6	  1	  2	  1	0.26755	  1	0.60000	  0	 26	 65	 66	  1	
11-May-2013	sub2344	2344	  1	  1	127	  3	  2	  1	  1	  5	  1	  1	  1	0.28460	  1	0.60000	  0	 21	 60	 61	  1	
11-May-2013	sub2344	2344	  1	  1	128	  3	  2	  2	  6	  5	  1	  2	  1	0.37538	  1	0.60000	  0	 22	 60	 61	  1	
11-May-2013	sub2344	2344	  1	  1	129	  3	  2	  1	  1	  5	  1	  1	  1	0.13467	  1	0.60000	  0	 21	 60	 61	  1	
11-May-2013	sub2344	2344	  1	  1	130	  3	  2	  4	  2	  1	  1	  1	  0	0.35651	  0	0.60000	  0	 24	 82	 83	  1	
11-May-2013	sub2344	2344	  1	  1	131	  3	  2	  2	  6	  5	  1	  2	  1	0.29779	  1	0.60000	  0	 22	 60	 61	  1	
11-May-2013	sub2344	2344	  1	  1	132	  3	  2	  4	  2	  1	  1	  2	  1	0.28470	  1	0.60000	  0	 24	 62	 63	  1	
11-May-2013	sub2344	2344	  1	  1	133	  3	  2	  5	  4	  6	  0	  2	  1	0.26964	  0	0.60000	  0	 25	 87	 68	  1	
11-May-2013	sub2344	2344	  1	  1	134	  3	  2	  3	  3	  6	  1	  2	  0	0.23738	  0	0.60000	  0	 23	 82	 83	  1	
11-May-2013	sub2344	2344	  1	  1	135	  3	  2	  1	  1	  5	  1	  1	  1	0.32186	  1	0.60000	  0	 21	 60	 61	  1	
11-May-2013	sub2344	2344	  1	  1	136	  3	  2	  6	  5	  6	  1	  1	  0	0.30227	  0	0.60000	  0	 26	 85	 86	  1	
11-May-2013	sub2344	2344	  1	  1	137	  3	  2	  4	  2	  1	  1	  2	  1	0.34951	  1	0.60000	  0	 24	 62	 63	  1	
11-May-2013	sub2344	2344	  1	  1	138	  3	  2	  2	  6	  5	  1	  1	  0	0.46513	  0	0.60000	  0	 22	 80	 81	  1	
11-May-2013	sub2344	2344	  1	  1	139	  3	  2	  6	  5	  6	  0	  2	  0	0.30435	  1	0.60000	  0	 26	 67	 88	  1	
11-May-2013	sub2344	2344	  1	  1	140	  3	  2	  3	  3	  6	  1	  1	  1	0.36346	  1	0.60000	  0	 23	 62	 63	  1	
11-May-2013	sub2344	2344	  1	  1	141	  3	  2	  5	  4	  6	  0	  2	  1	0.44344	  0	0.60000	  0	 25	 87	 68	  1	
11-May-2013	sub2344	2344	  1	  1	142	  3	  2	  2	  6	  5	  1	  2	  1	0.40820	  1	0.60000	  0	 22	 60	 61	  1	
11-May-2013	sub2344	2344	  1	  1	143	  3	  2	  1	  1	  5	  1	  2	  0	0.32307	  0	0.60000	  0	 21	 80	 81	  1	
11-May-2013	sub2344	2344	  1	  1	144	  3	  2	  5	  4	  6	  0	  1	  0	0.37207	  1	0.60000	  0	 25	 67	 88	  1	
11-May-2013	sub2344	2344	  1	  1	145	  3	  2	  1	  1	  5	  1	  1	  1	0.33099	  1	0.60000	  0	 21	 60	 61	  1	
11-May-2013	sub2344	2344	  1	  1	146	  3	  2	  2	  6	  5	  1	  2	  1	0.41085	  1	0.60000	  0	 22	 60	 61	  1	
11-May-2013	sub2344	2344	  1	  1	147	  3	  2	  3	  3	  6	  1	  2	  0	0.40607	  0	0.60000	  0	 23	 82	 83	  1	
11-May-2013	sub2344	2344	  1	  1	148	  3	  2	  4	  2	  1	  1	  1	  0	0.41863	  0	0.60000	  0	 24	 82	 83	  1	
11-May-2013	sub2344	2344	  1	  1	149	  3	  2	  6	  5	  6	  0	  2	  0	0.49489	  1	0.60000	  0	 26	 67	 88	  1	
11-May-2013	sub2344	2344	  1	  1	150	  3	  2	  2	  6	  5	  1	  2	  1	0.52370	  1	0.60000	  0	 22	 60	 61	  0	
11-May-2013	sub2344	2344	  1	  1	  1	  4	  1	  3	  1	  6	  1	  1	  1	0.74157	  1	0.60000	  1	 13	 32	 51	  0	
11-May-2013	sub2344	2344	  1	  1	  2	  4	  1	  1	  4	  1	  1	  1	  1	0.22677	  1	0.90000	  0	 11	 30	 31	  1	
11-May-2013	sub2344	2344	  1	  1	  3	  4	  1	  6	  6	  1	  1	  2	  1	0.27868	  1	0.90000	  0	 16	 35	 36	  1	
11-May-2013	sub2344	2344	  1	  1	  4	  4	  1	  6	  6	  1	  0	  2	  0	0.45582	  1	0.90000	  0	 16	 37	 48	  1	
11-May-2013	sub2344	2344	  1	  1	  5	  4	  1	  1	  4	  1	  1	  2	  0	0.29841	  0	0.90000	  0	 11	 40	 41	  1	
11-May-2013	sub2344	2344	  1	  1	  6	  4	  1	  4	  5	  1	  1	  1	  0	0.21546	  0	0.90000	  0	 14	 42	 43	  1	
11-May-2013	sub2344	2344	  1	  1	  7	  4	  1	  5	  2	  5	  0	  1	  0	0.37733	  1	0.90000	  0	 15	 37	 48	  1	
11-May-2013	sub2344	2344	  1	  1	  8	  4	  1	  4	  5	  1	  1	  1	  0	0.26299	  0	0.90000	  0	 14	 42	 43	  1	
11-May-2013	sub2344	2344	  1	  1	  9	  4	  1	  1	  4	  1	  1	  2	  0	0.36759	  0	0.90000	  0	 11	 40	 41	  1	
11-May-2013	sub2344	2344	  1	  1	 10	  4	  1	  6	  6	  1	  1	  1	  0	0.32805	  0	0.90000	  0	 16	 45	 46	  1	
11-May-2013	sub2344	2344	  1	  1	 11	  4	  1	  2	  3	  3	  1	  1	  0	0.29024	  0	0.90000	  0	 12	 40	 41	  1	
11-May-2013	sub2344	2344	  1	  1	 12	  4	  1	  4	  5	  1	  1	  1	  0	0.33141	  0	0.90000	  0	 14	 42	 43	  1	
11-May-2013	sub2344	2344	  1	  1	 13	  4	  1	  4	  5	  1	  1	  2	  1	0.22483	  1	0.90000	  0	 14	 32	 33	  1	
11-May-2013	sub2344	2344	  1	  1	 14	  4	  1	  4	  5	  1	  0	  2	  0	0.34002	  1	0.90000	  0	 14	 34	 49	  1	
11-May-2013	sub2344	2344	  1	  1	 15	  4	  1	  6	  6	  1	  1	  2	  1	0.37571	  1	0.90000	  0	 16	 35	 36	  1	
11-May-2013	sub2344	2344	  1	  1	 16	  4	  1	  3	  1	  6	  1	  2	  0	0.35000	  0	0.80000	  0	 13	 42	 43	  1	
11-May-2013	sub2344	2344	  1	  1	 17	  4	  1	  5	  2	  5	  1	  2	  0	0.40979	  0	0.80000	  0	 15	 45	 46	  1	
11-May-2013	sub2344	2344	  1	  1	 18	  4	  1	  6	  6	  1	  1	  1	  0	0.38080	  0	0.70000	  0	 16	 45	 46	  1	
11-May-2013	sub2344	2344	  1	  1	 19	  4	  1	  5	  2	  5	  0	  1	  0	0.48876	  1	0.70000	  0	 15	 37	 48	  1	
11-May-2013	sub2344	2344	  1	  1	 20	  4	  1	  2	  3	  3	  1	  2	  1	0.40150	  1	0.70000	  0	 12	 30	 31	  1	
11-May-2013	sub2344	2344	  1	  1	 21	  4	  1	  1	  4	  1	  1	  1	  1	0.41884	  1	0.60000	  0	 11	 30	 31	  1	
11-May-2013	sub2344	2344	  1	  1	 22	  4	  1	  5	  2	  5	  0	  2	  1	0.38346	  0	0.60000	  0	 15	 47	 38	  1	
11-May-2013	sub2344	2344	  1	  1	 23	  4	  1	  6	  6	  1	  1	  2	  1	0.36363	  1	0.60000	  0	 16	 35	 36	  1	
11-May-2013	sub2344	2344	  1	  1	 24	  4	  1	  2	  3	  3	  1	  2	  1	0.37410	  1	0.60000	  0	 12	 30	 31	  1	
11-May-2013	sub2344	2344	  1	  1	 25	  4	  1	  3	  1	  6	  1	  1	  1	0.34226	  1	0.60000	  0	 13	 32	 33	  1	
11-May-2013	sub2344	2344	  1	  1	 26	  4	  1	  4	  5	  1	  1	  1	  0	0.38743	  0	0.50000	  0	 14	 42	 43	  1	
11-May-2013	sub2344	2344	  1	  1	 27	  4	  1	  6	  6	  1	  0	  2	  0	0.45757	  1	0.50000	  0	 16	 37	 48	  1	
11-May-2013	sub2344	2344	  1	  1	 28	  4	  1	  2	  3	  3	  1	  2	  1	0.33278	  1	0.50000	  0	 12	 30	 31	  1	
11-May-2013	sub2344	2344	  1	  1	 29	  4	  1	  5	  2	  5	  1	  1	  1	0.36786	  1	0.50000	  0	 15	 35	 36	  1	
11-May-2013	sub2344	2344	  1	  1	 30	  4	  1	  1	  4	  1	  1	  1	  1	0.33655	  1	0.50000	  0	 11	 30	 31	  1	
11-May-2013	sub2344	2344	  1	  1	 31	  4	  1	  4	  5	  1	  0	  2	  0	0.33864	  1	0.50000	  0	 14	 34	 49	  1	
11-May-2013	sub2344	2344	  1	  1	 32	  4	  1	  4	  5	  1	  1	  1	  0	0.25200	  0	0.50000	  0	 14	 42	 43	  1	
11-May-2013	sub2344	2344	  1	  1	 33	  4	  1	  2	  3	  3	  1	  2	  1	0.39656	  1	0.50000	  0	 12	 30	 31	  1	
11-May-2013	sub2344	2344	  1	  1	 34	  4	  1	  5	  2	  5	  1	  1	  1	0.30631	  1	0.50000	  0	 15	 35	 36	  1	
11-May-2013	sub2344	2344	  1	  1	 35	  4	  1	  5	  2	  5	  0	  1	  0	0.37194	  1	0.40000	  0	 15	 37	 48	  1	
11-May-2013	sub2344	2344	  1	  1	 36	  4	  1	  4	  5	  1	  1	  1	  0	0.37705	  0	0.40000	  0	 14	 42	 43	  1	
11-May-2013	sub2344	2344	  1	  1	 37	  4	  1	  3	  1	  6	  1	  1	  1	0.45103	  1	0.40000	  1	 13	 32	 51	  1	
11-May-2013	sub2344	2344	  1	  1	 38	  4	  1	  2	  3	  3	  1	  1	  0	0.30913	  0	0.70000	  0	 12	 40	 41	  1	
11-May-2013	sub2344	2344	  1	  1	 39	  4	  1	  2	  3	  3	  1	  2	  1	0.40337	  1	0.70000	  0	 12	 30	 31	  1	
11-May-2013	sub2344	2344	  1	  1	 40	  4	  1	  5	  2	  5	  1	  2	  0	0.30253	  0	0.70000	  0	 15	 45	 46	  1	
11-May-2013	sub2344	2344	  1	  1	 41	  4	  1	  1	  4	  1	  1	  1	  1	0.41947	  1	0.60000	  0	 11	 30	 31	  1	
11-May-2013	sub2344	2344	  1	  1	 42	  4	  1	  1	  4	  1	  1	  1	  1	0.35082	  1	0.60000	  0	 11	 30	 31	  1	
11-May-2013	sub2344	2344	  1	  1	 43	  4	  1	  1	  4	  1	  1	  1	  1	0.34768	  1	0.60000	  0	 11	 30	 31	  1	
11-May-2013	sub2344	2344	  1	  1	 44	  4	  1	  2	  3	  3	  1	  1	  0	0.44574	  0	0.60000	  0	 12	 40	 41	  1	
11-May-2013	sub2344	2344	  1	  1	 45	  4	  1	  4	  5	  1	  1	  1	  0	0.24253	  0	0.60000	  0	 14	 42	 43	  1	
11-May-2013	sub2344	2344	  1	  1	 46	  4	  1	  6	  6	  1	  0	  1	  1	0.39936	  0	0.60000	  0	 16	 47	 38	  1	
11-May-2013	sub2344	2344	  1	  1	 47	  4	  1	  2	  3	  3	  1	  2	  1	0.46671	  1	0.60000	  0	 12	 30	 31	  1	
11-May-2013	sub2344	2344	  1	  1	 48	  4	  1	  4	  5	  1	  1	  2	  1	0.33608	  1	0.60000	  0	 14	 32	 33	  1	
11-May-2013	sub2344	2344	  1	  1	 49	  4	  1	  2	  3	  3	  1	  2	  1	0.42341	  1	0.60000	  0	 12	 30	 31	  1	
11-May-2013	sub2344	2344	  1	  1	 50	  4	  1	  2	  3	  3	  1	  2	  1	0.36364	  1	0.60000	  0	 12	 30	 31	  1	
11-May-2013	sub2344	2344	  1	  1	 51	  4	  1	  6	  6	  1	  0	  2	  0	0.42626	  1	0.50000	  0	 16	 37	 48	  1	
11-May-2013	sub2344	2344	  1	  1	 52	  4	  1	  3	  1	  6	  1	  2	  0	0.31087	  0	0.50000	  0	 13	 42	 43	  1	
11-May-2013	sub2344	2344	  1	  1	 53	  4	  1	  5	  2	  5	  1	  2	  0	0.36389	  0	0.50000	  0	 15	 45	 46	  1	
11-May-2013	sub2344	2344	  1	  1	 54	  4	  1	  6	  6	  1	  0	  1	  1	0.33234	  0	0.50000	  0	 16	 47	 38	  1	
11-May-2013	sub2344	2344	  1	  1	 55	  4	  1	  3	  1	  6	  1	  1	  1	0.57741	  1	0.50000	  1	 13	 32	 51	  0	
11-May-2013	sub2344	2344	  1	  1	 56	  4	  1	  1	  4	  1	  1	  1	  1	0.33331	  1	0.70000	  0	 11	 30	 31	  1	
11-May-2013	sub2344	2344	  1	  1	 57	  4	  1	  3	  1	  6	  1	  1	  1	0.36129	  1	0.70000	  0	 13	 32	 33	  1	
11-May-2013	sub2344	2344	  1	  1	 58	  4	  1	  2	  3	  3	  1	  1	  0	0.33509	  0	0.70000	  0	 12	 40	 41	  1	
11-May-2013	sub2344	2344	  1	  1	 59	  4	  1	  6	  6	  1	  1	  2	  1	0.47982	  1	0.70000	  0	 16	 35	 36	  1	
11-May-2013	sub2344	2344	  1	  1	 60	  4	  1	  1	  4	  1	  1	  2	  0	0.34241	  0	0.70000	  0	 11	 40	 41	  1	
11-May-2013	sub2344	2344	  1	  1	 61	  4	  1	  1	  4	  1	  1	  1	  1	0.42922	  1	0.60000	  0	 11	 30	 31	  1	
11-May-2013	sub2344	2344	  1	  1	 62	  4	  1	  3	  1	  6	  0	  1	  0	0.37439	  1	0.60000	  0	 13	 34	 49	  1	
11-May-2013	sub2344	2344	  1	  1	 63	  4	  1	  5	  2	  5	  1	  1	  1	0.35766	  1	0.60000	  0	 15	 35	 36	  1	
11-May-2013	sub2344	2344	  1	  1	 64	  4	  1	  5	  2	  5	  1	  1	  1	0.26464	  1	0.60000	  0	 15	 35	 36	  1	
11-May-2013	sub2344	2344	  1	  1	 65	  4	  1	  3	  1	  6	  0	  1	  0	0.34739	  1	0.60000	  0	 13	 34	 49	  1	
11-May-2013	sub2344	2344	  1	  1	 66	  4	  1	  2	  3	  3	  1	  1	  0	0.31217	  0	0.60000	  0	 12	 40	 41	  1	
11-May-2013	sub2344	2344	  1	  1	 67	  4	  1	  3	  1	  6	  0	  2	  1	0.32454	  0	0.60000	  0	 13	 44	 39	  1	
11-May-2013	sub2344	2344	  1	  1	 68	  4	  1	  5	  2	  5	  0	  1	  0	0.40591	  1	0.60000	  0	 15	 37	 48	  1	
11-May-2013	sub2344	2344	  1	  1	 69	  4	  1	  1	  4	  1	  1	  1	  1	0.41615	  1	0.60000	  0	 11	 30	 31	  1	
11-May-2013	sub2344	2344	  1	  1	 70	  4	  1	  6	  6	  1	  0	  1	  1	0.42846	  0	0.60000	  0	 16	 47	 38	  1	
11-May-2013	sub2344	2344	  1	  1	 71	  4	  1	  3	  1	  6	  1	  1	  1	0.39900	  1	0.60000	  0	 13	 32	 33	  1	
11-May-2013	sub2344	2344	  1	  1	 72	  4	  1	  3	  1	  6	  1	  1	  1	0.31981	  1	0.60000	  0	 13	 32	 33	  1	
11-May-2013	sub2344	2344	  1	  1	 73	  4	  1	  4	  5	  1	  1	  1	  0	0.28140	  0	0.60000	  0	 14	 42	 43	  1	
11-May-2013	sub2344	2344	  1	  1	 74	  4	  1	  3	  1	  6	  1	  1	  1	0.28666	  1	0.60000	  0	 13	 32	 33	  1	
11-May-2013	sub2344	2344	  1	  1	 75	  4	  1	  6	  6	  1	  0	  1	  1	0.40468	  0	0.60000	  0	 16	 47	 38	  1	
11-May-2013	sub2344	2344	  1	  1	 76	  4	  2	  5	  2	  5	  0	  1	  0	0.39545	  1	0.50000	  0	 25	 67	 88	  1	
11-May-2013	sub2344	2344	  1	  1	 77	  4	  2	  4	  5	  1	  0	  1	  1	0.41913	  0	0.50000	  0	 24	 84	 69	  1	
11-May-2013	sub2344	2344	  1	  1	 78	  4	  2	  4	  5	  1	  1	  1	  0	0.33372	  0	0.50000	  0	 24	 82	 83	  1	
11-May-2013	sub2344	2344	  1	  1	 79	  4	  2	  6	  6	  1	  1	  1	  0	0.45126	  0	0.50000	  0	 26	 85	 86	  1	
11-May-2013	sub2344	2344	  1	  1	 80	  4	  2	  5	  2	  5	  0	  2	  1	0.42434	  0	0.50000	  0	 25	 87	 68	  1	
11-May-2013	sub2344	2344	  1	  1	 81	  4	  2	  4	  5	  1	  1	  1	  0	0.40828	  0	0.50000	  0	 24	 82	 83	  1	
11-May-2013	sub2344	2344	  1	  1	 82	  4	  2	  3	  1	  6	  1	  1	  1	0.53945	  1	0.50000	  1	 23	 62	 51	  0	
11-May-2013	sub2344	2344	  1	  1	 83	  4	  2	  2	  3	  3	  1	  1	  0	0.38078	  0	0.60000	  0	 22	 80	 81	  1	
11-May-2013	sub2344	2344	  1	  1	 84	  4	  2	  4	  5	  1	  1	  1	  0	0.35422	  0	0.60000	  0	 24	 82	 83	  1	
11-May-2013	sub2344	2344	  1	  1	 85	  4	  2	  2	  3	  3	  1	  2	  1	0.63535	  1	0.60000	  1	 22	 60	 51	  0	
11-May-2013	sub2344	2344	  1	  1	 86	  4	  2	  1	  4	  1	  1	  1	  1	0.47956	  1	0.70000	  0	 21	 60	 61	  1	
11-May-2013	sub2344	2344	  1	  1	 87	  4	  2	  6	  6	  1	  1	  1	  0	0.42511	  0	0.70000	  0	 26	 85	 86	  1	
11-May-2013	sub2344	2344	  1	  1	 88	  4	  2	  5	  2	  5	  0	  1	  0	0.41004	  1	0.70000	  0	 25	 67	 88	  1	
11-May-2013	sub2344	2344	  1	  1	 89	  4	  2	  2	  3	  3	  1	  2	  1	0.56993	  1	0.70000	  0	 22	 60	 61	  0	
11-May-2013	sub2344	2344	  1	  1	 90	  4	  2	  5	  2	  5	  0	  1	  0	0.36671	  1	0.70000	  0	 25	 67	 88	  1	
11-May-2013	sub2344	2344	  1	  1	 91	  4	  2	  3	  1	  6	  1	  2	  0	0.38538	  0	0.70000	  0	 23	 82	 83	  1	
11-May-2013	sub2344	2344	  1	  1	 92	  4	  2	  6	  6	  1	  0	  1	  1	0.50234	  0	0.70000	  0	 26	 87	 68	  0	
11-May-2013	sub2344	2344	  1	  1	 93	  4	  2	  6	  6	  1	  1	  1	  0	0.38779	  0	0.70000	  0	 26	 85	 86	  1	
11-May-2013	sub2344	2344	  1	  1	 94	  4	  2	  4	  5	  1	  1	  2	  1	0.31232	  1	0.70000	  0	 24	 62	 63	  1	
11-May-2013	sub2344	2344	  1	  1	 95	  4	  2	  5	  2	  5	  0	  1	  0	0.46045	  1	0.70000	  0	 25	 67	 88	  1	
11-May-2013	sub2344	2344	  1	  1	 96	  4	  2	  5	  2	  5	  0	  1	  0	0.42381	  1	0.70000	  0	 25	 67	 88	  1	
11-May-2013	sub2344	2344	  1	  1	 97	  4	  2	  3	  1	  6	  1	  2	  0	0.41235	  0	0.70000	  0	 23	 82	 83	  1	
11-May-2013	sub2344	2344	  1	  1	 98	  4	  2	  6	  6	  1	  1	  1	  0	0.38462	  0	0.70000	  0	 26	 85	 86	  1	
11-May-2013	sub2344	2344	  1	  1	 99	  4	  2	  4	  5	  1	  0	  1	  1	0.39900	  0	0.70000	  0	 24	 84	 69	  1	
11-May-2013	sub2344	2344	  1	  1	100	  4	  2	  1	  4	  1	  1	  2	  0	0.34638	  0	0.70000	  0	 21	 80	 81	  1	
11-May-2013	sub2344	2344	  1	  1	101	  4	  2	  5	  2	  5	  0	  2	  1	0.44512	  0	0.60000	  0	 25	 87	 68	  1	
11-May-2013	sub2344	2344	  1	  1	102	  4	  2	  2	  3	  3	  1	  2	  1	0.42896	  1	0.60000	  0	 22	 60	 61	  1	
11-May-2013	sub2344	2344	  1	  1	103	  4	  2	  4	  5	  1	  1	  2	  1	0.47185	  1	0.60000	  0	 24	 62	 63	  1	
11-May-2013	sub2344	2344	  1	  1	104	  4	  2	  1	  4	  1	  1	  2	  0	0.31708	  0	0.60000	  0	 21	 80	 81	  1	
11-May-2013	sub2344	2344	  1	  1	105	  4	  2	  1	  4	  1	  1	  1	  1	0.41314	  1	0.60000	  0	 21	 60	 61	  1	
11-May-2013	sub2344	2344	  1	  1	106	  4	  2	  6	  6	  1	  0	  2	  0	0.45939	  1	0.60000	  0	 26	 67	 88	  1	
11-May-2013	sub2344	2344	  1	  1	107	  4	  2	  2	  3	  3	  1	  1	  0	0.34779	  0	0.60000	  0	 22	 80	 81	  1	
11-May-2013	sub2344	2344	  1	  1	108	  4	  2	  5	  2	  5	  0	  2	  1	0.36787	  0	0.60000	  0	 25	 87	 68	  1	
11-May-2013	sub2344	2344	  1	  1	109	  4	  2	  1	  4	  1	  1	  1	  1	0.45557	  1	0.60000	  0	 21	 60	 61	  1	
11-May-2013	sub2344	2344	  1	  1	110	  4	  2	  3	  1	  6	  1	  1	  1	0.52299	  1	0.60000	  0	 23	 62	 63	  0	
11-May-2013	sub2344	2344	  1	  1	111	  4	  2	  3	  1	  6	  1	  1	  1	0.41549	  1	0.60000	  0	 23	 62	 63	  1	
11-May-2013	sub2344	2344	  1	  1	112	  4	  2	  2	  3	  3	  1	  1	  0	0.41885	  0	0.60000	  0	 22	 80	 81	  1	
11-May-2013	sub2344	2344	  1	  1	113	  4	  2	  5	  2	  5	  0	  1	  0	0.40160	  1	0.60000	  0	 25	 67	 88	  1	
11-May-2013	sub2344	2344	  1	  1	114	  4	  2	  5	  2	  5	  0	  1	  0	0.37814	  1	0.60000	  0	 25	 67	 88	  1	
11-May-2013	sub2344	2344	  1	  1	115	  4	  2	  4	  5	  1	  0	  2	  0	0.35404	  1	0.60000	  0	 24	 64	 89	  1	
11-May-2013	sub2344	2344	  1	  1	116	  4	  2	  6	  6	  1	  0	  2	  0	0.47400	  1	0.60000	  0	 26	 67	 88	  1	
11-May-2013	sub2344	2344	  1	  1	117	  4	  2	  6	  6	  1	  0	  2	  0	0.29112	  1	0.60000	  0	 26	 67	 88	  1	
11-May-2013	sub2344	2344	  1	  1	118	  4	  2	  2	  3	  3	  1	  2	  1	0.49341	  1	0.60000	  0	 22	 60	 61	  1	
11-May-2013	sub2344	2344	  1	  1	119	  4	  2	  3	  1	  6	  0	  1	  0	0.45435	  1	0.60000	  0	 23	 64	 89	  1	
11-May-2013	sub2344	2344	  1	  1	120	  4	  2	  4	  5	  1	  1	  1	  0	0.38460	  0	0.60000	  0	 24	 82	 83	  1	
11-May-2013	sub2344	2344	  1	  1	121	  4	  2	  2	  3	  3	  1	  2	  1	0.45463	  1	0.60000	  0	 22	 60	 61	  1	
11-May-2013	sub2344	2344	  1	  1	122	  4	  2	  1	  4	  1	  1	  2	  0	0.32565	  0	0.60000	  0	 21	 80	 81	  1	
11-May-2013	sub2344	2344	  1	  1	123	  4	  2	  3	  1	  6	  1	  1	  1	0.31528	  1	0.60000	  0	 23	 62	 63	  1	
11-May-2013	sub2344	2344	  1	  1	124	  4	  2	  4	  5	  1	  1	  2	  1	0.30483	  1	0.60000	  0	 24	 62	 63	  1	
11-May-2013	sub2344	2344	  1	  1	125	  4	  2	  2	  3	  3	  1	  2	  1	0.53736	  1	0.60000	  0	 22	 60	 61	  0	
11-May-2013	sub2344	2344	  1	  1	126	  4	  2	  2	  3	  3	  1	  1	  0	0.27877	  0	0.50000	  0	 22	 80	 81	  1	
11-May-2013	sub2344	2344	  1	  1	127	  4	  2	  6	  6	  1	  0	  2	  0	0.36296	  1	0.50000	  0	 26	 67	 88	  1	
11-May-2013	sub2344	2344	  1	  1	128	  4	  2	  1	  4	  1	  1	  2	  0	0.34582	  0	0.50000	  0	 21	 80	 81	  1	
11-May-2013	sub2344	2344	  1	  1	129	  4	  2	  3	  1	  6	  1	  1	  1	0.33035	  1	0.50000	  0	 23	 62	 63	  1	
11-May-2013	sub2344	2344	  1	  1	130	  4	  2	  5	  2	  5	  0	  1	  0	0.44316	  1	0.50000	  0	 25	 67	 88	  1	
11-May-2013	sub2344	2344	  1	  1	131	  4	  2	  5	  2	  5	  0	  2	  1	0.40267	  0	0.50000	  0	 25	 87	 68	  1	
11-May-2013	sub2344	2344	  1	  1	132	  4	  2	  4	  5	  1	  1	  2	  1	0.29150	  1	0.50000	  0	 24	 62	 63	  1	
11-May-2013	sub2344	2344	  1	  1	133	  4	  2	  5	  2	  5	  0	  2	  1	0.33148	  0	0.50000	  0	 25	 87	 68	  1	
11-May-2013	sub2344	2344	  1	  1	134	  4	  2	  3	  1	  6	  1	  2	  0	0.33622	  0	0.50000	  0	 23	 82	 83	  1	
11-May-2013	sub2344	2344	  1	  1	135	  4	  2	  1	  4	  1	  1	  1	  1	0.38496	  1	0.50000	  0	 21	 60	 61	  1	
11-May-2013	sub2344	2344	  1	  1	136	  4	  2	  3	  1	  6	  1	  1	  1	0.40879	  1	0.50000	  0	 23	 62	 63	  1	
11-May-2013	sub2344	2344	  1	  1	137	  4	  2	  1	  4	  1	  1	  1	  1	0.35873	  1	0.50000	  0	 21	 60	 61	  1	
11-May-2013	sub2344	2344	  1	  1	138	  4	  2	  2	  3	  3	  1	  2	  1	0.51017	  1	0.50000	  1	 22	 60	 51	  0	
11-May-2013	sub2344	2344	  1	  1	139	  4	  2	  3	  1	  6	  0	  1	  0	0.51318	  1	0.60000	  0	 23	 64	 89	  0	
11-May-2013	sub2344	2344	  1	  1	140	  4	  2	  1	  4	  1	  1	  1	  1	0.25476	  1	0.60000	  0	 21	 60	 61	  1	
11-May-2013	sub2344	2344	  1	  1	141	  4	  2	  6	  6	  1	  1	  2	  1	0.30834	  1	0.60000	  0	 26	 65	 66	  1	
11-May-2013	sub2344	2344	  1	  1	142	  4	  2	  3	  1	  6	  1	  2	  0	0.23211	  0	0.60000	  0	 23	 82	 83	  1	
11-May-2013	sub2344	2344	  1	  1	143	  4	  2	  1	  4	  1	  1	  1	  1	0.34438	  1	0.60000	  0	 21	 60	 61	  1	
11-May-2013	sub2344	2344	  1	  1	144	  4	  2	  2	  3	  3	  1	  2	  1	0.41474	  1	0.60000	  0	 22	 60	 61	  1	
11-May-2013	sub2344	2344	  1	  1	145	  4	  2	  1	  4	  1	  1	  2	  0	0.37869	  0	0.60000	  0	 21	 80	 81	  1	
11-May-2013	sub2344	2344	  1	  1	146	  4	  2	  6	  6	  1	  0	  1	  1	0.36546	  0	0.60000	  0	 26	 87	 68	  1	
11-May-2013	sub2344	2344	  1	  1	147	  4	  2	  4	  5	  1	  1	  1	  0	0.45115	  0	0.60000	  0	 24	 82	 83	  1	
11-May-2013	sub2344	2344	  1	  1	148	  4	  2	  1	  4	  1	  1	  2	  0	0.35961	  0	0.60000	  0	 21	 80	 81	  1	
11-May-2013	sub2344	2344	  1	  1	149	  4	  2	  4	  5	  1	  1	  1	  0	0.38183	  0	0.60000	  0	 24	 82	 83	  1	
11-May-2013	sub2344	2344	  1	  1	150	  4	  2	  6	  6	  1	  1	  1	  0	0.36077	  0	0.60000	  0	 26	 85	 86	  1	
11-May-2013	sub2344	2344	  1	  1	  1	  5	  1	  6	  4	  5	  1	  1	  0	0.37450	  0	0.60000	  0	 16	 45	 46	  1	
11-May-2013	sub2344	2344	  1	  1	  2	  5	  1	  5	  1	  1	  0	  1	  0	0.52671	  1	0.30000	  1	 15	 37	 51	  0	
11-May-2013	sub2344	2344	  1	  1	  3	  5	  1	  5	  1	  1	  0	  1	  0	0.30880	  1	0.90000	  0	 15	 37	 48	  1	
11-May-2013	sub2344	2344	  1	  1	  4	  5	  1	  6	  4	  5	  0	  2	  0	0.21825	  1	0.90000	  0	 16	 37	 48	  1	
11-May-2013	sub2344	2344	  1	  1	  5	  5	  1	  2	  5	  5	  1	  2	  1	0.28276	  1	0.90000	  0	 12	 30	 31	  1	
11-May-2013	sub2344	2344	  1	  1	  6	  5	  1	  6	  4	  5	  1	  1	  0	0.34887	  0	0.90000	  0	 16	 45	 46	  1	
11-May-2013	sub2344	2344	  1	  1	  7	  5	  1	  2	  5	  5	  1	  2	  1	0.33200	  1	0.90000	  0	 12	 30	 31	  1	
11-May-2013	sub2344	2344	  1	  1	  8	  5	  1	  5	  1	  1	  1	  1	  1	0.46000	  1	0.90000	  0	 15	 35	 36	  1	
11-May-2013	sub2344	2344	  1	  1	  9	  5	  1	  3	  3	  2	  1	  2	  0	0.36632	  0	0.90000	  0	 13	 42	 43	  1	
11-May-2013	sub2344	2344	  1	  1	 10	  5	  1	  2	  5	  5	  1	  1	  0	0.44206	  0	0.90000	  0	 12	 40	 41	  1	
11-May-2013	sub2344	2344	  1	  1	 11	  5	  1	  2	  5	  5	  1	  2	  1	0.30898	  1	0.90000	  0	 12	 30	 31	  1	
11-May-2013	sub2344	2344	  1	  1	 12	  5	  1	  6	  4	  5	  1	  2	  1	0.35571	  1	0.90000	  0	 16	 35	 36	  1	
11-May-2013	sub2344	2344	  1	  1	 13	  5	  1	  5	  1	  1	  1	  2	  0	0.28254	  0	0.90000	  0	 15	 45	 46	  1	
11-May-2013	sub2344	2344	  1	  1	 14	  5	  1	  2	  5	  5	  1	  2	  1	0.33741	  1	0.90000	  0	 12	 30	 31	  1	
11-May-2013	sub2344	2344	  1	  1	 15	  5	  1	  5	  1	  1	  1	  2	  0	0.45678	  0	0.90000	  0	 15	 45	 46	  1	
11-May-2013	sub2344	2344	  1	  1	 16	  5	  1	  1	  6	  3	  1	  1	  1	0.35228	  1	0.80000	  0	 11	 30	 31	  1	
11-May-2013	sub2344	2344	  1	  1	 17	  5	  1	  4	  2	  6	  1	  2	  1	0.34615	  1	0.80000	  0	 14	 32	 33	  1	
11-May-2013	sub2344	2344	  1	  1	 18	  5	  1	  6	  4	  5	  1	  1	  0	0.33539	  0	0.70000	  0	 16	 45	 46	  1	
11-May-2013	sub2344	2344	  1	  1	 19	  5	  1	  4	  2	  6	  1	  2	  1	0.43488	  1	0.70000	  0	 14	 32	 33	  1	
11-May-2013	sub2344	2344	  1	  1	 20	  5	  1	  2	  5	  5	  1	  2	  1	0.31582	  1	0.70000	  0	 12	 30	 31	  1	
11-May-2013	sub2344	2344	  1	  1	 21	  5	  1	  1	  6	  3	  1	  2	  0	0.32299	  0	0.60000	  0	 11	 40	 41	  1	
11-May-2013	sub2344	2344	  1	  1	 22	  5	  1	  3	  3	  2	  1	  1	  1	0.33885	  1	0.60000	  0	 13	 32	 33	  1	
11-May-2013	sub2344	2344	  1	  1	 23	  5	  1	  3	  3	  2	  1	  1	  1	0.39677	  1	0.60000	  0	 13	 32	 33	  1	
11-May-2013	sub2344	2344	  1	  1	 24	  5	  1	  3	  3	  2	  0	  1	  0	0.30394	  1	0.60000	  0	 13	 34	 49	  1	
11-May-2013	sub2344	2344	  1	  1	 25	  5	  1	  1	  6	  3	  1	  2	  0	0.27987	  0	0.60000	  0	 11	 40	 41	  1	
11-May-2013	sub2344	2344	  1	  1	 26	  5	  1	  3	  3	  2	  1	  1	  1	0.30562	  1	0.50000	  0	 13	 32	 33	  1	
11-May-2013	sub2344	2344	  1	  1	 27	  5	  1	  4	  2	  6	  0	  2	  0	0.35542	  1	0.50000	  0	 14	 34	 49	  1	
11-May-2013	sub2344	2344	  1	  1	 28	  5	  1	  4	  2	  6	  1	  2	  1	0.37378	  1	0.50000	  0	 14	 32	 33	  1	
11-May-2013	sub2344	2344	  1	  1	 29	  5	  1	  2	  5	  5	  1	  2	  1	0.33679	  1	0.50000	  0	 12	 30	 31	  1	
11-May-2013	sub2344	2344	  1	  1	 30	  5	  1	  1	  6	  3	  1	  2	  0	0.31108	  0	0.50000	  0	 11	 40	 41	  1	
11-May-2013	sub2344	2344	  1	  1	 31	  5	  1	  3	  3	  2	  0	  1	  0	0.38041	  1	0.50000	  0	 13	 34	 49	  1	
11-May-2013	sub2344	2344	  1	  1	 32	  5	  1	  1	  6	  3	  1	  1	  1	0.34854	  1	0.50000	  0	 11	 30	 31	  1	
11-May-2013	sub2344	2344	  1	  1	 33	  5	  1	  5	  1	  1	  1	  1	  1	0.45253	  1	0.50000	  0	 15	 35	 36	  1	
11-May-2013	sub2344	2344	  1	  1	 34	  5	  1	  3	  3	  2	  1	  1	  1	0.53775	  1	0.50000	  1	 13	 32	 51	  0	
11-May-2013	sub2344	2344	  1	  1	 35	  5	  1	  6	  4	  5	  0	  2	  0	0.47211	  1	0.70000	  0	 16	 37	 48	  1	
11-May-2013	sub2344	2344	  1	  1	 36	  5	  1	  5	  1	  1	  0	  2	  1	0.22058	  0	0.70000	  0	 15	 47	 38	  1	
11-May-2013	sub2344	2344	  1	  1	 37	  5	  1	  1	  6	  3	  1	  1	  1	0.41134	  1	0.70000	  0	 11	 30	 31	  1	
11-May-2013	sub2344	2344	  1	  1	 38	  5	  1	  4	  2	  6	  1	  2	  1	0.46309	  1	0.70000	  0	 14	 32	 33	  1	
11-May-2013	sub2344	2344	  1	  1	 39	  5	  1	  1	  6	  3	  1	  2	  0	0.33616	  0	0.70000	  0	 11	 40	 41	  1	
11-May-2013	sub2344	2344	  1	  1	 40	  5	  1	  2	  5	  5	  1	  2	  1	0.59045	  1	0.70000	  0	 12	 30	 31	  0	
11-May-2013	sub2344	2344	  1	  1	 41	  5	  1	  3	  3	  2	  0	  2	  1	0.44392	  0	0.60000	  0	 13	 44	 39	  1	
11-May-2013	sub2344	2344	  1	  1	 42	  5	  1	  5	  1	  1	  1	  1	  1	0.36101	  1	0.60000	  0	 15	 35	 36	  1	
11-May-2013	sub2344	2344	  1	  1	 43	  5	  1	  6	  4	  5	  1	  1	  0	0.34499	  0	0.60000	  0	 16	 45	 46	  1	
11-May-2013	sub2344	2344	  1	  1	 44	  5	  1	  6	  4	  5	  0	  2	  0	0.40125	  1	0.60000	  0	 16	 37	 48	  1	
11-May-2013	sub2344	2344	  1	  1	 45	  5	  1	  1	  6	  3	  1	  2	  0	0.25214	  0	0.60000	  0	 11	 40	 41	  1	
11-May-2013	sub2344	2344	  1	  1	 46	  5	  1	  3	  3	  2	  1	  1	  1	0.33251	  1	0.60000	  0	 13	 32	 33	  1	
11-May-2013	sub2344	2344	  1	  1	 47	  5	  1	  6	  4	  5	  1	  2	  1	0.47711	  1	0.60000	  0	 16	 35	 36	  1	
11-May-2013	sub2344	2344	  1	  1	 48	  5	  1	  4	  2	  6	  1	  2	  1	0.39761	  1	0.60000	  0	 14	 32	 33	  1	
11-May-2013	sub2344	2344	  1	  1	 49	  5	  1	  5	  1	  1	  0	  1	  0	0.26167	  1	0.60000	  0	 15	 37	 48	  1	
11-May-2013	sub2344	2344	  1	  1	 50	  5	  1	  3	  3	  2	  1	  2	  0	0.26008	  0	0.60000	  0	 13	 42	 43	  1	
11-May-2013	sub2344	2344	  1	  1	 51	  5	  1	  4	  2	  6	  1	  1	  0	0.38125	  0	0.50000	  0	 14	 42	 43	  1	
11-May-2013	sub2344	2344	  1	  1	 52	  5	  1	  1	  6	  3	  1	  1	  1	0.41874	  1	0.50000	  0	 11	 30	 31	  1	
11-May-2013	sub2344	2344	  1	  1	 53	  5	  1	  5	  1	  1	  0	  1	  0	0.36324	  1	0.50000	  0	 15	 37	 48	  1	
11-May-2013	sub2344	2344	  1	  1	 54	  5	  1	  4	  2	  6	  1	  2	  1	0.44079	  1	0.50000	  0	 14	 32	 33	  1	
11-May-2013	sub2344	2344	  1	  1	 55	  5	  1	  4	  2	  6	  1	  1	  0	0.34860	  0	0.50000	  0	 14	 42	 43	  1	
11-May-2013	sub2344	2344	  1	  1	 56	  5	  1	  2	  5	  5	  1	  1	  0	0.38270	  0	0.50000	  0	 12	 40	 41	  1	
11-May-2013	sub2344	2344	  1	  1	 57	  5	  1	  4	  2	  6	  1	  2	  1	0.33300	  1	0.50000	  0	 14	 32	 33	  1	
11-May-2013	sub2344	2344	  1	  1	 58	  5	  1	  4	  2	  6	  1	  2	  1	0.32407	  1	0.50000	  0	 14	 32	 33	  1	
11-May-2013	sub2344	2344	  1	  1	 59	  5	  1	  2	  5	  5	  1	  1	  0	0.40289	  0	0.50000	  0	 12	 40	 41	  1	
11-May-2013	sub2344	2344	  1	  1	 60	  5	  1	  4	  2	  6	  0	  2	  0	0.48670	  1	0.50000	  0	 14	 34	 49	  1	
11-May-2013	sub2344	2344	  1	  1	 61	  5	  1	  5	  1	  1	  1	  2	  0	0.29672	  0	0.50000	  0	 15	 45	 46	  1	
11-May-2013	sub2344	2344	  1	  1	 62	  5	  1	  6	  4	  5	  0	  1	  1	0.30777	  0	0.50000	  0	 16	 47	 38	  1	
11-May-2013	sub2344	2344	  1	  1	 63	  5	  1	  1	  6	  3	  1	  2	  0	0.40385	  0	0.50000	  0	 11	 40	 41	  1	
11-May-2013	sub2344	2344	  1	  1	 64	  5	  1	  6	  4	  5	  1	  2	  1	0.41601	  1	0.50000	  0	 16	 35	 36	  1	
11-May-2013	sub2344	2344	  1	  1	 65	  5	  1	  2	  5	  5	  1	  1	  0	0.30838	  0	0.50000	  0	 12	 40	 41	  1	
11-May-2013	sub2344	2344	  1	  1	 66	  5	  1	  3	  3	  2	  1	  1	  1	0.37755	  1	0.50000	  0	 13	 32	 33	  1	
11-May-2013	sub2344	2344	  1	  1	 67	  5	  1	  2	  5	  5	  1	  2	  1	0.36048	  1	0.50000	  0	 12	 30	 31	  1	
11-May-2013	sub2344	2344	  1	  1	 68	  5	  1	  1	  6	  3	  1	  1	  1	0.45219	  1	0.40000	  1	 11	 30	 51	  1	
11-May-2013	sub2344	2344	  1	  1	 69	  5	  1	  6	  4	  5	  0	  1	  1	0.40393	  0	0.60000	  0	 16	 47	 38	  1	
11-May-2013	sub2344	2344	  1	  1	 70	  5	  1	  3	  3	  2	  1	  1	  1	0.31578	  1	0.60000	  0	 13	 32	 33	  1	
11-May-2013	sub2344	2344	  1	  1	 71	  5	  1	  6	  4	  5	  0	  1	  1	0.41811	  0	0.60000	  0	 16	 47	 38	  1	
11-May-2013	sub2344	2344	  1	  1	 72	  5	  1	  3	  3	  2	  1	  1	  1	0.36117	  1	0.60000	  0	 13	 32	 33	  1	
11-May-2013	sub2344	2344	  1	  1	 73	  5	  1	  2	  5	  5	  1	  2	  1	0.41449	  1	0.60000	  0	 12	 30	 31	  1	
11-May-2013	sub2344	2344	  1	  1	 74	  5	  1	  5	  1	  1	  0	  2	  1	0.41386	  0	0.60000	  0	 15	 47	 38	  1	
11-May-2013	sub2344	2344	  1	  1	 75	  5	  1	  1	  6	  3	  1	  2	  0	0.33668	  0	0.60000	  0	 11	 40	 41	  1	
11-May-2013	sub2344	2344	  1	  1	 76	  5	  2	  5	  1	  1	  0	  2	  1	0.54512	  0	0.50000	  1	 25	 87	 51	  0	
11-May-2013	sub2344	2344	  1	  1	 77	  5	  2	  3	  3	  2	  1	  2	  0	0.37614	  0	0.70000	  0	 23	 82	 83	  1	
11-May-2013	sub2344	2344	  1	  1	 78	  5	  2	  4	  2	  6	  1	  2	  1	0.35632	  1	0.70000	  0	 24	 62	 63	  1	
11-May-2013	sub2344	2344	  1	  1	 79	  5	  2	  5	  1	  1	  0	  2	  1	0.41161	  0	0.70000	  0	 25	 87	 68	  1	
11-May-2013	sub2344	2344	  1	  1	 80	  5	  2	  1	  6	  3	  1	  1	  1	0.47340	  1	0.70000	  0	 21	 60	 61	  1	
11-May-2013	sub2344	2344	  1	  1	 81	  5	  2	  4	  2	  6	  1	  2	  1	0.40586	  1	0.60000	  0	 24	 62	 63	  1	
11-May-2013	sub2344	2344	  1	  1	 82	  5	  2	  3	  3	  2	  1	  1	  1	0.34857	  1	0.60000	  0	 23	 62	 63	  1	
11-May-2013	sub2344	2344	  1	  1	 83	  5	  2	  3	  3	  2	  1	  1	  1	0.37582	  1	0.60000	  0	 23	 62	 63	  1	
11-May-2013	sub2344	2344	  1	  1	 84	  5	  2	  6	  4	  5	  0	  2	  0	0.40331	  1	0.60000	  0	 26	 67	 88	  1	
11-May-2013	sub2344	2344	  1	  1	 85	  5	  2	  3	  3	  2	  1	  1	  1	0.34005	  1	0.60000	  0	 23	 62	 63	  1	
11-May-2013	sub2344	2344	  1	  1	 86	  5	  2	  6	  4	  5	  1	  1	  0	0.40421	  0	0.60000	  0	 26	 85	 86	  1	
11-May-2013	sub2344	2344	  1	  1	 87	  5	  2	  1	  6	  3	  1	  1	  1	0.35945	  1	0.60000	  0	 21	 60	 61	  1	
11-May-2013	sub2344	2344	  1	  1	 88	  5	  2	  1	  6	  3	  1	  1	  1	0.41088	  1	0.60000	  0	 21	 60	 61	  1	
11-May-2013	sub2344	2344	  1	  1	 89	  5	  2	  5	  1	  1	  0	  2	  1	0.40083	  0	0.60000	  0	 25	 87	 68	  1	
11-May-2013	sub2344	2344	  1	  1	 90	  5	  2	  4	  2	  6	  1	  1	  0	0.38959	  0	0.60000	  0	 24	 82	 83	  1	
11-May-2013	sub2344	2344	  1	  1	 91	  5	  2	  4	  2	  6	  1	  2	  1	0.42126	  1	0.60000	  0	 24	 62	 63	  1	
11-May-2013	sub2344	2344	  1	  1	 92	  5	  2	  4	  2	  6	  1	  2	  1	0.33887	  1	0.60000	  0	 24	 62	 63	  1	
11-May-2013	sub2344	2344	  1	  1	 93	  5	  2	  6	  4	  5	  1	  2	  1	0.47984	  1	0.60000	  0	 26	 65	 66	  1	
11-May-2013	sub2344	2344	  1	  1	 94	  5	  2	  5	  1	  1	  0	  1	  0	0.35978	  1	0.60000	  0	 25	 67	 88	  1	
11-May-2013	sub2344	2344	  1	  1	 95	  5	  2	  6	  4	  5	  1	  2	  1	0.43094	  1	0.60000	  0	 26	 65	 66	  1	
11-May-2013	sub2344	2344	  1	  1	 96	  5	  2	  2	  5	  5	  1	  2	  1	0.41364	  1	0.60000	  0	 22	 60	 61	  1	
11-May-2013	sub2344	2344	  1	  1	 97	  5	  2	  2	  5	  5	  1	  1	  0	0.36047	  0	0.60000	  0	 22	 80	 81	  1	
11-May-2013	sub2344	2344	  1	  1	 98	  5	  2	  3	  3	  2	  1	  1	  1	0.34590	  1	0.60000	  0	 23	 62	 63	  1	
11-May-2013	sub2344	2344	  1	  1	 99	  5	  2	  4	  2	  6	  1	  2	  1	0.31501	  1	0.60000	  0	 24	 62	 63	  1	
11-May-2013	sub2344	2344	  1	  1	100	  5	  2	  2	  5	  5	  1	  2	  1	0.47375	  1	0.60000	  0	 22	 60	 61	  1	
11-May-2013	sub2344	2344	  1	  1	101	  5	  2	  2	  5	  5	  1	  2	  1	0.40436	  1	0.50000	  0	 22	 60	 61	  1	
11-May-2013	sub2344	2344	  1	  1	102	  5	  2	  5	  1	  1	  0	  2	  1	0.32926	  0	0.50000	  0	 25	 87	 68	  1	
11-May-2013	sub2344	2344	  1	  1	103	  5	  2	  4	  2	  6	  0	  2	  0	0.37849	  1	0.50000	  0	 24	 64	 89	  1	
11-May-2013	sub2344	2344	  1	  1	104	  5	  2	  2	  5	  5	  1	  2	  1	0.36188	  1	0.50000	  0	 22	 60	 61	  1	
11-May-2013	sub2344	2344	  1	  1	105	  5	  2	  3	  3	  2	  0	  1	  0	0.33378	  1	0.50000	  0	 23	 64	 89	  1	
11-May-2013	sub2344	2344	  1	  1	106	  5	  2	  5	  1	  1	  0	  2	  1	0.34239	  0	0.50000	  0	 25	 87	 68	  1	
11-May-2013	sub2344	2344	  1	  1	107	  5	  2	  2	  5	  5	  1	  2	  1	0.40340	  1	0.50000	  0	 22	 60	 61	  1	
11-May-2013	sub2344	2344	  1	  1	108	  5	  2	  6	  4	  5	  1	  1	  0	0.43392	  0	0.50000	  0	 26	 85	 86	  1	
11-May-2013	sub2344	2344	  1	  1	109	  5	  2	  6	  4	  5	  0	  2	  0	0.40119	  1	0.50000	  0	 26	 67	 88	  1	
11-May-2013	sub2344	2344	  1	  1	110	  5	  2	  5	  1	  1	  0	  1	  0	0.44256	  1	0.50000	  0	 25	 67	 88	  1	
11-May-2013	sub2344	2344	  1	  1	111	  5	  2	  1	  6	  3	  1	  1	  1	0.47740	  1	0.50000	  0	 21	 60	 61	  1	
11-May-2013	sub2344	2344	  1	  1	112	  5	  2	  6	  4	  5	  0	  2	  0	0.29080	  1	0.50000	  0	 26	 67	 88	  1	
11-May-2013	sub2344	2344	  1	  1	113	  5	  2	  4	  2	  6	  1	  1	  0	0.44147	  0	0.50000	  0	 24	 82	 83	  1	
11-May-2013	sub2344	2344	  1	  1	114	  5	  2	  3	  3	  2	  1	  2	  0	0.28600	  0	0.50000	  0	 23	 82	 83	  1	
11-May-2013	sub2344	2344	  1	  1	115	  5	  2	  3	  3	  2	  1	  1	  1	0.31452	  1	0.50000	  0	 23	 62	 63	  1	
11-May-2013	sub2344	2344	  1	  1	116	  5	  2	  3	  3	  2	  1	  1	  1	0.35812	  1	0.50000	  0	 23	 62	 63	  1	
11-May-2013	sub2344	2344	  1	  1	117	  5	  2	  2	  5	  5	  1	  2	  1	0.31344	  1	0.50000	  0	 22	 60	 61	  1	
11-May-2013	sub2344	2344	  1	  1	118	  5	  2	  2	  5	  5	  1	  2	  1	0.47573	  1	0.50000	  0	 22	 60	 61	  1	
11-May-2013	sub2344	2344	  1	  1	119	  5	  2	  4	  2	  6	  0	  1	  1	0.52018	  0	0.50000	  1	 24	 84	 51	  0	
11-May-2013	sub2344	2344	  1	  1	120	  5	  2	  1	  6	  3	  1	  2	  0	0.41081	  0	0.60000	  0	 21	 80	 81	  1	
11-May-2013	sub2344	2344	  1	  1	121	  5	  2	  4	  2	  6	  1	  2	  1	0.45201	  1	0.60000	  0	 24	 62	 63	  1	
11-May-2013	sub2344	2344	  1	  1	122	  5	  2	  6	  4	  5	  0	  1	  1	0.40121	  0	0.60000	  0	 26	 87	 68	  1	
11-May-2013	sub2344	2344	  1	  1	123	  5	  2	  1	  6	  3	  1	  1	  1	0.36967	  1	0.60000	  0	 21	 60	 61	  1	
11-May-2013	sub2344	2344	  1	  1	124	  5	  2	  4	  2	  6	  1	  2	  1	0.31594	  1	0.60000	  0	 24	 62	 63	  1	
11-May-2013	sub2344	2344	  1	  1	125	  5	  2	  2	  5	  5	  1	  2	  1	0.39424	  1	0.60000	  0	 22	 60	 61	  1	
11-May-2013	sub2344	2344	  1	  1	126	  5	  2	  1	  6	  3	  1	  1	  1	0.37424	  1	0.50000	  0	 21	 60	 61	  1	
11-May-2013	sub2344	2344	  1	  1	127	  5	  2	  1	  6	  3	  1	  2	  0	0.42583	  0	0.50000	  0	 21	 80	 81	  1	
11-May-2013	sub2344	2344	  1	  1	128	  5	  2	  4	  2	  6	  0	  2	  0	0.39613	  1	0.50000	  0	 24	 64	 89	  1	
11-May-2013	sub2344	2344	  1	  1	129	  5	  2	  1	  6	  3	  1	  2	  0	0.31001	  0	0.50000	  0	 21	 80	 81	  1	
11-May-2013	sub2344	2344	  1	  1	130	  5	  2	  6	  4	  5	  1	  1	  0	0.32612	  0	0.50000	  0	 26	 85	 86	  1	
11-May-2013	sub2344	2344	  1	  1	131	  5	  2	  5	  1	  1	  0	  2	  1	0.42950	  0	0.50000	  0	 25	 87	 68	  1	
11-May-2013	sub2344	2344	  1	  1	132	  5	  2	  5	  1	  1	  0	  1	  0	0.31000	  1	0.50000	  0	 25	 67	 88	  1	
11-May-2013	sub2344	2344	  1	  1	133	  5	  2	  1	  6	  3	  1	  1	  1	0.36909	  1	0.50000	  0	 21	 60	 61	  1	
11-May-2013	sub2344	2344	  1	  1	134	  5	  2	  5	  1	  1	  0	  2	  1	0.29146	  0	0.50000	  0	 25	 87	 68	  1	
11-May-2013	sub2344	2344	  1	  1	135	  5	  2	  1	  6	  3	  1	  2	  0	0.42135	  0	0.50000	  0	 21	 80	 81	  1	
11-May-2013	sub2344	2344	  1	  1	136	  5	  2	  5	  1	  1	  0	  2	  1	0.54960	  0	0.50000	  1	 25	 87	 51	  0	
11-May-2013	sub2344	2344	  1	  1	137	  5	  2	  2	  5	  5	  1	  1	  0	0.33477	  0	0.60000	  0	 22	 80	 81	  1	
11-May-2013	sub2344	2344	  1	  1	138	  5	  2	  1	  6	  3	  1	  1	  1	0.45817	  1	0.60000	  0	 21	 60	 61	  1	
11-May-2013	sub2344	2344	  1	  1	139	  5	  2	  3	  3	  2	  1	  1	  1	0.32577	  1	0.60000	  0	 23	 62	 63	  1	
11-May-2013	sub2344	2344	  1	  1	140	  5	  2	  4	  2	  6	  1	  2	  1	0.38621	  1	0.60000	  0	 24	 62	 63	  1	
11-May-2013	sub2344	2344	  1	  1	141	  5	  2	  6	  4	  5	  0	  2	  0	0.53409	  1	0.60000	  0	 26	 67	 88	  0	
11-May-2013	sub2344	2344	  1	  1	142	  5	  2	  6	  4	  5	  1	  1	  0	0.29009	  0	0.60000	  0	 26	 85	 86	  1	
11-May-2013	sub2344	2344	  1	  1	143	  5	  2	  5	  1	  1	  0	  1	  0	0.20859	  1	0.60000	  0	 25	 67	 88	  1	
11-May-2013	sub2344	2344	  1	  1	144	  5	  2	  3	  3	  2	  0	  1	  0	0.30880	  1	0.60000	  0	 23	 64	 89	  1	
11-May-2013	sub2344	2344	  1	  1	145	  5	  2	  2	  5	  5	  1	  2	  1	0.34258	  1	0.60000	  0	 22	 60	 61	  1	
11-May-2013	sub2344	2344	  1	  1	146	  5	  2	  5	  1	  1	  0	  2	  1	0.43567	  0	0.60000	  0	 25	 87	 68	  1	
11-May-2013	sub2344	2344	  1	  1	147	  5	  2	  1	  6	  3	  1	  1	  1	0.37244	  1	0.60000	  0	 21	 60	 61	  1	
11-May-2013	sub2344	2344	  1	  1	148	  5	  2	  2	  5	  5	  1	  2	  1	0.33642	  1	0.60000	  0	 22	 60	 61	  1	
11-May-2013	sub2344	2344	  1	  1	149	  5	  2	  6	  4	  5	  0	  1	  1	0.35880	  0	0.60000	  0	 26	 87	 68	  1	
11-May-2013	sub2344	2344	  1	  1	150	  5	  2	  3	  3	  2	  1	  1	  1	0.50582	  1	0.60000	  0	 23	 62	 63	  0	
11-May-2013	sub2344	2344	  1	  1	  1	  6	  1	  2	  3	  1	  1	  1	  0	0.30509	  0	0.60000	  0	 12	 40	 41	  1	
11-May-2013	sub2344	2344	  1	  1	  2	  6	  1	  4	  5	  2	  1	  2	  1	0.46525	  1	0.30000	  1	 14	 32	 51	  1	
11-May-2013	sub2344	2344	  1	  1	  3	  6	  1	  5	  1	  4	  1	  2	  0	0.27203	  0	0.90000	  0	 15	 45	 46	  1	
11-May-2013	sub2344	2344	  1	  1	  4	  6	  1	  1	  4	  2	  1	  2	  0	0.43702	  0	0.90000	  0	 11	 40	 41	  1	
11-May-2013	sub2344	2344	  1	  1	  5	  6	  1	  5	  1	  4	  0	  1	  0	0.24788	  1	0.90000	  0	 15	 37	 48	  1	
11-May-2013	sub2344	2344	  1	  1	  6	  6	  1	  4	  5	  2	  1	  2	  1	0.37748	  1	0.90000	  0	 14	 32	 33	  1	
11-May-2013	sub2344	2344	  1	  1	  7	  6	  1	  3	  6	  6	  1	  1	  1	0.37842	  1	0.90000	  0	 13	 32	 33	  1	
11-May-2013	sub2344	2344	  1	  1	  8	  6	  1	  5	  1	  4	  0	  1	  0	0.44337	  1	0.90000	  0	 15	 37	 48	  1	
11-May-2013	sub2344	2344	  1	  1	  9	  6	  1	  3	  6	  6	  1	  2	  0	0.35917	  0	0.90000	  0	 13	 42	 43	  1	
11-May-2013	sub2344	2344	  1	  1	 10	  6	  1	  4	  5	  2	  1	  2	  1	0.36157	  1	0.90000	  0	 14	 32	 33	  1	
11-May-2013	sub2344	2344	  1	  1	 11	  6	  1	  5	  1	  4	  1	  2	  0	0.37687	  0	0.90000	  0	 15	 45	 46	  1	
11-May-2013	sub2344	2344	  1	  1	 12	  6	  1	  2	  3	  1	  1	  2	  1	0.39628	  1	0.90000	  0	 12	 30	 31	  1	
11-May-2013	sub2344	2344	  1	  1	 13	  6	  1	  6	  2	  2	  0	  2	  0	0.33632	  1	0.90000	  0	 16	 37	 48	  1	
11-May-2013	sub2344	2344	  1	  1	 14	  6	  1	  5	  1	  4	  0	  1	  0	0.35375	  1	0.90000	  0	 15	 37	 48	  1	
11-May-2013	sub2344	2344	  1	  1	 15	  6	  1	  2	  3	  1	  1	  1	  0	0.46986	  0	0.90000	  0	 12	 40	 41	  1	
11-May-2013	sub2344	2344	  1	  1	 16	  6	  1	  3	  6	  6	  1	  1	  1	0.54616	  1	0.80000	  0	 13	 32	 33	  0	
11-May-2013	sub2344	2344	  1	  1	 17	  6	  1	  5	  1	  4	  0	  2	  1	0.48019	  0	0.80000	  0	 15	 47	 38	  1	
11-May-2013	sub2344	2344	  1	  1	 18	  6	  1	  2	  3	  1	  1	  2	  1	0.44275	  1	0.70000	  0	 12	 30	 31	  1	
11-May-2013	sub2344	2344	  1	  1	 19	  6	  1	  6	  2	  2	  0	  1	  1	0.37867	  0	0.70000	  0	 16	 47	 38	  1	
11-May-2013	sub2344	2344	  1	  1	 20	  6	  1	  1	  4	  2	  1	  1	  1	0.41912	  1	0.70000	  0	 11	 30	 31	  1	
11-May-2013	sub2344	2344	  1	  1	 21	  6	  1	  1	  4	  2	  1	  1	  1	0.32434	  1	0.60000	  0	 11	 30	 31	  1	
11-May-2013	sub2344	2344	  1	  1	 22	  6	  1	  4	  5	  2	  1	  2	  1	0.41410	  1	0.60000	  0	 14	 32	 33	  1	
11-May-2013	sub2344	2344	  1	  1	 23	  6	  1	  2	  3	  1	  1	  2	  1	0.30407	  1	0.60000	  0	 12	 30	 31	  1	
11-May-2013	sub2344	2344	  1	  1	 24	  6	  1	  6	  2	  2	  1	  1	  0	0.33470	  0	0.60000	  0	 16	 45	 46	  1	
11-May-2013	sub2344	2344	  1	  1	 25	  6	  1	  1	  4	  2	  1	  1	  1	0.31135	  1	0.60000	  0	 11	 30	 31	  1	
11-May-2013	sub2344	2344	  1	  1	 26	  6	  1	  2	  3	  1	  1	  2	  1	0.54878	  1	0.50000	  1	 12	 30	 51	  0	
11-May-2013	sub2344	2344	  1	  1	 27	  6	  1	  5	  1	  4	  1	  2	  0	0.39621	  0	0.90000	  0	 15	 45	 46	  1	
11-May-2013	sub2344	2344	  1	  1	 28	  6	  1	  2	  3	  1	  1	  2	  1	0.36218	  1	0.90000	  0	 12	 30	 31	  1	
11-May-2013	sub2344	2344	  1	  1	 29	  6	  1	  1	  4	  2	  1	  1	  1	0.23895	  1	0.90000	  0	 11	 30	 31	  1	
11-May-2013	sub2344	2344	  1	  1	 30	  6	  1	  3	  6	  6	  1	  2	  0	0.49471	  0	0.80000	  0	 13	 42	 43	  1	
11-May-2013	sub2344	2344	  1	  1	 31	  6	  1	  6	  2	  2	  0	  1	  1	0.43474	  0	0.80000	  0	 16	 47	 38	  1	
11-May-2013	sub2344	2344	  1	  1	 32	  6	  1	  3	  6	  6	  1	  1	  1	0.27783	  1	0.80000	  0	 13	 32	 33	  1	
11-May-2013	sub2344	2344	  1	  1	 33	  6	  1	  1	  4	  2	  1	  1	  1	0.27947	  1	0.80000	  0	 11	 30	 31	  1	
11-May-2013	sub2344	2344	  1	  1	 34	  6	  1	  3	  6	  6	  0	  1	  0	0.40312	  1	0.80000	  0	 13	 34	 49	  1	
11-May-2013	sub2344	2344	  1	  1	 35	  6	  1	  6	  2	  2	  0	  2	  0	0.28162	  1	0.70000	  0	 16	 37	 48	  1	
11-May-2013	sub2344	2344	  1	  1	 36	  6	  1	  3	  6	  6	  1	  1	  1	0.34528	  1	0.70000	  0	 13	 32	 33	  1	
11-May-2013	sub2344	2344	  1	  1	 37	  6	  1	  6	  2	  2	  0	  2	  0	0.33846	  1	0.70000	  0	 16	 37	 48	  1	
11-May-2013	sub2344	2344	  1	  1	 38	  6	  1	  4	  5	  2	  0	  1	  1	0.32256	  0	0.70000	  0	 14	 44	 39	  1	
11-May-2013	sub2344	2344	  1	  1	 39	  6	  1	  3	  6	  6	  0	  1	  0	0.31751	  1	0.70000	  0	 13	 34	 49	  1	
11-May-2013	sub2344	2344	  1	  1	 40	  6	  1	  1	  4	  2	  1	  1	  1	0.33109	  1	0.70000	  0	 11	 30	 31	  1	
11-May-2013	sub2344	2344	  1	  1	 41	  6	  1	  3	  6	  6	  1	  1	  1	0.34178	  1	0.60000	  0	 13	 32	 33	  1	
11-May-2013	sub2344	2344	  1	  1	 42	  6	  1	  3	  6	  6	  1	  2	  0	0.39981	  0	0.60000	  0	 13	 42	 43	  1	
11-May-2013	sub2344	2344	  1	  1	 43	  6	  1	  6	  2	  2	  0	  1	  1	0.31875	  0	0.60000	  0	 16	 47	 38	  1	
11-May-2013	sub2344	2344	  1	  1	 44	  6	  1	  1	  4	  2	  1	  2	  0	0.38204	  0	0.60000	  0	 11	 40	 41	  1	
11-May-2013	sub2344	2344	  1	  1	 45	  6	  1	  2	  3	  1	  1	  1	  0	0.33301	  0	0.60000	  0	 12	 40	 41	  1	
11-May-2013	sub2344	2344	  1	  1	 46	  6	  1	  6	  2	  2	  1	  1	  0	0.33804	  0	0.60000	  0	 16	 45	 46	  1	
11-May-2013	sub2344	2344	  1	  1	 47	  6	  1	  3	  6	  6	  0	  1	  0	0.34722	  1	0.60000	  0	 13	 34	 49	  1	
11-May-2013	sub2344	2344	  1	  1	 48	  6	  1	  4	  5	  2	  0	  1	  1	0.36336	  0	0.60000	  0	 14	 44	 39	  1	
11-May-2013	sub2344	2344	  1	  1	 49	  6	  1	  4	  5	  2	  1	  1	  0	0.41986	  0	0.60000	  0	 14	 42	 43	  1	
11-May-2013	sub2344	2344	  1	  1	 50	  6	  1	  1	  4	  2	  1	  1	  1	0.44561	  1	0.60000	  0	 11	 30	 31	  1	
11-May-2013	sub2344	2344	  1	  1	 51	  6	  1	  6	  2	  2	  1	  2	  1	0.28728	  1	0.50000	  0	 16	 35	 36	  1	
11-May-2013	sub2344	2344	  1	  1	 52	  6	  1	  2	  3	  1	  1	  1	  0	0.43046	  0	0.50000	  0	 12	 40	 41	  1	
11-May-2013	sub2344	2344	  1	  1	 53	  6	  1	  2	  3	  1	  1	  1	  0	0.42258	  0	0.50000	  0	 12	 40	 41	  1	
11-May-2013	sub2344	2344	  1	  1	 54	  6	  1	  4	  5	  2	  1	  2	  1	0.38039	  1	0.50000	  0	 14	 32	 33	  1	
11-May-2013	sub2344	2344	  1	  1	 55	  6	  1	  4	  5	  2	  1	  1	  0	0.32777	  0	0.50000	  0	 14	 42	 43	  1	
11-May-2013	sub2344	2344	  1	  1	 56	  6	  1	  2	  3	  1	  1	  2	  1	0.26543	  1	0.50000	  0	 12	 30	 31	  1	
11-May-2013	sub2344	2344	  1	  1	 57	  6	  1	  2	  3	  1	  1	  1	  0	0.38657	  0	0.50000	  0	 12	 40	 41	  1	
11-May-2013	sub2344	2344	  1	  1	 58	  6	  1	  5	  1	  4	  1	  2	  0	0.30356	  0	0.50000	  0	 15	 45	 46	  1	
11-May-2013	sub2344	2344	  1	  1	 59	  6	  1	  3	  6	  6	  1	  2	  0	0.35918	  0	0.50000	  0	 13	 42	 43	  1	
11-May-2013	sub2344	2344	  1	  1	 60	  6	  1	  6	  2	  2	  1	  1	  0	0.46212	  0	0.50000	  0	 16	 45	 46	  1	
11-May-2013	sub2344	2344	  1	  1	 61	  6	  1	  4	  5	  2	  1	  2	  1	0.48762	  1	0.50000	  0	 14	 32	 33	  1	
11-May-2013	sub2344	2344	  1	  1	 62	  6	  1	  2	  3	  1	  1	  1	  0	0.36725	  0	0.50000	  0	 12	 40	 41	  1	
11-May-2013	sub2344	2344	  1	  1	 63	  6	  1	  1	  4	  2	  1	  2	  0	0.29758	  0	0.50000	  0	 11	 40	 41	  1	
11-May-2013	sub2344	2344	  1	  1	 64	  6	  1	  1	  4	  2	  1	  2	  0	0.15898	  0	0.50000	  0	 11	 40	 41	  1	
11-May-2013	sub2344	2344	  1	  1	 65	  6	  1	  5	  1	  4	  1	  1	  1	0.28176	  1	0.50000	  0	 15	 35	 36	  1	
11-May-2013	sub2344	2344	  1	  1	 66	  6	  1	  1	  4	  2	  1	  1	  1	0.41317	  1	0.50000	  0	 11	 30	 31	  1	
11-May-2013	sub2344	2344	  1	  1	 67	  6	  1	  5	  1	  4	  0	  1	  0	0.36920	  1	0.50000	  0	 15	 37	 48	  1	
11-May-2013	sub2344	2344	  1	  1	 68	  6	  1	  6	  2	  2	  1	  1	  0	0.42388	  0	0.40000	  1	 16	 45	 51	  1	
11-May-2013	sub2344	2344	  1	  1	 69	  6	  1	  3	  6	  6	  1	  1	  1	0.40049	  1	0.60000	  0	 13	 32	 33	  1	
11-May-2013	sub2344	2344	  1	  1	 70	  6	  1	  6	  2	  2	  1	  1	  0	0.34884	  0	0.60000	  0	 16	 45	 46	  1	
11-May-2013	sub2344	2344	  1	  1	 71	  6	  1	  5	  1	  4	  1	  2	  0	0.38659	  0	0.60000	  0	 15	 45	 46	  1	
11-May-2013	sub2344	2344	  1	  1	 72	  6	  1	  6	  2	  2	  1	  1	  0	0.41296	  0	0.60000	  0	 16	 45	 46	  1	
11-May-2013	sub2344	2344	  1	  1	 73	  6	  1	  5	  1	  4	  0	  1	  0	0.37451	  1	0.60000	  0	 15	 37	 48	  1	
11-May-2013	sub2344	2344	  1	  1	 74	  6	  1	  4	  5	  2	  1	  2	  1	0.38000	  1	0.60000	  0	 14	 32	 33	  1	
11-May-2013	sub2344	2344	  1	  1	 75	  6	  1	  4	  5	  2	  1	  2	  1	0.39754	  1	0.60000	  0	 14	 32	 33	  1	
11-May-2013	sub2344	2344	  1	  1	 76	  6	  2	  4	  5	  2	  1	  2	  1	0.36795	  1	0.50000	  0	 24	 62	 63	  1	
11-May-2013	sub2344	2344	  1	  1	 77	  6	  2	  1	  4	  2	  1	  1	  1	0.47865	  1	0.50000	  0	 21	 60	 61	  1	
11-May-2013	sub2344	2344	  1	  1	 78	  6	  2	  1	  4	  2	  1	  1	  1	0.38928	  1	0.50000	  0	 21	 60	 61	  1	
11-May-2013	sub2344	2344	  1	  1	 79	  6	  2	  4	  5	  2	  1	  2	  1	0.38092	  1	0.50000	  0	 24	 62	 63	  1	
11-May-2013	sub2344	2344	  1	  1	 80	  6	  2	  6	  2	  2	  0	  1	  1	0.43712	  0	0.50000	  0	 26	 87	 68	  1	
11-May-2013	sub2344	2344	  1	  1	 81	  6	  2	  4	  5	  2	  1	  2	  1	0.37090	  1	0.50000	  0	 24	 62	 63	  1	
11-May-2013	sub2344	2344	  1	  1	 82	  6	  2	  1	  4	  2	  1	  1	  1	0.35226	  1	0.50000	  0	 21	 60	 61	  1	
11-May-2013	sub2344	2344	  1	  1	 83	  6	  2	  6	  2	  2	  0	  1	  1	0.36836	  0	0.50000	  0	 26	 87	 68	  1	
11-May-2013	sub2344	2344	  1	  1	 84	  6	  2	  3	  6	  6	  0	  2	  1	0.30417	  0	0.50000	  0	 23	 84	 69	  1	
11-May-2013	sub2344	2344	  1	  1	 85	  6	  2	  1	  4	  2	  1	  1	  1	0.32038	  1	0.50000	  0	 21	 60	 61	  1	
11-May-2013	sub2344	2344	  1	  1	 86	  6	  2	  5	  1	  4	  0	  2	  1	0.34199	  0	0.50000	  0	 25	 87	 68	  1	
11-May-2013	sub2344	2344	  1	  1	 87	  6	  2	  2	  3	  1	  1	  2	  1	0.40137	  1	0.50000	  0	 22	 60	 61	  1	
11-May-2013	sub2344	2344	  1	  1	 88	  6	  2	  6	  2	  2	  0	  2	  0	0.33445	  1	0.50000	  0	 26	 67	 88	  1	
11-May-2013	sub2344	2344	  1	  1	 89	  6	  2	  4	  5	  2	  1	  1	  0	0.38451	  0	0.50000	  0	 24	 82	 83	  1	
11-May-2013	sub2344	2344	  1	  1	 90	  6	  2	  2	  3	  1	  1	  2	  1	0.50640	  1	0.50000	  1	 22	 60	 51	  0	
11-May-2013	sub2344	2344	  1	  1	 91	  6	  2	  6	  2	  2	  1	  2	  1	0.33829	  1	0.60000	  0	 26	 65	 66	  1	
11-May-2013	sub2344	2344	  1	  1	 92	  6	  2	  3	  6	  6	  1	  1	  1	0.35929	  1	0.60000	  0	 23	 62	 63	  1	
11-May-2013	sub2344	2344	  1	  1	 93	  6	  2	  1	  4	  2	  1	  1	  1	0.43303	  1	0.60000	  0	 21	 60	 61	  1	
11-May-2013	sub2344	2344	  1	  1	 94	  6	  2	  3	  6	  6	  1	  1	  1	0.35569	  1	0.60000	  0	 23	 62	 63	  1	
11-May-2013	sub2344	2344	  1	  1	 95	  6	  2	  3	  6	  6	  1	  1	  1	0.41911	  1	0.60000	  0	 23	 62	 63	  1	
11-May-2013	sub2344	2344	  1	  1	 96	  6	  2	  6	  2	  2	  1	  2	  1	0.34933	  1	0.60000	  0	 26	 65	 66	  1	
11-May-2013	sub2344	2344	  1	  1	 97	  6	  2	  4	  5	  2	  1	  1	  0	0.34134	  0	0.60000	  0	 24	 82	 83	  1	
11-May-2013	sub2344	2344	  1	  1	 98	  6	  2	  1	  4	  2	  1	  1	  1	0.50584	  1	0.60000	  0	 21	 60	 61	  0	
11-May-2013	sub2344	2344	  1	  1	 99	  6	  2	  2	  3	  1	  1	  2	  1	0.55546	  1	0.60000	  0	 22	 60	 61	  0	
11-May-2013	sub2344	2344	  1	  1	100	  6	  2	  4	  5	  2	  1	  2	  1	0.46239	  1	0.60000	  0	 24	 62	 63	  1	
11-May-2013	sub2344	2344	  1	  1	101	  6	  2	  6	  2	  2	  1	  1	  0	0.38149	  0	0.50000	  0	 26	 85	 86	  1	
11-May-2013	sub2344	2344	  1	  1	102	  6	  2	  3	  6	  6	  1	  1	  1	0.43711	  1	0.50000	  0	 23	 62	 63	  1	
11-May-2013	sub2344	2344	  1	  1	103	  6	  2	  4	  5	  2	  1	  1	  0	0.40237	  0	0.50000	  0	 24	 82	 83	  1	
11-May-2013	sub2344	2344	  1	  1	104	  6	  2	  5	  1	  4	  0	  1	  0	0.33979	  1	0.50000	  0	 25	 67	 88	  1	
11-May-2013	sub2344	2344	  1	  1	105	  6	  2	  1	  4	  2	  1	  2	  0	0.39774	  0	0.50000	  0	 21	 80	 81	  1	
11-May-2013	sub2344	2344	  1	  1	106	  6	  2	  1	  4	  2	  1	  2	  0	0.37407	  0	0.50000	  0	 21	 80	 81	  1	
11-May-2013	sub2344	2344	  1	  1	107	  6	  2	  5	  1	  4	  0	  1	  0	0.37279	  1	0.50000	  0	 25	 67	 88	  1	
11-May-2013	sub2344	2344	  1	  1	108	  6	  2	  1	  4	  2	  1	  2	  0	0.40789	  0	0.50000	  0	 21	 80	 81	  1	
11-May-2013	sub2344	2344	  1	  1	109	  6	  2	  2	  3	  1	  1	  2	  1	0.43448	  1	0.50000	  0	 22	 60	 61	  1	
11-May-2013	sub2344	2344	  1	  1	110	  6	  2	  2	  3	  1	  1	  1	  0	0.35735	  0	0.50000	  0	 22	 80	 81	  1	
11-May-2013	sub2344	2344	  1	  1	111	  6	  2	  6	  2	  2	  0	  1	  1	0.45193	  0	0.50000	  0	 26	 87	 68	  1	
11-May-2013	sub2344	2344	  1	  1	112	  6	  2	  6	  2	  2	  0	  1	  1	0.42982	  0	0.50000	  0	 26	 87	 68	  1	
11-May-2013	sub2344	2344	  1	  1	113	  6	  2	  4	  5	  2	  1	  2	  1	0.49142	  1	0.50000	  0	 24	 62	 63	  1	
11-May-2013	sub2344	2344	  1	  1	114	  6	  2	  1	  4	  2	  1	  1	  1	0.41013	  1	0.50000	  0	 21	 60	 61	  1	
11-May-2013	sub2344	2344	  1	  1	115	  6	  2	  5	  1	  4	  0	  2	  1	0.49787	  0	0.50000	  0	 25	 87	 68	  1	
11-May-2013	sub2344	2344	  1	  1	116	  6	  2	  5	  1	  4	  0	  2	  1	0.36180	  0	0.50000	  0	 25	 87	 68	  1	
11-May-2013	sub2344	2344	  1	  1	117	  6	  2	  1	  4	  2	  1	  2	  0	0.33382	  0	0.50000	  0	 21	 80	 81	  1	
11-May-2013	sub2344	2344	  1	  1	118	  6	  2	  2	  3	  1	  1	  2	  1	0.48358	  1	0.50000	  0	 22	 60	 61	  1	
11-May-2013	sub2344	2344	  1	  1	119	  6	  2	  3	  6	  6	  0	  1	  0	0.31780	  1	0.50000	  0	 23	 64	 89	  1	
11-May-2013	sub2344	2344	  1	  1	120	  6	  2	  3	  6	  6	  1	  1	  1	0.40946	  1	0.50000	  0	 23	 62	 63	  1	
11-May-2013	sub2344	2344	  1	  1	121	  6	  2	  2	  3	  1	  1	  2	  1	0.49650	  1	0.50000	  0	 22	 60	 61	  1	
11-May-2013	sub2344	2344	  1	  1	122	  6	  2	  4	  5	  2	  0	  2	  0	0.33190	  1	0.50000	  0	 24	 64	 89	  1	
11-May-2013	sub2344	2344	  1	  1	123	  6	  2	  3	  6	  6	  1	  1	  1	0.40504	  1	0.50000	  0	 23	 62	 63	  1	
11-May-2013	sub2344	2344	  1	  1	124	  6	  2	  2	  3	  1	  1	  2	  1	0.46720	  1	0.50000	  0	 22	 60	 61	  1	
11-May-2013	sub2344	2344	  1	  1	125	  6	  2	  5	  1	  4	  0	  1	  0	0.38313	  1	0.50000	  0	 25	 67	 88	  1	
11-May-2013	sub2344	2344	  1	  1	126	  6	  2	  6	  2	  2	  1	  1	  0	0.55961	  0	0.50000	  1	 26	 85	 51	  0	
11-May-2013	sub2344	2344	  1	  1	127	  6	  2	  4	  5	  2	  0	  1	  1	0.42195	  0	0.50000	  0	 24	 84	 69	  1	
11-May-2013	sub2344	2344	  1	  1	128	  6	  2	  5	  1	  4	  0	  2	  1	0.32783	  0	0.50000	  0	 25	 87	 68	  1	
11-May-2013	sub2344	2344	  1	  1	129	  6	  2	  5	  1	  4	  0	  1	  0	0.32858	  1	0.50000	  0	 25	 67	 88	  1	
11-May-2013	sub2344	2344	  1	  1	130	  6	  2	  4	  5	  2	  0	  2	  0	0.45678	  1	0.50000	  0	 24	 64	 89	  1	
11-May-2013	sub2344	2344	  1	  1	131	  6	  2	  3	  6	  6	  1	  2	  0	0.35850	  0	0.50000	  0	 23	 82	 83	  1	
11-May-2013	sub2344	2344	  1	  1	132	  6	  2	  4	  5	  2	  1	  2	  1	0.43922	  1	0.50000	  0	 24	 62	 63	  1	
11-May-2013	sub2344	2344	  1	  1	133	  6	  2	  5	  1	  4	  0	  2	  1	0.36853	  0	0.50000	  0	 25	 87	 68	  1	
11-May-2013	sub2344	2344	  1	  1	134	  6	  2	  5	  1	  4	  0	  2	  1	0.44275	  0	0.50000	  0	 25	 87	 68	  1	
11-May-2013	sub2344	2344	  1	  1	135	  6	  2	  5	  1	  4	  0	  1	  0	0.45267	  1	0.50000	  0	 25	 67	 88	  1	
11-May-2013	sub2344	2344	  1	  1	136	  6	  2	  1	  4	  2	  1	  2	  0	0.29374	  0	0.50000	  0	 21	 80	 81	  1	
11-May-2013	sub2344	2344	  1	  1	137	  6	  2	  1	  4	  2	  1	  1	  1	0.32315	  1	0.50000	  0	 21	 60	 61	  1	
11-May-2013	sub2344	2344	  1	  1	138	  6	  2	  3	  6	  6	  1	  2	  0	0.38652	  0	0.50000	  0	 23	 82	 83	  1	
11-May-2013	sub2344	2344	  1	  1	139	  6	  2	  2	  3	  1	  1	  1	  0	0.33332	  0	0.50000	  0	 22	 80	 81	  1	
11-May-2013	sub2344	2344	  1	  1	140	  6	  2	  2	  3	  1	  1	  2	  1	0.31033	  1	0.50000	  0	 22	 60	 61	  1	
11-May-2013	sub2344	2344	  1	  1	141	  6	  2	  5	  1	  4	  0	  2	  1	0.32888	  0	0.50000	  0	 25	 87	 68	  1	
11-May-2013	sub2344	2344	  1	  1	142	  6	  2	  2	  3	  1	  1	  1	  0	0.40925	  0	0.50000	  0	 22	 80	 81	  1	
11-May-2013	sub2344	2344	  1	  1	143	  6	  2	  3	  6	  6	  1	  1	  1	0.31587	  1	0.50000	  0	 23	 62	 63	  1	
11-May-2013	sub2344	2344	  1	  1	144	  6	  2	  4	  5	  2	  1	  2	  1	0.38608	  1	0.50000	  0	 24	 62	 63	  1	
11-May-2013	sub2344	2344	  1	  1	145	  6	  2	  6	  2	  2	  1	  1	  0	0.54254	  0	0.50000	  1	 26	 85	 51	  0	
11-May-2013	sub2344	2344	  1	  1	146	  6	  2	  6	  2	  2	  1	  1	  0	0.42246	  0	0.60000	  0	 26	 85	 86	  1	
11-May-2013	sub2344	2344	  1	  1	147	  6	  2	  3	  6	  6	  1	  2	  0	0.38677	  0	0.60000	  0	 23	 82	 83	  1	
11-May-2013	sub2344	2344	  1	  1	148	  6	  2	  5	  1	  4	  0	  1	  0	0.35877	  1	0.60000	  0	 25	 67	 88	  1	
11-May-2013	sub2344	2344	  1	  1	149	  6	  2	  6	  2	  2	  0	  1	  1	0.45687	  0	0.60000	  0	 26	 87	 68	  1	
11-May-2013	sub2344	2344	  1	  1	150	  6	  2	  2	  3	  1	  1	  1	  0	0.37248	  0	0.60000	  0	 22	 80	 81	  1	
