Date 	 Name 	 ID 	 Gender 	 Appearance 	 Trial 	 Block 	 Bin 	 Condition 	 Category 	 Number 	 Valid 	 Keypress 	 Correct 	 RT 	 Realcorrect 	 Deadline 	 Timeout 	 Stimtrigger 	 Resptrigger 	 Fedtrigger 	 WithinTime 	 
12-May-2013	sub2345	2345	  1	  0	  1	  1	  1	  1	  2	  3	  1	  1	  1	13.75914	  1	0.60000	  1	 11	 30	 51	  0	
12-May-2013	sub2345	2345	  1	  0	  2	  1	  1	  2	  6	  5	  1	  2	  1	0.54694	  1	0.90000	  0	 12	 30	 31	  0	
12-May-2013	sub2345	2345	  1	  0	  3	  1	  1	  2	  6	  5	  1	  2	  1	0.53202	  1	0.90000	  0	 12	 30	 31	  0	
12-May-2013	sub2345	2345	  1	  0	  4	  1	  1	  4	  4	  1	  1	  1	  0	0.79562	  0	0.90000	  0	 14	 42	 43	  0	
12-May-2013	sub2345	2345	  1	  0	  5	  1	  1	  1	  2	  3	  1	  2	  0	0.47582	  0	0.90000	  0	 11	 40	 41	  1	
12-May-2013	sub2345	2345	  1	  0	  6	  1	  1	  6	  5	  5	  1	  2	  1	0.99130	  1	0.90000	  1	 16	 35	 51	  0	
12-May-2013	sub2345	2345	  1	  0	  7	  1	  1	  5	  1	  2	  1	  1	  1	0.45997	  1	0.90000	  0	 15	 35	 36	  1	
12-May-2013	sub2345	2345	  1	  0	  8	  1	  1	  3	  3	  3	  0	  2	  1	0.31073	  0	0.90000	  0	 13	 44	 39	  1	
12-May-2013	sub2345	2345	  1	  0	  9	  1	  1	  1	  2	  3	  1	  1	  1	0.74138	  1	0.90000	  0	 11	 30	 31	  0	
12-May-2013	sub2345	2345	  1	  0	 10	  1	  1	  3	  3	  3	  1	  2	  0	0.45061	  0	0.90000	  0	 13	 42	 43	  1	
12-May-2013	sub2345	2345	  1	  0	 11	  1	  1	  6	  5	  5	  1	  1	  0	0.72499	  0	0.90000	  0	 16	 45	 46	  0	
12-May-2013	sub2345	2345	  1	  0	 12	  1	  1	  5	  1	  2	  1	  2	  0	0.42137	  0	0.90000	  0	 15	 45	 46	  1	
12-May-2013	sub2345	2345	  1	  0	 13	  1	  1	  6	  5	  5	  0	  1	  1	0.37142	  0	0.90000	  0	 16	 47	 38	  1	
12-May-2013	sub2345	2345	  1	  0	 14	  1	  1	  2	  6	  5	  1	  2	  1	0.49641	  1	0.90000	  0	 12	 30	 31	  1	
12-May-2013	sub2345	2345	  1	  0	 15	  1	  1	  3	  3	  3	  1	  1	  1	0.52559	  1	0.90000	  0	 13	 32	 33	  0	
12-May-2013	sub2345	2345	  1	  0	 16	  1	  1	  5	  1	  2	  1	  2	  0	0.30488	  0	0.90000	  0	 15	 45	 46	  1	
12-May-2013	sub2345	2345	  1	  0	 17	  1	  1	  4	  4	  1	  1	  2	  1	0.44909	  1	0.90000	  0	 14	 32	 33	  1	
12-May-2013	sub2345	2345	  1	  0	 18	  1	  1	  5	  1	  2	  0	  1	  0	0.56896	  1	0.90000	  0	 15	 37	 48	  0	
12-May-2013	sub2345	2345	  1	  0	 19	  1	  1	  4	  4	  1	  1	  2	  1	0.37002	  1	0.90000	  0	 14	 32	 33	  1	
12-May-2013	sub2345	2345	  1	  0	 20	  1	  1	  5	  1	  2	  0	  1	  0	0.60907	  1	0.90000	  0	 15	 37	 48	  0	
12-May-2013	sub2345	2345	  1	  0	 21	  1	  1	  3	  3	  3	  1	  2	  0	0.33532	  0	0.90000	  0	 13	 42	 43	  1	
12-May-2013	sub2345	2345	  1	  0	 22	  1	  1	  4	  4	  1	  1	  2	  1	0.27290	  1	0.90000	  0	 14	 32	 33	  1	
12-May-2013	sub2345	2345	  1	  0	 23	  1	  1	  3	  3	  3	  1	  2	  0	0.38361	  0	0.90000	  0	 13	 42	 43	  1	
12-May-2013	sub2345	2345	  1	  0	 24	  1	  1	  4	  4	  1	  1	  1	  0	0.38471	  0	0.90000	  0	 14	 42	 43	  1	
12-May-2013	sub2345	2345	  1	  0	 25	  1	  1	  3	  3	  3	  0	  2	  1	0.34076	  0	0.90000	  0	 13	 44	 39	  1	
12-May-2013	sub2345	2345	  1	  0	 26	  1	  1	  5	  1	  2	  1	  1	  1	0.58450	  1	0.90000	  0	 15	 35	 36	  0	
12-May-2013	sub2345	2345	  1	  0	 27	  1	  1	  2	  6	  5	  1	  2	  1	0.42134	  1	0.90000	  0	 12	 30	 31	  1	
12-May-2013	sub2345	2345	  1	  0	 28	  1	  1	  4	  4	  1	  1	  1	  0	0.49105	  0	0.90000	  0	 14	 42	 43	  1	
12-May-2013	sub2345	2345	  1	  0	 29	  1	  1	  1	  2	  3	  1	  2	  0	0.51277	  0	0.90000	  0	 11	 40	 41	  0	
12-May-2013	sub2345	2345	  1	  0	 30	  1	  1	  6	  5	  5	  0	  1	  1	0.38436	  0	0.80000	  0	 16	 47	 38	  1	
12-May-2013	sub2345	2345	  1	  0	 31	  1	  1	  1	  2	  3	  1	  2	  0	0.30797	  0	0.80000	  0	 11	 40	 41	  1	
12-May-2013	sub2345	2345	  1	  0	 32	  1	  1	  1	  2	  3	  1	  1	  1	0.30876	  1	0.80000	  0	 11	 30	 31	  1	
12-May-2013	sub2345	2345	  1	  0	 33	  1	  1	  4	  4	  1	  1	  2	  1	0.27149	  1	0.80000	  0	 14	 32	 33	  1	
12-May-2013	sub2345	2345	  1	  0	 34	  1	  1	  6	  5	  5	  1	  2	  1	0.38683	  1	0.80000	  0	 16	 35	 36	  1	
12-May-2013	sub2345	2345	  1	  0	 35	  1	  1	  5	  1	  2	  1	  2	  0	0.42862	  0	0.70000	  0	 15	 45	 46	  1	
12-May-2013	sub2345	2345	  1	  0	 36	  1	  1	  3	  3	  3	  1	  1	  1	0.32997	  1	0.70000	  0	 13	 32	 33	  1	
12-May-2013	sub2345	2345	  1	  0	 37	  1	  1	  5	  1	  2	  0	  2	  1	0.38547	  0	0.70000	  0	 15	 47	 38	  1	
12-May-2013	sub2345	2345	  1	  0	 38	  1	  1	  6	  5	  5	  0	  2	  0	0.31013	  1	0.70000	  0	 16	 37	 48	  1	
12-May-2013	sub2345	2345	  1	  0	 39	  1	  1	  5	  1	  2	  0	  2	  1	0.30943	  0	0.70000	  0	 15	 47	 38	  1	
12-May-2013	sub2345	2345	  1	  0	 40	  1	  1	  3	  3	  3	  0	  2	  1	0.36998	  0	0.70000	  0	 13	 44	 39	  1	
12-May-2013	sub2345	2345	  1	  0	 41	  1	  1	  3	  3	  3	  1	  1	  1	0.25666	  1	0.60000	  0	 13	 32	 33	  1	
12-May-2013	sub2345	2345	  1	  0	 42	  1	  1	  2	  6	  5	  1	  2	  1	0.23740	  1	0.60000	  0	 12	 30	 31	  1	
12-May-2013	sub2345	2345	  1	  0	 43	  1	  1	  1	  2	  3	  1	  2	  0	0.24662	  0	0.60000	  0	 11	 40	 41	  1	
12-May-2013	sub2345	2345	  1	  0	 44	  1	  1	  6	  5	  5	  0	  2	  0	0.34547	  1	0.60000	  0	 16	 37	 48	  1	
12-May-2013	sub2345	2345	  1	  0	 45	  1	  1	  2	  6	  5	  1	  1	  0	0.26571	  0	0.60000	  0	 12	 40	 41	  1	
12-May-2013	sub2345	2345	  1	  0	 46	  1	  1	  3	  3	  3	  1	  2	  0	0.40383	  0	0.60000	  0	 13	 42	 43	  1	
12-May-2013	sub2345	2345	  1	  0	 47	  1	  1	  5	  1	  2	  1	  1	  1	0.39878	  1	0.60000	  0	 15	 35	 36	  1	
12-May-2013	sub2345	2345	  1	  0	 48	  1	  1	  5	  1	  2	  1	  1	  1	0.40296	  1	0.60000	  0	 15	 35	 36	  1	
12-May-2013	sub2345	2345	  1	  0	 49	  1	  1	  2	  6	  5	  1	  2	  1	0.42509	  1	0.60000	  0	 12	 30	 31	  1	
12-May-2013	sub2345	2345	  1	  0	 50	  1	  1	  4	  4	  1	  0	  2	  0	0.52773	  1	0.60000	  0	 14	 34	 49	  0	
12-May-2013	sub2345	2345	  1	  0	 51	  1	  1	  2	  6	  5	  1	  2	  1	0.65215	  1	0.50000	  1	 12	 30	 51	  0	
12-May-2013	sub2345	2345	  1	  0	 52	  1	  1	  1	  2	  3	  1	  2	  0	0.40594	  0	0.70000	  0	 11	 40	 41	  1	
12-May-2013	sub2345	2345	  1	  0	 53	  1	  1	  3	  3	  3	  1	  2	  0	0.41177	  0	0.70000	  0	 13	 42	 43	  1	
12-May-2013	sub2345	2345	  1	  0	 54	  1	  1	  2	  6	  5	  1	  1	  0	0.38343	  0	0.70000	  0	 12	 40	 41	  1	
12-May-2013	sub2345	2345	  1	  0	 55	  1	  1	  4	  4	  1	  1	  2	  1	0.37731	  1	0.70000	  0	 14	 32	 33	  1	
12-May-2013	sub2345	2345	  1	  0	 56	  1	  1	  2	  6	  5	  1	  1	  0	0.50206	  0	0.70000	  0	 12	 40	 41	  0	
12-May-2013	sub2345	2345	  1	  0	 57	  1	  1	  2	  6	  5	  1	  2	  1	0.37348	  1	0.70000	  0	 12	 30	 31	  1	
12-May-2013	sub2345	2345	  1	  0	 58	  1	  1	  1	  2	  3	  1	  2	  0	0.64066	  0	0.70000	  0	 11	 40	 41	  0	
12-May-2013	sub2345	2345	  1	  0	 59	  1	  1	  6	  5	  5	  1	  2	  1	0.41780	  1	0.70000	  0	 16	 35	 36	  1	
12-May-2013	sub2345	2345	  1	  0	 60	  1	  1	  6	  5	  5	  0	  2	  0	0.51368	  1	0.70000	  0	 16	 37	 48	  0	
12-May-2013	sub2345	2345	  1	  0	 61	  1	  1	  6	  5	  5	  0	  2	  0	0.36062	  1	0.60000	  0	 16	 37	 48	  1	
12-May-2013	sub2345	2345	  1	  0	 62	  1	  1	  2	  6	  5	  1	  2	  1	0.54530	  1	0.60000	  0	 12	 30	 31	  0	
12-May-2013	sub2345	2345	  1	  0	 63	  1	  1	  6	  5	  5	  1	  2	  1	0.54558	  1	0.60000	  0	 16	 35	 36	  0	
12-May-2013	sub2345	2345	  1	  0	 64	  1	  1	  6	  5	  5	  0	  2	  0	0.42185	  1	0.60000	  0	 16	 37	 48	  1	
12-May-2013	sub2345	2345	  1	  0	 65	  1	  1	  2	  6	  5	  1	  2	  1	0.36789	  1	0.60000	  0	 12	 30	 31	  1	
12-May-2013	sub2345	2345	  1	  0	 66	  1	  1	  4	  4	  1	  0	  1	  1	0.21764	  0	0.60000	  0	 14	 44	 39	  1	
12-May-2013	sub2345	2345	  1	  0	 67	  1	  1	  5	  1	  2	  0	  2	  1	0.49323	  0	0.60000	  0	 15	 47	 38	  1	
12-May-2013	sub2345	2345	  1	  0	 68	  1	  1	  6	  5	  5	  1	  2	  1	0.50898	  1	0.60000	  0	 16	 35	 36	  0	
12-May-2013	sub2345	2345	  1	  0	 69	  1	  1	  3	  3	  3	  1	  1	  1	0.40485	  1	0.60000	  0	 13	 32	 33	  1	
12-May-2013	sub2345	2345	  1	  0	 70	  1	  1	  1	  2	  3	  1	  1	  1	0.30143	  1	0.60000	  0	 11	 30	 31	  1	
12-May-2013	sub2345	2345	  1	  0	 71	  1	  1	  4	  4	  1	  1	  2	  1	0.45015	  1	0.60000	  0	 14	 32	 33	  1	
12-May-2013	sub2345	2345	  1	  0	 72	  1	  1	  1	  2	  3	  1	  1	  1	0.36430	  1	0.60000	  0	 11	 30	 31	  1	
12-May-2013	sub2345	2345	  1	  0	 73	  1	  1	  4	  4	  1	  1	  2	  1	0.35030	  1	0.60000	  0	 14	 32	 33	  1	
12-May-2013	sub2345	2345	  1	  0	 74	  1	  1	  3	  3	  3	  1	  2	  0	0.25021	  0	0.60000	  0	 13	 42	 43	  1	
12-May-2013	sub2345	2345	  1	  0	 75	  1	  1	  1	  2	  3	  1	  2	  0	0.42330	  0	0.60000	  0	 11	 40	 41	  1	
12-May-2013	sub2345	2345	  1	  0	  1	  2	  1	  2	  5	  1	  1	  2	  1	0.16916	  1	0.60000	  0	 12	 30	 31	  1	
12-May-2013	sub2345	2345	  1	  0	  2	  2	  1	  6	  2	  1	  0	  1	  1	0.36595	  0	0.30000	  1	 16	 47	 51	  1	
12-May-2013	sub2345	2345	  1	  0	  3	  2	  1	  1	  6	  1	  1	  1	  1	0.29995	  1	0.90000	  0	 11	 30	 31	  1	
12-May-2013	sub2345	2345	  1	  0	  4	  2	  1	  1	  6	  1	  1	  1	  1	0.58638	  1	0.90000	  0	 11	 30	 31	  0	
12-May-2013	sub2345	2345	  1	  0	  5	  2	  1	  5	  4	  4	  0	  2	  1	0.42842	  0	0.90000	  0	 15	 47	 38	  1	
12-May-2013	sub2345	2345	  1	  0	  6	  2	  1	  1	  6	  1	  1	  1	  1	0.51524	  1	0.90000	  0	 11	 30	 31	  0	
12-May-2013	sub2345	2345	  1	  0	  7	  2	  1	  6	  2	  1	  0	  2	  0	0.41396	  1	0.90000	  0	 16	 37	 48	  1	
12-May-2013	sub2345	2345	  1	  0	  8	  2	  1	  4	  1	  6	  0	  2	  0	0.61529	  1	0.90000	  0	 14	 34	 49	  0	
12-May-2013	sub2345	2345	  1	  0	  9	  2	  1	  1	  6	  1	  1	  1	  1	0.41439	  1	0.90000	  0	 11	 30	 31	  1	
12-May-2013	sub2345	2345	  1	  0	 10	  2	  1	  3	  3	  1	  1	  1	  1	0.56334	  1	0.90000	  0	 13	 32	 33	  0	
12-May-2013	sub2345	2345	  1	  0	 11	  2	  1	  3	  3	  1	  0	  1	  0	0.37868	  1	0.90000	  0	 13	 34	 49	  1	
12-May-2013	sub2345	2345	  1	  0	 12	  2	  1	  1	  6	  1	  1	  1	  1	0.36284	  1	0.90000	  0	 11	 30	 31	  1	
12-May-2013	sub2345	2345	  1	  0	 13	  2	  1	  2	  5	  1	  1	  1	  0	0.38469	  0	0.90000	  0	 12	 40	 41	  1	
12-May-2013	sub2345	2345	  1	  0	 14	  2	  1	  3	  3	  1	  1	  2	  0	0.30811	  0	0.90000	  0	 13	 42	 43	  1	
12-May-2013	sub2345	2345	  1	  0	 15	  2	  1	  4	  1	  6	  1	  1	  0	0.46111	  0	0.90000	  0	 14	 42	 43	  1	
12-May-2013	sub2345	2345	  1	  0	 16	  2	  1	  6	  2	  1	  0	  2	  0	0.39616	  1	0.80000	  0	 16	 37	 48	  1	
12-May-2013	sub2345	2345	  1	  0	 17	  2	  1	  2	  5	  1	  1	  1	  0	0.39405	  0	0.80000	  0	 12	 40	 41	  1	
12-May-2013	sub2345	2345	  1	  0	 18	  2	  1	  1	  6	  1	  1	  1	  1	0.41859	  1	0.70000	  0	 11	 30	 31	  1	
12-May-2013	sub2345	2345	  1	  0	 19	  2	  1	  6	  2	  1	  0	  1	  1	0.46953	  0	0.70000	  0	 16	 47	 38	  1	
12-May-2013	sub2345	2345	  1	  0	 20	  2	  1	  6	  2	  1	  0	  1	  1	0.31795	  0	0.70000	  0	 16	 47	 38	  1	
12-May-2013	sub2345	2345	  1	  0	 21	  2	  1	  1	  6	  1	  1	  2	  0	0.43656	  0	0.60000	  0	 11	 40	 41	  1	
12-May-2013	sub2345	2345	  1	  0	 22	  2	  1	  6	  2	  1	  1	  1	  0	0.43309	  0	0.60000	  0	 16	 45	 46	  1	
12-May-2013	sub2345	2345	  1	  0	 23	  2	  1	  3	  3	  1	  0	  1	  0	0.36841	  1	0.60000	  0	 13	 34	 49	  1	
12-May-2013	sub2345	2345	  1	  0	 24	  2	  1	  1	  6	  1	  1	  2	  0	0.36794	  0	0.60000	  0	 11	 40	 41	  1	
12-May-2013	sub2345	2345	  1	  0	 25	  2	  1	  4	  1	  6	  0	  1	  1	0.25992	  0	0.60000	  0	 14	 44	 39	  1	
12-May-2013	sub2345	2345	  1	  0	 26	  2	  1	  6	  2	  1	  1	  1	  0	0.38504	  0	0.50000	  0	 16	 45	 46	  1	
12-May-2013	sub2345	2345	  1	  0	 27	  2	  1	  2	  5	  1	  1	  1	  0	0.35657	  0	0.50000	  0	 12	 40	 41	  1	
12-May-2013	sub2345	2345	  1	  0	 28	  2	  1	  4	  1	  6	  1	  1	  0	0.48865	  0	0.50000	  0	 14	 42	 43	  1	
12-May-2013	sub2345	2345	  1	  0	 29	  2	  1	  6	  2	  1	  1	  2	  1	0.31732	  1	0.50000	  0	 16	 35	 36	  1	
12-May-2013	sub2345	2345	  1	  0	 30	  2	  1	  3	  3	  1	  1	  1	  1	0.55109	  1	0.50000	  1	 13	 32	 51	  0	
12-May-2013	sub2345	2345	  1	  0	 31	  2	  1	  6	  2	  1	  1	  1	  0	0.43542	  0	0.80000	  0	 16	 45	 46	  1	
12-May-2013	sub2345	2345	  1	  0	 32	  2	  1	  2	  5	  1	  1	  2	  1	0.36537	  1	0.80000	  0	 12	 30	 31	  1	
12-May-2013	sub2345	2345	  1	  0	 33	  2	  1	  4	  1	  6	  1	  1	  0	0.36464	  0	0.80000	  0	 14	 42	 43	  1	
12-May-2013	sub2345	2345	  1	  0	 34	  2	  1	  3	  3	  1	  1	  2	  0	0.32807	  0	0.80000	  0	 13	 42	 43	  1	
12-May-2013	sub2345	2345	  1	  0	 35	  2	  1	  1	  6	  1	  1	  1	  1	0.46832	  1	0.70000	  0	 11	 30	 31	  1	
12-May-2013	sub2345	2345	  1	  0	 36	  2	  1	  3	  3	  1	  1	  1	  1	0.40238	  1	0.70000	  0	 13	 32	 33	  1	
12-May-2013	sub2345	2345	  1	  0	 37	  2	  1	  6	  2	  1	  1	  1	  0	0.53512	  0	0.70000	  0	 16	 45	 46	  0	
12-May-2013	sub2345	2345	  1	  0	 38	  2	  1	  2	  5	  1	  1	  1	  0	0.33685	  0	0.70000	  0	 12	 40	 41	  1	
12-May-2013	sub2345	2345	  1	  0	 39	  2	  1	  4	  1	  6	  1	  1	  0	0.34838	  0	0.70000	  0	 14	 42	 43	  1	
12-May-2013	sub2345	2345	  1	  0	 40	  2	  1	  4	  1	  6	  1	  1	  0	0.32547	  0	0.70000	  0	 14	 42	 43	  1	
12-May-2013	sub2345	2345	  1	  0	 41	  2	  1	  5	  4	  4	  1	  2	  0	0.42634	  0	0.60000	  0	 15	 45	 46	  1	
12-May-2013	sub2345	2345	  1	  0	 42	  2	  1	  3	  3	  1	  1	  1	  1	0.33334	  1	0.60000	  0	 13	 32	 33	  1	
12-May-2013	sub2345	2345	  1	  0	 43	  2	  1	  6	  2	  1	  1	  1	  0	0.55786	  0	0.60000	  0	 16	 45	 46	  0	
12-May-2013	sub2345	2345	  1	  0	 44	  2	  1	  2	  5	  1	  1	  1	  0	0.51548	  0	0.60000	  0	 12	 40	 41	  0	
12-May-2013	sub2345	2345	  1	  0	 45	  2	  1	  2	  5	  1	  1	  1	  0	0.41322	  0	0.60000	  0	 12	 40	 41	  1	
12-May-2013	sub2345	2345	  1	  0	 46	  2	  1	  1	  6	  1	  1	  1	  1	0.46861	  1	0.60000	  0	 11	 30	 31	  1	
12-May-2013	sub2345	2345	  1	  0	 47	  2	  1	  4	  1	  6	  1	  1	  0	0.38480	  0	0.60000	  0	 14	 42	 43	  1	
12-May-2013	sub2345	2345	  1	  0	 48	  2	  1	  2	  5	  1	  1	  1	  0	0.24300	  0	0.60000	  0	 12	 40	 41	  1	
12-May-2013	sub2345	2345	  1	  0	 49	  2	  1	  5	  4	  4	  0	  1	  0	0.45939	  1	0.60000	  0	 15	 37	 48	  1	
12-May-2013	sub2345	2345	  1	  0	 50	  2	  1	  3	  3	  1	  1	  2	  0	0.33590	  0	0.60000	  0	 13	 42	 43	  1	
12-May-2013	sub2345	2345	  1	  0	 51	  2	  1	  5	  4	  4	  1	  1	  1	0.18311	  1	0.50000	  0	 15	 35	 36	  1	
12-May-2013	sub2345	2345	  1	  0	 52	  2	  1	  5	  4	  4	  0	  2	  1	0.47415	  0	0.50000	  0	 15	 47	 38	  1	
12-May-2013	sub2345	2345	  1	  0	 53	  2	  1	  4	  1	  6	  1	  1	  0	0.43563	  0	0.50000	  0	 14	 42	 43	  1	
12-May-2013	sub2345	2345	  1	  0	 54	  2	  1	  5	  4	  4	  0	  1	  0	0.50990	  1	0.50000	  1	 15	 37	 51	  0	
12-May-2013	sub2345	2345	  1	  0	 55	  2	  1	  2	  5	  1	  1	  1	  0	0.56169	  0	0.70000	  0	 12	 40	 41	  0	
12-May-2013	sub2345	2345	  1	  0	 56	  2	  1	  1	  6	  1	  1	  2	  0	0.29612	  0	0.70000	  0	 11	 40	 41	  1	
12-May-2013	sub2345	2345	  1	  0	 57	  2	  1	  1	  6	  1	  1	  1	  1	0.26487	  1	0.70000	  0	 11	 30	 31	  1	
12-May-2013	sub2345	2345	  1	  0	 58	  2	  1	  6	  2	  1	  0	  2	  0	0.40862	  1	0.70000	  0	 16	 37	 48	  1	
12-May-2013	sub2345	2345	  1	  0	 59	  2	  1	  6	  2	  1	  1	  1	  0	0.37930	  0	0.70000	  0	 16	 45	 46	  1	
12-May-2013	sub2345	2345	  1	  0	 60	  2	  1	  5	  4	  4	  0	  1	  0	0.40684	  1	0.70000	  0	 15	 37	 48	  1	
12-May-2013	sub2345	2345	  1	  0	 61	  2	  1	  4	  1	  6	  1	  1	  0	0.33687	  0	0.60000	  0	 14	 42	 43	  1	
12-May-2013	sub2345	2345	  1	  0	 62	  2	  1	  2	  5	  1	  1	  1	  0	0.35472	  0	0.60000	  0	 12	 40	 41	  1	
12-May-2013	sub2345	2345	  1	  0	 63	  2	  1	  2	  5	  1	  1	  1	  0	0.26907	  0	0.60000	  0	 12	 40	 41	  1	
12-May-2013	sub2345	2345	  1	  0	 64	  2	  1	  5	  4	  4	  1	  1	  1	0.62135	  1	0.60000	  1	 15	 35	 51	  0	
12-May-2013	sub2345	2345	  1	  0	 65	  2	  1	  3	  3	  1	  1	  1	  1	0.43344	  1	0.80000	  0	 13	 32	 33	  1	
12-May-2013	sub2345	2345	  1	  0	 66	  2	  1	  3	  3	  1	  0	  1	  0	0.37939	  1	0.80000	  0	 13	 34	 49	  1	
12-May-2013	sub2345	2345	  1	  0	 67	  2	  1	  5	  4	  4	  1	  1	  1	0.49452	  1	0.80000	  0	 15	 35	 36	  1	
12-May-2013	sub2345	2345	  1	  0	 68	  2	  1	  4	  1	  6	  1	  1	  0	0.37999	  0	0.70000	  0	 14	 42	 43	  1	
12-May-2013	sub2345	2345	  1	  0	 69	  2	  1	  3	  3	  1	  1	  1	  1	0.05921	  1	0.70000	  0	 13	 32	 33	  1	
12-May-2013	sub2345	2345	  1	  0	 70	  2	  1	  3	  3	  1	  1	  2	  0	0.22044	  0	0.70000	  0	 13	 42	 43	  1	
12-May-2013	sub2345	2345	  1	  0	 71	  2	  1	  2	  5	  1	  1	  1	  0	0.22756	  0	0.70000	  0	 12	 40	 41	  1	
12-May-2013	sub2345	2345	  1	  0	 72	  2	  1	  5	  4	  4	  1	  1	  1	0.21744	  1	0.70000	  0	 15	 35	 36	  1	
12-May-2013	sub2345	2345	  1	  0	 73	  2	  1	  5	  4	  4	  1	  2	  0	0.34595	  0	0.70000	  0	 15	 45	 46	  1	
12-May-2013	sub2345	2345	  1	  0	 74	  2	  1	  5	  4	  4	  0	  1	  0	0.45398	  1	0.70000	  0	 15	 37	 48	  1	
12-May-2013	sub2345	2345	  1	  0	 75	  2	  1	  4	  1	  6	  1	  2	  1	0.47941	  1	0.70000	  0	 14	 32	 33	  1	
12-May-2013	sub2345	2345	  1	  0	 76	  2	  2	  5	  4	  4	  0	  1	  0	0.34778	  1	0.70000	  0	 25	 67	 88	  1	
12-May-2013	sub2345	2345	  1	  0	 77	  2	  2	  2	  5	  1	  1	  1	  0	0.26403	  0	0.70000	  0	 22	 80	 81	  1	
12-May-2013	sub2345	2345	  1	  0	 78	  2	  2	  5	  4	  4	  0	  1	  0	0.12279	  1	0.70000	  0	 25	 67	 88	  1	
12-May-2013	sub2345	2345	  1	  0	 79	  2	  2	  5	  4	  4	  0	  2	  1	0.35208	  0	0.70000	  0	 25	 87	 68	  1	
12-May-2013	sub2345	2345	  1	  0	 80	  2	  2	  1	  6	  1	  1	  1	  1	0.57028	  1	0.70000	  0	 21	 60	 61	  0	
12-May-2013	sub2345	2345	  1	  0	 81	  2	  2	  5	  4	  4	  0	  2	  1	0.40178	  0	0.60000	  0	 25	 87	 68	  1	
12-May-2013	sub2345	2345	  1	  0	 82	  2	  2	  6	  2	  1	  0	  1	  1	0.43723	  0	0.60000	  0	 26	 87	 68	  1	
12-May-2013	sub2345	2345	  1	  0	 83	  2	  2	  2	  5	  1	  1	  2	  1	0.32307	  1	0.60000	  0	 22	 60	 61	  1	
12-May-2013	sub2345	2345	  1	  0	 84	  2	  2	  4	  1	  6	  1	  1	  0	0.43782	  0	0.60000	  0	 24	 82	 83	  1	
12-May-2013	sub2345	2345	  1	  0	 85	  2	  2	  3	  3	  1	  1	  2	  0	0.43680	  0	0.60000	  0	 23	 82	 83	  1	
12-May-2013	sub2345	2345	  1	  0	 86	  2	  2	  2	  5	  1	  1	  1	  0	0.54361	  0	0.60000	  0	 22	 80	 81	  0	
12-May-2013	sub2345	2345	  1	  0	 87	  2	  2	  4	  1	  6	  1	  2	  1	0.41424	  1	0.60000	  0	 24	 62	 63	  1	
12-May-2013	sub2345	2345	  1	  0	 88	  2	  2	  1	  6	  1	  1	  2	  0	0.50638	  0	0.60000	  0	 21	 80	 81	  0	
12-May-2013	sub2345	2345	  1	  0	 89	  2	  2	  2	  5	  1	  1	  1	  0	0.45154	  0	0.60000	  0	 22	 80	 81	  1	
12-May-2013	sub2345	2345	  1	  0	 90	  2	  2	  3	  3	  1	  1	  2	  0	0.24868	  0	0.60000	  0	 23	 82	 83	  1	
12-May-2013	sub2345	2345	  1	  0	 91	  2	  2	  3	  3	  1	  1	  1	  1	0.35424	  1	0.60000	  0	 23	 62	 63	  1	
12-May-2013	sub2345	2345	  1	  0	 92	  2	  2	  2	  5	  1	  1	  1	  0	0.35515	  0	0.60000	  0	 22	 80	 81	  1	
12-May-2013	sub2345	2345	  1	  0	 93	  2	  2	  6	  2	  1	  1	  2	  1	0.46246	  1	0.60000	  0	 26	 65	 66	  1	
12-May-2013	sub2345	2345	  1	  0	 94	  2	  2	  2	  5	  1	  1	  1	  0	0.39926	  0	0.60000	  0	 22	 80	 81	  1	
12-May-2013	sub2345	2345	  1	  0	 95	  2	  2	  1	  6	  1	  1	  2	  0	0.31502	  0	0.60000	  0	 21	 80	 81	  1	
12-May-2013	sub2345	2345	  1	  0	 96	  2	  2	  4	  1	  6	  1	  1	  0	0.31675	  0	0.60000	  0	 24	 82	 83	  1	
12-May-2013	sub2345	2345	  1	  0	 97	  2	  2	  3	  3	  1	  1	  2	  0	0.47171	  0	0.60000	  0	 23	 82	 83	  1	
12-May-2013	sub2345	2345	  1	  0	 98	  2	  2	  2	  5	  1	  1	  1	  0	0.36534	  0	0.60000	  0	 22	 80	 81	  1	
12-May-2013	sub2345	2345	  1	  0	 99	  2	  2	  6	  2	  1	  1	  1	  0	0.43204	  0	0.60000	  0	 26	 85	 86	  1	
12-May-2013	sub2345	2345	  1	  0	100	  2	  2	  4	  1	  6	  0	  2	  0	0.44838	  1	0.60000	  0	 24	 64	 89	  1	
12-May-2013	sub2345	2345	  1	  0	101	  2	  2	  3	  3	  1	  1	  1	  1	0.23320	  1	0.50000	  0	 23	 62	 63	  1	
12-May-2013	sub2345	2345	  1	  0	102	  2	  2	  3	  3	  1	  1	  1	  1	0.33106	  1	0.50000	  0	 23	 62	 63	  1	
12-May-2013	sub2345	2345	  1	  0	103	  2	  2	  1	  6	  1	  1	  1	  1	0.28230	  1	0.50000	  0	 21	 60	 61	  1	
12-May-2013	sub2345	2345	  1	  0	104	  2	  2	  6	  2	  1	  1	  2	  1	0.24302	  1	0.50000	  0	 26	 65	 66	  1	
12-May-2013	sub2345	2345	  1	  0	105	  2	  2	  1	  6	  1	  1	  2	  0	0.37706	  0	0.50000	  0	 21	 80	 81	  1	
12-May-2013	sub2345	2345	  1	  0	106	  2	  2	  4	  1	  6	  1	  1	  0	0.38167	  0	0.50000	  0	 24	 82	 83	  1	
12-May-2013	sub2345	2345	  1	  0	107	  2	  2	  2	  5	  1	  1	  2	  1	0.08893	  1	0.50000	  0	 22	 60	 61	  1	
12-May-2013	sub2345	2345	  1	  0	108	  2	  2	  1	  6	  1	  1	  2	  0	0.17470	  0	0.50000	  0	 21	 80	 81	  1	
12-May-2013	sub2345	2345	  1	  0	109	  2	  2	  6	  2	  1	  1	  1	  0	0.17615	  0	0.50000	  0	 26	 85	 86	  1	
12-May-2013	sub2345	2345	  1	  0	110	  2	  2	  6	  2	  1	  0	  2	  0	0.05681	  1	0.50000	  0	 26	 67	 88	  1	
12-May-2013	sub2345	2345	  1	  0	111	  2	  2	  3	  3	  1	  0	  1	  0	0.00009	  1	0.50000	  0	 23	 64	 89	  1	
12-May-2013	sub2345	2345	  1	  0	112	  2	  2	  4	  1	  6	  1	  2	  1	0.18535	  1	0.50000	  0	 24	 62	 63	  1	
12-May-2013	sub2345	2345	  1	  0	113	  2	  2	  3	  3	  1	  1	  2	  0	0.41411	  0	0.50000	  0	 23	 82	 83	  1	
12-May-2013	sub2345	2345	  1	  0	114	  2	  2	  6	  2	  1	  0	  1	  1	0.43348	  0	0.50000	  0	 26	 87	 68	  1	
12-May-2013	sub2345	2345	  1	  0	115	  2	  2	  3	  3	  1	  1	  1	  1	0.40747	  1	0.50000	  0	 23	 62	 63	  1	
12-May-2013	sub2345	2345	  1	  0	116	  2	  2	  4	  1	  6	  0	  2	  0	0.54760	  1	0.50000	  1	 24	 64	 51	  0	
12-May-2013	sub2345	2345	  1	  0	117	  2	  2	  5	  4	  4	  0	  1	  0	0.32115	  1	0.60000	  0	 25	 67	 88	  1	
12-May-2013	sub2345	2345	  1	  0	118	  2	  2	  6	  2	  1	  1	  2	  1	0.25398	  1	0.60000	  0	 26	 65	 66	  1	
12-May-2013	sub2345	2345	  1	  0	119	  2	  2	  6	  2	  1	  0	  2	  0	0.41694	  1	0.60000	  0	 26	 67	 88	  1	
12-May-2013	sub2345	2345	  1	  0	120	  2	  2	  2	  5	  1	  1	  1	  0	0.26876	  0	0.60000	  0	 22	 80	 81	  1	
12-May-2013	sub2345	2345	  1	  0	121	  2	  2	  3	  3	  1	  1	  2	  0	0.22996	  0	0.60000	  0	 23	 82	 83	  1	
12-May-2013	sub2345	2345	  1	  0	122	  2	  2	  3	  3	  1	  0	  1	  0	0.18481	  1	0.60000	  0	 23	 64	 89	  1	
12-May-2013	sub2345	2345	  1	  0	123	  2	  2	  6	  2	  1	  0	  1	  1	0.00018	  0	0.60000	  0	 26	 87	 68	  1	
12-May-2013	sub2345	2345	  1	  0	124	  2	  2	  1	  6	  1	  1	  1	  1	0.24613	  1	0.60000	  0	 21	 60	 61	  1	
12-May-2013	sub2345	2345	  1	  0	125	  2	  2	  5	  4	  4	  0	  2	  1	0.43186	  0	0.60000	  0	 25	 87	 68	  1	
12-May-2013	sub2345	2345	  1	  0	126	  2	  2	  5	  4	  4	  0	  2	  1	0.41312	  0	0.50000	  0	 25	 87	 68	  1	
12-May-2013	sub2345	2345	  1	  0	127	  2	  2	  1	  6	  1	  1	  2	  0	0.34389	  0	0.50000	  0	 21	 80	 81	  1	
12-May-2013	sub2345	2345	  1	  0	128	  2	  2	  1	  6	  1	  1	  2	  0	0.42200	  0	0.50000	  0	 21	 80	 81	  1	
12-May-2013	sub2345	2345	  1	  0	129	  2	  2	  4	  1	  6	  1	  1	  0	0.55686	  0	0.50000	  1	 24	 82	 51	  0	
12-May-2013	sub2345	2345	  1	  0	130	  2	  2	  5	  4	  4	  0	  2	  1	0.35489	  0	0.60000	  0	 25	 87	 68	  1	
12-May-2013	sub2345	2345	  1	  0	131	  2	  2	  4	  1	  6	  1	  1	  0	0.43197	  0	0.60000	  0	 24	 82	 83	  1	
12-May-2013	sub2345	2345	  1	  0	132	  2	  2	  5	  4	  4	  0	  2	  1	0.38068	  0	0.60000	  0	 25	 87	 68	  1	
12-May-2013	sub2345	2345	  1	  0	133	  2	  2	  6	  2	  1	  1	  1	  0	0.46871	  0	0.60000	  0	 26	 85	 86	  1	
12-May-2013	sub2345	2345	  1	  0	134	  2	  2	  2	  5	  1	  1	  2	  1	0.32791	  1	0.60000	  0	 22	 60	 61	  1	
12-May-2013	sub2345	2345	  1	  0	135	  2	  2	  5	  4	  4	  0	  2	  1	0.41371	  0	0.60000	  0	 25	 87	 68	  1	
12-May-2013	sub2345	2345	  1	  0	136	  2	  2	  1	  6	  1	  1	  2	  0	0.34055	  0	0.60000	  0	 21	 80	 81	  1	
12-May-2013	sub2345	2345	  1	  0	137	  2	  2	  6	  2	  1	  0	  1	  1	0.27375	  0	0.60000	  0	 26	 87	 68	  1	
12-May-2013	sub2345	2345	  1	  0	138	  2	  2	  5	  4	  4	  0	  2	  1	0.41116	  0	0.60000	  0	 25	 87	 68	  1	
12-May-2013	sub2345	2345	  1	  0	139	  2	  2	  2	  5	  1	  1	  1	  0	0.42304	  0	0.60000	  0	 22	 80	 81	  1	
12-May-2013	sub2345	2345	  1	  0	140	  2	  2	  1	  6	  1	  1	  2	  0	0.31601	  0	0.60000	  0	 21	 80	 81	  1	
12-May-2013	sub2345	2345	  1	  0	141	  2	  2	  4	  1	  6	  1	  2	  1	0.00108	  1	0.60000	  0	 24	 62	 63	  1	
12-May-2013	sub2345	2345	  1	  0	142	  2	  2	  1	  6	  1	  1	  2	  0	0.34801	  0	0.60000	  0	 21	 80	 81	  1	
12-May-2013	sub2345	2345	  1	  0	143	  2	  2	  4	  1	  6	  1	  1	  0	0.39507	  0	0.60000	  0	 24	 82	 83	  1	
12-May-2013	sub2345	2345	  1	  0	144	  2	  2	  1	  6	  1	  1	  2	  0	0.30743	  0	0.60000	  0	 21	 80	 81	  1	
12-May-2013	sub2345	2345	  1	  0	145	  2	  2	  4	  1	  6	  0	  1	  1	0.31694	  0	0.60000	  0	 24	 84	 69	  1	
12-May-2013	sub2345	2345	  1	  0	146	  2	  2	  3	  3	  1	  1	  1	  1	0.51163	  1	0.60000	  0	 23	 62	 63	  0	
12-May-2013	sub2345	2345	  1	  0	147	  2	  2	  5	  4	  4	  0	  1	  0	0.62936	  1	0.60000	  1	 25	 67	 51	  0	
12-May-2013	sub2345	2345	  1	  0	148	  2	  2	  4	  1	  6	  1	  2	  1	0.28979	  1	0.60000	  0	 24	 62	 63	  1	
12-May-2013	sub2345	2345	  1	  0	149	  2	  2	  5	  4	  4	  0	  1	  0	0.43109	  1	0.60000	  0	 25	 67	 88	  1	
12-May-2013	sub2345	2345	  1	  0	150	  2	  2	  2	  5	  1	  1	  2	  1	0.37908	  1	0.60000	  0	 22	 60	 61	  1	
12-May-2013	sub2345	2345	  1	  0	  1	  3	  1	  1	  5	  2	  1	  1	  1	0.24568	  1	0.60000	  0	 11	 30	 31	  1	
12-May-2013	sub2345	2345	  1	  0	  2	  3	  1	  2	  3	  5	  1	  2	  1	0.18811	  1	0.30000	  0	 12	 30	 31	  1	
12-May-2013	sub2345	2345	  1	  0	  3	  3	  1	  4	  4	  3	  1	  2	  1	0.40248	  1	0.30000	  1	 14	 32	 51	  1	
12-May-2013	sub2345	2345	  1	  0	  4	  3	  1	  2	  3	  5	  1	  2	  1	0.37516	  1	0.90000	  0	 12	 30	 31	  1	
12-May-2013	sub2345	2345	  1	  0	  5	  3	  1	  5	  1	  3	  0	  2	  1	0.49117	  0	0.90000	  0	 15	 47	 38	  1	
12-May-2013	sub2345	2345	  1	  0	  6	  3	  1	  6	  2	  5	  1	  1	  0	0.53170	  0	0.90000	  0	 16	 45	 46	  0	
12-May-2013	sub2345	2345	  1	  0	  7	  3	  1	  2	  3	  5	  1	  2	  1	0.36825	  1	0.90000	  0	 12	 30	 31	  1	
12-May-2013	sub2345	2345	  1	  0	  8	  3	  1	  1	  5	  2	  1	  1	  1	0.42067	  1	0.90000	  0	 11	 30	 31	  1	
12-May-2013	sub2345	2345	  1	  0	  9	  3	  1	  4	  4	  3	  1	  2	  1	0.53135	  1	0.90000	  0	 14	 32	 33	  0	
12-May-2013	sub2345	2345	  1	  0	 10	  3	  1	  2	  3	  5	  1	  1	  0	0.37433	  0	0.90000	  0	 12	 40	 41	  1	
12-May-2013	sub2345	2345	  1	  0	 11	  3	  1	  1	  5	  2	  1	  1	  1	0.38963	  1	0.90000	  0	 11	 30	 31	  1	
12-May-2013	sub2345	2345	  1	  0	 12	  3	  1	  6	  2	  5	  1	  2	  1	0.39129	  1	0.90000	  0	 16	 35	 36	  1	
12-May-2013	sub2345	2345	  1	  0	 13	  3	  1	  3	  6	  2	  1	  2	  0	0.42383	  0	0.90000	  0	 13	 42	 43	  1	
12-May-2013	sub2345	2345	  1	  0	 14	  3	  1	  2	  3	  5	  1	  2	  1	0.56396	  1	0.90000	  0	 12	 30	 31	  0	
12-May-2013	sub2345	2345	  1	  0	 15	  3	  1	  1	  5	  2	  1	  1	  1	0.41303	  1	0.90000	  0	 11	 30	 31	  1	
12-May-2013	sub2345	2345	  1	  0	 16	  3	  1	  6	  2	  5	  0	  2	  0	0.47764	  1	0.80000	  0	 16	 37	 48	  1	
12-May-2013	sub2345	2345	  1	  0	 17	  3	  1	  4	  4	  3	  1	  2	  1	0.49860	  1	0.80000	  0	 14	 32	 33	  1	
12-May-2013	sub2345	2345	  1	  0	 18	  3	  1	  4	  4	  3	  1	  2	  1	0.44639	  1	0.70000	  0	 14	 32	 33	  1	
12-May-2013	sub2345	2345	  1	  0	 19	  3	  1	  2	  3	  5	  1	  2	  1	0.37707	  1	0.70000	  0	 12	 30	 31	  1	
12-May-2013	sub2345	2345	  1	  0	 20	  3	  1	  5	  1	  3	  1	  2	  0	0.55348	  0	0.70000	  0	 15	 45	 46	  0	
12-May-2013	sub2345	2345	  1	  0	 21	  3	  1	  3	  6	  2	  1	  2	  0	0.40982	  0	0.60000	  0	 13	 42	 43	  1	
12-May-2013	sub2345	2345	  1	  0	 22	  3	  1	  6	  2	  5	  1	  2	  1	0.41208	  1	0.60000	  0	 16	 35	 36	  1	
12-May-2013	sub2345	2345	  1	  0	 23	  3	  1	  4	  4	  3	  1	  1	  0	0.43675	  0	0.60000	  0	 14	 42	 43	  1	
12-May-2013	sub2345	2345	  1	  0	 24	  3	  1	  6	  2	  5	  1	  1	  0	0.52560	  0	0.60000	  0	 16	 45	 46	  0	
12-May-2013	sub2345	2345	  1	  0	 25	  3	  1	  3	  6	  2	  0	  1	  0	0.51021	  1	0.60000	  0	 13	 34	 49	  0	
12-May-2013	sub2345	2345	  1	  0	 26	  3	  1	  1	  5	  2	  1	  2	  0	0.31609	  0	0.50000	  0	 11	 40	 41	  1	
12-May-2013	sub2345	2345	  1	  0	 27	  3	  1	  1	  5	  2	  1	  1	  1	0.24954	  1	0.50000	  0	 11	 30	 31	  1	
12-May-2013	sub2345	2345	  1	  0	 28	  3	  1	  2	  3	  5	  1	  1	  0	0.55392	  0	0.50000	  1	 12	 40	 51	  0	
12-May-2013	sub2345	2345	  1	  0	 29	  3	  1	  4	  4	  3	  0	  2	  0	0.38091	  1	0.90000	  0	 14	 34	 49	  1	
12-May-2013	sub2345	2345	  1	  0	 30	  3	  1	  2	  3	  5	  1	  1	  0	0.22156	  0	0.80000	  0	 12	 40	 41	  1	
12-May-2013	sub2345	2345	  1	  0	 31	  3	  1	  5	  1	  3	  1	  1	  1	0.59387	  1	0.80000	  0	 15	 35	 36	  0	
12-May-2013	sub2345	2345	  1	  0	 32	  3	  1	  3	  6	  2	  0	  1	  0	0.41094	  1	0.80000	  0	 13	 34	 49	  1	
12-May-2013	sub2345	2345	  1	  0	 33	  3	  1	  3	  6	  2	  1	  1	  1	0.37002	  1	0.80000	  0	 13	 32	 33	  1	
12-May-2013	sub2345	2345	  1	  0	 34	  3	  1	  1	  5	  2	  1	  2	  0	0.36681	  0	0.80000	  0	 11	 40	 41	  1	
12-May-2013	sub2345	2345	  1	  0	 35	  3	  1	  6	  2	  5	  0	  1	  1	0.38142	  0	0.70000	  0	 16	 47	 38	  1	
12-May-2013	sub2345	2345	  1	  0	 36	  3	  1	  5	  1	  3	  0	  2	  1	0.53222	  0	0.70000	  0	 15	 47	 38	  0	
12-May-2013	sub2345	2345	  1	  0	 37	  3	  1	  2	  3	  5	  1	  1	  0	0.43287	  0	0.70000	  0	 12	 40	 41	  1	
12-May-2013	sub2345	2345	  1	  0	 38	  3	  1	  5	  1	  3	  1	  2	  0	0.28022	  0	0.70000	  0	 15	 45	 46	  1	
12-May-2013	sub2345	2345	  1	  0	 39	  3	  1	  6	  2	  5	  0	  1	  1	0.36307	  0	0.70000	  0	 16	 47	 38	  1	
12-May-2013	sub2345	2345	  1	  0	 40	  3	  1	  4	  4	  3	  1	  2	  1	0.45030	  1	0.70000	  0	 14	 32	 33	  1	
12-May-2013	sub2345	2345	  1	  0	 41	  3	  1	  6	  2	  5	  0	  1	  1	0.38241	  0	0.60000	  0	 16	 47	 38	  1	
12-May-2013	sub2345	2345	  1	  0	 42	  3	  1	  1	  5	  2	  1	  1	  1	0.52435	  1	0.60000	  0	 11	 30	 31	  0	
12-May-2013	sub2345	2345	  1	  0	 43	  3	  1	  6	  2	  5	  1	  1	  0	0.52689	  0	0.60000	  0	 16	 45	 46	  0	
12-May-2013	sub2345	2345	  1	  0	 44	  3	  1	  6	  2	  5	  0	  1	  1	0.37012	  0	0.60000	  0	 16	 47	 38	  1	
12-May-2013	sub2345	2345	  1	  0	 45	  3	  1	  4	  4	  3	  1	  1	  0	0.35349	  0	0.60000	  0	 14	 42	 43	  1	
12-May-2013	sub2345	2345	  1	  0	 46	  3	  1	  1	  5	  2	  1	  1	  1	0.56435	  1	0.60000	  0	 11	 30	 31	  0	
12-May-2013	sub2345	2345	  1	  0	 47	  3	  1	  2	  3	  5	  1	  2	  1	0.34186	  1	0.60000	  0	 12	 30	 31	  1	
12-May-2013	sub2345	2345	  1	  0	 48	  3	  1	  3	  6	  2	  1	  1	  1	0.46956	  1	0.60000	  0	 13	 32	 33	  1	
12-May-2013	sub2345	2345	  1	  0	 49	  3	  1	  5	  1	  3	  0	  1	  0	0.51469	  1	0.60000	  0	 15	 37	 48	  0	
12-May-2013	sub2345	2345	  1	  0	 50	  3	  1	  4	  4	  3	  0	  1	  1	0.20388	  0	0.60000	  0	 14	 44	 39	  1	
12-May-2013	sub2345	2345	  1	  0	 51	  3	  1	  4	  4	  3	  1	  2	  1	0.36596	  1	0.50000	  0	 14	 32	 33	  1	
12-May-2013	sub2345	2345	  1	  0	 52	  3	  1	  6	  2	  5	  1	  1	  0	0.40350	  0	0.50000	  0	 16	 45	 46	  1	
12-May-2013	sub2345	2345	  1	  0	 53	  3	  1	  5	  1	  3	  1	  2	  0	0.50967	  0	0.50000	  1	 15	 45	 51	  0	
12-May-2013	sub2345	2345	  1	  0	 54	  3	  1	  3	  6	  2	  1	  1	  1	0.46767	  1	0.70000	  0	 13	 32	 33	  1	
12-May-2013	sub2345	2345	  1	  0	 55	  3	  1	  3	  6	  2	  1	  2	  0	0.42584	  0	0.70000	  0	 13	 42	 43	  1	
12-May-2013	sub2345	2345	  1	  0	 56	  3	  1	  2	  3	  5	  1	  1	  0	0.48886	  0	0.70000	  0	 12	 40	 41	  1	
12-May-2013	sub2345	2345	  1	  0	 57	  3	  1	  4	  4	  3	  1	  1	  0	0.51416	  0	0.70000	  0	 14	 42	 43	  0	
12-May-2013	sub2345	2345	  1	  0	 58	  3	  1	  3	  6	  2	  1	  2	  0	0.37702	  0	0.70000	  0	 13	 42	 43	  1	
12-May-2013	sub2345	2345	  1	  0	 59	  3	  1	  5	  1	  3	  0	  1	  0	0.30894	  1	0.70000	  0	 15	 37	 48	  1	
12-May-2013	sub2345	2345	  1	  0	 60	  3	  1	  3	  6	  2	  1	  1	  1	0.53617	  1	0.70000	  0	 13	 32	 33	  0	
12-May-2013	sub2345	2345	  1	  0	 61	  3	  1	  1	  5	  2	  1	  1	  1	0.56763	  1	0.60000	  0	 11	 30	 31	  0	
12-May-2013	sub2345	2345	  1	  0	 62	  3	  1	  5	  1	  3	  1	  2	  0	0.39531	  0	0.60000	  0	 15	 45	 46	  1	
12-May-2013	sub2345	2345	  1	  0	 63	  3	  1	  5	  1	  3	  1	  2	  0	0.51483	  0	0.60000	  0	 15	 45	 46	  0	
12-May-2013	sub2345	2345	  1	  0	 64	  3	  1	  5	  1	  3	  0	  1	  0	0.44234	  1	0.60000	  0	 15	 37	 48	  1	
12-May-2013	sub2345	2345	  1	  0	 65	  3	  1	  2	  3	  5	  1	  1	  0	0.39676	  0	0.60000	  0	 12	 40	 41	  1	
12-May-2013	sub2345	2345	  1	  0	 66	  3	  1	  1	  5	  2	  1	  1	  1	0.51354	  1	0.60000	  0	 11	 30	 31	  0	
12-May-2013	sub2345	2345	  1	  0	 67	  3	  1	  3	  6	  2	  1	  2	  0	0.33205	  0	0.60000	  0	 13	 42	 43	  1	
12-May-2013	sub2345	2345	  1	  0	 68	  3	  1	  3	  6	  2	  0	  1	  0	0.36332	  1	0.60000	  0	 13	 34	 49	  1	
12-May-2013	sub2345	2345	  1	  0	 69	  3	  1	  4	  4	  3	  1	  1	  0	0.44751	  0	0.60000	  0	 14	 42	 43	  1	
12-May-2013	sub2345	2345	  1	  0	 70	  3	  1	  5	  1	  3	  0	  2	  1	0.26309	  0	0.60000	  0	 15	 47	 38	  1	
12-May-2013	sub2345	2345	  1	  0	 71	  3	  1	  1	  5	  2	  1	  2	  0	0.38964	  0	0.60000	  0	 11	 40	 41	  1	
12-May-2013	sub2345	2345	  1	  0	 72	  3	  1	  2	  3	  5	  1	  1	  0	0.41038	  0	0.60000	  0	 12	 40	 41	  1	
12-May-2013	sub2345	2345	  1	  0	 73	  3	  1	  6	  2	  5	  0	  2	  0	0.27770	  1	0.60000	  0	 16	 37	 48	  1	
12-May-2013	sub2345	2345	  1	  0	 74	  3	  1	  3	  6	  2	  1	  1	  1	0.25597	  1	0.60000	  0	 13	 32	 33	  1	
12-May-2013	sub2345	2345	  1	  0	 75	  3	  1	  6	  2	  5	  0	  1	  1	0.57240	  0	0.60000	  0	 16	 47	 38	  0	
12-May-2013	sub2345	2345	  1	  0	 76	  3	  2	  6	  2	  5	  1	  1	  0	0.40505	  0	0.50000	  0	 26	 85	 86	  1	
12-May-2013	sub2345	2345	  1	  0	 77	  3	  2	  1	  5	  2	  1	  1	  1	0.35195	  1	0.50000	  0	 21	 60	 61	  1	
12-May-2013	sub2345	2345	  1	  0	 78	  3	  2	  6	  2	  5	  1	  2	  1	0.39437	  1	0.50000	  0	 26	 65	 66	  1	
12-May-2013	sub2345	2345	  1	  0	 79	  3	  2	  3	  6	  2	  1	  1	  1	0.39669	  1	0.50000	  0	 23	 62	 63	  1	
12-May-2013	sub2345	2345	  1	  0	 80	  3	  2	  3	  6	  2	  1	  1	  1	0.39463	  1	0.50000	  0	 23	 62	 63	  1	
12-May-2013	sub2345	2345	  1	  0	 81	  3	  2	  6	  2	  5	  0	  1	  1	0.42604	  0	0.50000	  0	 26	 87	 68	  1	
12-May-2013	sub2345	2345	  1	  0	 82	  3	  2	  2	  3	  5	  1	  1	  0	0.42957	  0	0.50000	  0	 22	 80	 81	  1	
12-May-2013	sub2345	2345	  1	  0	 83	  3	  2	  5	  1	  3	  0	  2	  1	0.45674	  0	0.50000	  0	 25	 87	 68	  1	
12-May-2013	sub2345	2345	  1	  0	 84	  3	  2	  1	  5	  2	  1	  1	  1	0.53888	  1	0.50000	  1	 21	 60	 51	  0	
12-May-2013	sub2345	2345	  1	  0	 85	  3	  2	  4	  4	  3	  0	  1	  1	0.59012	  0	0.60000	  0	 24	 84	 69	  0	
12-May-2013	sub2345	2345	  1	  0	 86	  3	  2	  2	  3	  5	  1	  1	  0	0.41712	  0	0.60000	  0	 22	 80	 81	  1	
12-May-2013	sub2345	2345	  1	  0	 87	  3	  2	  2	  3	  5	  1	  1	  0	0.40635	  0	0.60000	  0	 22	 80	 81	  1	
12-May-2013	sub2345	2345	  1	  0	 88	  3	  2	  1	  5	  2	  1	  2	  0	0.37268	  0	0.60000	  0	 21	 80	 81	  1	
12-May-2013	sub2345	2345	  1	  0	 89	  3	  2	  3	  6	  2	  1	  1	  1	0.34111	  1	0.60000	  0	 23	 62	 63	  1	
12-May-2013	sub2345	2345	  1	  0	 90	  3	  2	  2	  3	  5	  1	  1	  0	0.40976	  0	0.60000	  0	 22	 80	 81	  1	
12-May-2013	sub2345	2345	  1	  0	 91	  3	  2	  5	  1	  3	  0	  1	  0	0.37987	  1	0.60000	  0	 25	 67	 88	  1	
12-May-2013	sub2345	2345	  1	  0	 92	  3	  2	  1	  5	  2	  1	  1	  1	0.41883	  1	0.60000	  0	 21	 60	 61	  1	
12-May-2013	sub2345	2345	  1	  0	 93	  3	  2	  5	  1	  3	  0	  1	  0	0.49194	  1	0.60000	  0	 25	 67	 88	  1	
12-May-2013	sub2345	2345	  1	  0	 94	  3	  2	  1	  5	  2	  1	  1	  1	0.36431	  1	0.60000	  0	 21	 60	 61	  1	
12-May-2013	sub2345	2345	  1	  0	 95	  3	  2	  4	  4	  3	  1	  2	  1	0.34888	  1	0.60000	  0	 24	 62	 63	  1	
12-May-2013	sub2345	2345	  1	  0	 96	  3	  2	  1	  5	  2	  1	  1	  1	0.41209	  1	0.60000	  0	 21	 60	 61	  1	
12-May-2013	sub2345	2345	  1	  0	 97	  3	  2	  5	  1	  3	  0	  2	  1	0.47412	  0	0.60000	  0	 25	 87	 68	  1	
12-May-2013	sub2345	2345	  1	  0	 98	  3	  2	  1	  5	  2	  1	  1	  1	0.47463	  1	0.60000	  0	 21	 60	 61	  1	
12-May-2013	sub2345	2345	  1	  0	 99	  3	  2	  2	  3	  5	  1	  2	  1	0.43235	  1	0.60000	  0	 22	 60	 61	  1	
12-May-2013	sub2345	2345	  1	  0	100	  3	  2	  3	  6	  2	  1	  1	  1	0.47847	  1	0.60000	  0	 23	 62	 63	  1	
12-May-2013	sub2345	2345	  1	  0	101	  3	  2	  3	  6	  2	  1	  2	  0	0.44848	  0	0.50000	  0	 23	 82	 83	  1	
12-May-2013	sub2345	2345	  1	  0	102	  3	  2	  2	  3	  5	  1	  1	  0	0.41404	  0	0.50000	  0	 22	 80	 81	  1	
12-May-2013	sub2345	2345	  1	  0	103	  3	  2	  5	  1	  3	  0	  2	  1	0.37087	  0	0.50000	  0	 25	 87	 68	  1	
12-May-2013	sub2345	2345	  1	  0	104	  3	  2	  3	  6	  2	  1	  1	  1	0.36428	  1	0.50000	  0	 23	 62	 63	  1	
12-May-2013	sub2345	2345	  1	  0	105	  3	  2	  5	  1	  3	  0	  1	  0	0.24716	  1	0.50000	  0	 25	 67	 88	  1	
12-May-2013	sub2345	2345	  1	  0	106	  3	  2	  2	  3	  5	  1	  1	  0	0.34498	  0	0.50000	  0	 22	 80	 81	  1	
12-May-2013	sub2345	2345	  1	  0	107	  3	  2	  5	  1	  3	  0	  2	  1	0.31111	  0	0.50000	  0	 25	 87	 68	  1	
12-May-2013	sub2345	2345	  1	  0	108	  3	  2	  2	  3	  5	  1	  2	  1	0.39375	  1	0.50000	  0	 22	 60	 61	  1	
12-May-2013	sub2345	2345	  1	  0	109	  3	  2	  5	  1	  3	  0	  2	  1	0.52271	  0	0.50000	  1	 25	 87	 51	  0	
12-May-2013	sub2345	2345	  1	  0	110	  3	  2	  6	  2	  5	  0	  2	  0	0.32970	  1	0.60000	  0	 26	 67	 88	  1	
12-May-2013	sub2345	2345	  1	  0	111	  3	  2	  3	  6	  2	  1	  1	  1	0.53536	  1	0.60000	  0	 23	 62	 63	  0	
12-May-2013	sub2345	2345	  1	  0	112	  3	  2	  4	  4	  3	  1	  2	  1	0.53881	  1	0.60000	  0	 24	 62	 63	  0	
12-May-2013	sub2345	2345	  1	  0	113	  3	  2	  4	  4	  3	  0	  2	  0	0.48285	  1	0.60000	  0	 24	 64	 89	  1	
12-May-2013	sub2345	2345	  1	  0	114	  3	  2	  1	  5	  2	  1	  1	  1	0.42905	  1	0.60000	  0	 21	 60	 61	  1	
12-May-2013	sub2345	2345	  1	  0	115	  3	  2	  4	  4	  3	  1	  2	  1	0.51992	  1	0.60000	  0	 24	 62	 63	  0	
12-May-2013	sub2345	2345	  1	  0	116	  3	  2	  1	  5	  2	  1	  1	  1	0.44519	  1	0.60000	  0	 21	 60	 61	  1	
12-May-2013	sub2345	2345	  1	  0	117	  3	  2	  1	  5	  2	  1	  2	  0	0.29644	  0	0.60000	  0	 21	 80	 81	  1	
12-May-2013	sub2345	2345	  1	  0	118	  3	  2	  1	  5	  2	  1	  1	  1	0.36433	  1	0.60000	  0	 21	 60	 61	  1	
12-May-2013	sub2345	2345	  1	  0	119	  3	  2	  6	  2	  5	  0	  1	  1	0.31668	  0	0.60000	  0	 26	 87	 68	  1	
12-May-2013	sub2345	2345	  1	  0	120	  3	  2	  5	  1	  3	  0	  2	  1	0.41504	  0	0.60000	  0	 25	 87	 68	  1	
12-May-2013	sub2345	2345	  1	  0	121	  3	  2	  6	  2	  5	  1	  2	  1	0.40177	  1	0.60000	  0	 26	 65	 66	  1	
12-May-2013	sub2345	2345	  1	  0	122	  3	  2	  4	  4	  3	  1	  2	  1	0.55304	  1	0.60000	  0	 24	 62	 63	  0	
12-May-2013	sub2345	2345	  1	  0	123	  3	  2	  6	  2	  5	  0	  2	  0	0.48408	  1	0.60000	  0	 26	 67	 88	  1	
12-May-2013	sub2345	2345	  1	  0	124	  3	  2	  3	  6	  2	  1	  1	  1	0.41212	  1	0.60000	  0	 23	 62	 63	  1	
12-May-2013	sub2345	2345	  1	  0	125	  3	  2	  4	  4	  3	  1	  1	  0	0.36367	  0	0.60000	  0	 24	 82	 83	  1	
12-May-2013	sub2345	2345	  1	  0	126	  3	  2	  5	  1	  3	  0	  2	  1	0.41656	  0	0.50000	  0	 25	 87	 68	  1	
12-May-2013	sub2345	2345	  1	  0	127	  3	  2	  2	  3	  5	  1	  1	  0	0.51400	  0	0.50000	  1	 22	 80	 51	  0	
12-May-2013	sub2345	2345	  1	  0	128	  3	  2	  3	  6	  2	  0	  1	  0	0.51369	  1	0.60000	  0	 23	 64	 89	  0	
12-May-2013	sub2345	2345	  1	  0	129	  3	  2	  3	  6	  2	  0	  2	  1	0.37314	  0	0.60000	  0	 23	 84	 69	  1	
12-May-2013	sub2345	2345	  1	  0	130	  3	  2	  4	  4	  3	  0	  2	  0	0.51912	  1	0.60000	  0	 24	 64	 89	  0	
12-May-2013	sub2345	2345	  1	  0	131	  3	  2	  2	  3	  5	  1	  1	  0	0.38834	  0	0.60000	  0	 22	 80	 81	  1	
12-May-2013	sub2345	2345	  1	  0	132	  3	  2	  4	  4	  3	  1	  2	  1	0.49102	  1	0.60000	  0	 24	 62	 63	  1	
12-May-2013	sub2345	2345	  1	  0	133	  3	  2	  6	  2	  5	  0	  1	  1	0.12509	  0	0.60000	  0	 26	 87	 68	  1	
12-May-2013	sub2345	2345	  1	  0	134	  3	  2	  5	  1	  3	  0	  2	  1	0.49120	  0	0.60000	  0	 25	 87	 68	  1	
12-May-2013	sub2345	2345	  1	  0	135	  3	  2	  4	  4	  3	  1	  2	  1	0.49839	  1	0.60000	  0	 24	 62	 63	  1	
12-May-2013	sub2345	2345	  1	  0	136	  3	  2	  6	  2	  5	  1	  2	  1	0.42333	  1	0.60000	  0	 26	 65	 66	  1	
12-May-2013	sub2345	2345	  1	  0	137	  3	  2	  5	  1	  3	  0	  1	  0	0.39281	  1	0.60000	  0	 25	 67	 88	  1	
12-May-2013	sub2345	2345	  1	  0	138	  3	  2	  3	  6	  2	  1	  1	  1	0.48715	  1	0.60000	  0	 23	 62	 63	  1	
12-May-2013	sub2345	2345	  1	  0	139	  3	  2	  6	  2	  5	  1	  2	  1	0.39354	  1	0.60000	  0	 26	 65	 66	  1	
12-May-2013	sub2345	2345	  1	  0	140	  3	  2	  4	  4	  3	  1	  1	  0	0.48523	  0	0.60000	  0	 24	 82	 83	  1	
12-May-2013	sub2345	2345	  1	  0	141	  3	  2	  4	  4	  3	  1	  2	  1	0.44421	  1	0.60000	  0	 24	 62	 63	  1	
12-May-2013	sub2345	2345	  1	  0	142	  3	  2	  6	  2	  5	  1	  2	  1	0.46163	  1	0.60000	  0	 26	 65	 66	  1	
12-May-2013	sub2345	2345	  1	  0	143	  3	  2	  1	  5	  2	  1	  1	  1	0.43334	  1	0.60000	  0	 21	 60	 61	  1	
12-May-2013	sub2345	2345	  1	  0	144	  3	  2	  3	  6	  2	  1	  2	  0	0.47055	  0	0.60000	  0	 23	 82	 83	  1	
12-May-2013	sub2345	2345	  1	  0	145	  3	  2	  4	  4	  3	  1	  1	  0	0.45283	  0	0.60000	  0	 24	 82	 83	  1	
12-May-2013	sub2345	2345	  1	  0	146	  3	  2	  6	  2	  5	  0	  2	  0	0.38319	  1	0.60000	  0	 26	 67	 88	  1	
12-May-2013	sub2345	2345	  1	  0	147	  3	  2	  2	  3	  5	  1	  1	  0	0.39656	  0	0.60000	  0	 22	 80	 81	  1	
12-May-2013	sub2345	2345	  1	  0	148	  3	  2	  5	  1	  3	  0	  2	  1	0.42764	  0	0.60000	  0	 25	 87	 68	  1	
12-May-2013	sub2345	2345	  1	  0	149	  3	  2	  1	  5	  2	  1	  1	  1	0.52089	  1	0.60000	  0	 21	 60	 61	  0	
12-May-2013	sub2345	2345	  1	  0	150	  3	  2	  2	  3	  5	  1	  1	  0	0.45177	  0	0.60000	  0	 22	 80	 81	  1	
12-May-2013	sub2345	2345	  1	  0	  1	  4	  1	  4	  1	  5	  1	  1	  0	0.22518	  0	0.60000	  0	 14	 42	 43	  1	
12-May-2013	sub2345	2345	  1	  0	  2	  4	  1	  5	  3	  2	  1	  1	  1	0.36240	  1	0.30000	  1	 15	 35	 51	  1	
12-May-2013	sub2345	2345	  1	  0	  3	  4	  1	  6	  4	  6	  0	  1	  1	0.18158	  0	0.90000	  0	 16	 47	 38	  1	
12-May-2013	sub2345	2345	  1	  0	  4	  4	  1	  2	  5	  4	  1	  2	  1	0.40256	  1	0.90000	  0	 12	 30	 31	  1	
12-May-2013	sub2345	2345	  1	  0	  5	  4	  1	  4	  1	  5	  0	  2	  0	0.37300	  1	0.90000	  0	 14	 34	 49	  1	
12-May-2013	sub2345	2345	  1	  0	  6	  4	  1	  5	  3	  2	  0	  1	  0	0.35214	  1	0.90000	  0	 15	 37	 48	  1	
12-May-2013	sub2345	2345	  1	  0	  7	  4	  1	  1	  2	  2	  1	  2	  0	0.38091	  0	0.90000	  0	 11	 40	 41	  1	
12-May-2013	sub2345	2345	  1	  0	  8	  4	  1	  1	  2	  2	  1	  1	  1	0.39095	  1	0.90000	  0	 11	 30	 31	  1	
12-May-2013	sub2345	2345	  1	  0	  9	  4	  1	  2	  5	  4	  1	  1	  0	0.36879	  0	0.90000	  0	 12	 40	 41	  1	
12-May-2013	sub2345	2345	  1	  0	 10	  4	  1	  5	  3	  2	  1	  2	  0	0.40024	  0	0.90000	  0	 15	 45	 46	  1	
12-May-2013	sub2345	2345	  1	  0	 11	  4	  1	  4	  1	  5	  1	  2	  1	0.41078	  1	0.90000	  0	 14	 32	 33	  1	
12-May-2013	sub2345	2345	  1	  0	 12	  4	  1	  4	  1	  5	  1	  2	  1	0.40765	  1	0.90000	  0	 14	 32	 33	  1	
12-May-2013	sub2345	2345	  1	  0	 13	  4	  1	  1	  2	  2	  1	  2	  0	0.42936	  0	0.90000	  0	 11	 40	 41	  1	
12-May-2013	sub2345	2345	  1	  0	 14	  4	  1	  6	  4	  6	  0	  1	  1	0.42321	  0	0.90000	  0	 16	 47	 38	  1	
12-May-2013	sub2345	2345	  1	  0	 15	  4	  1	  3	  6	  4	  1	  1	  1	0.48409	  1	0.90000	  0	 13	 32	 33	  1	
12-May-2013	sub2345	2345	  1	  0	 16	  4	  1	  5	  3	  2	  1	  2	  0	0.60539	  0	0.80000	  0	 15	 45	 46	  0	
12-May-2013	sub2345	2345	  1	  0	 17	  4	  1	  5	  3	  2	  0	  1	  0	0.00564	  1	0.80000	  0	 15	 37	 48	  1	
12-May-2013	sub2345	2345	  1	  0	 18	  4	  1	  4	  1	  5	  1	  1	  0	0.58865	  0	0.70000	  0	 14	 42	 43	  0	
12-May-2013	sub2345	2345	  1	  0	 19	  4	  1	  1	  2	  2	  1	  2	  0	0.39127	  0	0.70000	  0	 11	 40	 41	  1	
12-May-2013	sub2345	2345	  1	  0	 20	  4	  1	  4	  1	  5	  1	  2	  1	0.47840	  1	0.70000	  0	 14	 32	 33	  1	
12-May-2013	sub2345	2345	  1	  0	 21	  4	  1	  6	  4	  6	  1	  1	  0	0.52047	  0	0.60000	  0	 16	 45	 46	  0	
12-May-2013	sub2345	2345	  1	  0	 22	  4	  1	  6	  4	  6	  1	  2	  1	0.40757	  1	0.60000	  0	 16	 35	 36	  1	
12-May-2013	sub2345	2345	  1	  0	 23	  4	  1	  2	  5	  4	  1	  2	  1	0.50114	  1	0.60000	  0	 12	 30	 31	  0	
12-May-2013	sub2345	2345	  1	  0	 24	  4	  1	  6	  4	  6	  0	  2	  0	0.48234	  1	0.60000	  0	 16	 37	 48	  1	
12-May-2013	sub2345	2345	  1	  0	 25	  4	  1	  5	  3	  2	  1	  1	  1	0.41417	  1	0.60000	  0	 15	 35	 36	  1	
12-May-2013	sub2345	2345	  1	  0	 26	  4	  1	  4	  1	  5	  1	  1	  0	0.53888	  0	0.50000	  1	 14	 42	 51	  0	
12-May-2013	sub2345	2345	  1	  0	 27	  4	  1	  2	  5	  4	  1	  2	  1	0.36870	  1	0.90000	  0	 12	 30	 31	  1	
12-May-2013	sub2345	2345	  1	  0	 28	  4	  1	  5	  3	  2	  0	  2	  1	0.42900	  0	0.90000	  0	 15	 47	 38	  1	
12-May-2013	sub2345	2345	  1	  0	 29	  4	  1	  3	  6	  4	  1	  2	  0	0.35267	  0	0.90000	  0	 13	 42	 43	  1	
12-May-2013	sub2345	2345	  1	  0	 30	  4	  1	  5	  3	  2	  0	  2	  1	0.53371	  0	0.80000	  0	 15	 47	 38	  0	
12-May-2013	sub2345	2345	  1	  0	 31	  4	  1	  5	  3	  2	  1	  1	  1	0.34270	  1	0.80000	  0	 15	 35	 36	  1	
12-May-2013	sub2345	2345	  1	  0	 32	  4	  1	  4	  1	  5	  1	  2	  1	0.32581	  1	0.80000	  0	 14	 32	 33	  1	
12-May-2013	sub2345	2345	  1	  0	 33	  4	  1	  2	  5	  4	  1	  2	  1	0.36691	  1	0.80000	  0	 12	 30	 31	  1	
12-May-2013	sub2345	2345	  1	  0	 34	  4	  1	  2	  5	  4	  1	  1	  0	0.27577	  0	0.80000	  0	 12	 40	 41	  1	
12-May-2013	sub2345	2345	  1	  0	 35	  4	  1	  4	  1	  5	  1	  2	  1	0.22346	  1	0.70000	  0	 14	 32	 33	  1	
12-May-2013	sub2345	2345	  1	  0	 36	  4	  1	  2	  5	  4	  1	  2	  1	0.34322	  1	0.70000	  0	 12	 30	 31	  1	
12-May-2013	sub2345	2345	  1	  0	 37	  4	  1	  3	  6	  4	  1	  2	  0	0.33708	  0	0.70000	  0	 13	 42	 43	  1	
12-May-2013	sub2345	2345	  1	  0	 38	  4	  1	  6	  4	  6	  0	  2	  0	0.42767	  1	0.70000	  0	 16	 37	 48	  1	
12-May-2013	sub2345	2345	  1	  0	 39	  4	  1	  3	  6	  4	  1	  1	  1	0.25534	  1	0.70000	  0	 13	 32	 33	  1	
12-May-2013	sub2345	2345	  1	  0	 40	  4	  1	  3	  6	  4	  1	  1	  1	0.36158	  1	0.70000	  0	 13	 32	 33	  1	
12-May-2013	sub2345	2345	  1	  0	 41	  4	  1	  6	  4	  6	  1	  2	  1	0.50347	  1	0.60000	  0	 16	 35	 36	  0	
12-May-2013	sub2345	2345	  1	  0	 42	  4	  1	  3	  6	  4	  1	  1	  1	0.33743	  1	0.60000	  0	 13	 32	 33	  1	
12-May-2013	sub2345	2345	  1	  0	 43	  4	  1	  1	  2	  2	  1	  2	  0	0.53578	  0	0.60000	  0	 11	 40	 41	  0	
12-May-2013	sub2345	2345	  1	  0	 44	  4	  1	  6	  4	  6	  0	  1	  1	0.39953	  0	0.60000	  0	 16	 47	 38	  1	
12-May-2013	sub2345	2345	  1	  0	 45	  4	  1	  2	  5	  4	  1	  2	  1	0.46486	  1	0.60000	  0	 12	 30	 31	  1	
12-May-2013	sub2345	2345	  1	  0	 46	  4	  1	  1	  2	  2	  1	  2	  0	0.42469	  0	0.60000	  0	 11	 40	 41	  1	
12-May-2013	sub2345	2345	  1	  0	 47	  4	  1	  2	  5	  4	  1	  1	  0	0.40062	  0	0.60000	  0	 12	 40	 41	  1	
12-May-2013	sub2345	2345	  1	  0	 48	  4	  1	  3	  6	  4	  0	  2	  1	0.43168	  0	0.60000	  0	 13	 44	 39	  1	
12-May-2013	sub2345	2345	  1	  0	 49	  4	  1	  5	  3	  2	  1	  1	  1	0.60758	  1	0.60000	  1	 15	 35	 51	  0	
12-May-2013	sub2345	2345	  1	  0	 50	  4	  1	  1	  2	  2	  1	  2	  0	0.45844	  0	0.80000	  0	 11	 40	 41	  1	
12-May-2013	sub2345	2345	  1	  0	 51	  4	  1	  2	  5	  4	  1	  1	  0	0.47419	  0	0.70000	  0	 12	 40	 41	  1	
12-May-2013	sub2345	2345	  1	  0	 52	  4	  1	  5	  3	  2	  0	  2	  1	0.38538	  0	0.70000	  0	 15	 47	 38	  1	
12-May-2013	sub2345	2345	  1	  0	 53	  4	  1	  6	  4	  6	  0	  2	  0	1.45670	  1	0.70000	  1	 16	 37	 51	  0	
12-May-2013	sub2345	2345	  1	  0	 54	  4	  1	  2	  5	  4	  1	  2	  1	0.50195	  1	0.90000	  0	 12	 30	 31	  0	
12-May-2013	sub2345	2345	  1	  0	 55	  4	  1	  6	  4	  6	  1	  1	  0	0.49284	  0	0.90000	  0	 16	 45	 46	  1	
12-May-2013	sub2345	2345	  1	  0	 56	  4	  1	  6	  4	  6	  1	  2	  1	0.43385	  1	0.90000	  0	 16	 35	 36	  1	
12-May-2013	sub2345	2345	  1	  0	 57	  4	  1	  5	  3	  2	  0	  1	  0	0.46013	  1	0.90000	  0	 15	 37	 48	  1	
12-May-2013	sub2345	2345	  1	  0	 58	  4	  1	  1	  2	  2	  1	  2	  0	0.39546	  0	0.90000	  0	 11	 40	 41	  1	
12-May-2013	sub2345	2345	  1	  0	 59	  4	  1	  6	  4	  6	  1	  2	  1	0.45796	  1	0.80000	  0	 16	 35	 36	  1	
12-May-2013	sub2345	2345	  1	  0	 60	  4	  1	  1	  2	  2	  1	  1	  1	0.37129	  1	0.80000	  0	 11	 30	 31	  1	
12-May-2013	sub2345	2345	  1	  0	 61	  4	  1	  1	  2	  2	  1	  1	  1	0.42074	  1	0.80000	  0	 11	 30	 31	  1	
12-May-2013	sub2345	2345	  1	  0	 62	  4	  1	  4	  1	  5	  0	  2	  0	0.40822	  1	0.80000	  0	 14	 34	 49	  1	
12-May-2013	sub2345	2345	  1	  0	 63	  4	  1	  3	  6	  4	  1	  2	  0	0.51918	  0	0.80000	  0	 13	 42	 43	  0	
12-May-2013	sub2345	2345	  1	  0	 64	  4	  1	  1	  2	  2	  1	  1	  1	0.43850	  1	0.80000	  0	 11	 30	 31	  1	
12-May-2013	sub2345	2345	  1	  0	 65	  4	  1	  3	  6	  4	  1	  1	  1	0.47192	  1	0.80000	  0	 13	 32	 33	  1	
12-May-2013	sub2345	2345	  1	  0	 66	  4	  1	  2	  5	  4	  1	  2	  1	0.43524	  1	0.80000	  0	 12	 30	 31	  1	
12-May-2013	sub2345	2345	  1	  0	 67	  4	  1	  3	  6	  4	  0	  1	  0	0.38583	  1	0.80000	  0	 13	 34	 49	  1	
12-May-2013	sub2345	2345	  1	  0	 68	  4	  1	  1	  2	  2	  1	  1	  1	0.38291	  1	0.70000	  0	 11	 30	 31	  1	
12-May-2013	sub2345	2345	  1	  0	 69	  4	  1	  4	  1	  5	  1	  1	  0	0.45748	  0	0.70000	  0	 14	 42	 43	  1	
12-May-2013	sub2345	2345	  1	  0	 70	  4	  1	  3	  6	  4	  1	  1	  1	0.51318	  1	0.70000	  0	 13	 32	 33	  0	
12-May-2013	sub2345	2345	  1	  0	 71	  4	  1	  3	  6	  4	  1	  1	  1	0.39866	  1	0.70000	  0	 13	 32	 33	  1	
12-May-2013	sub2345	2345	  1	  0	 72	  4	  1	  3	  6	  4	  0	  1	  0	0.31848	  1	0.70000	  0	 13	 34	 49	  1	
12-May-2013	sub2345	2345	  1	  0	 73	  4	  1	  6	  4	  6	  0	  1	  1	0.41707	  0	0.70000	  0	 16	 47	 38	  1	
12-May-2013	sub2345	2345	  1	  0	 74	  4	  1	  4	  1	  5	  1	  2	  1	0.25343	  1	0.70000	  0	 14	 32	 33	  1	
12-May-2013	sub2345	2345	  1	  0	 75	  4	  1	  2	  5	  4	  1	  2	  1	0.39401	  1	0.70000	  0	 12	 30	 31	  1	
12-May-2013	sub2345	2345	  1	  0	 76	  4	  2	  1	  2	  2	  1	  1	  1	0.40858	  1	0.70000	  0	 21	 60	 61	  1	
12-May-2013	sub2345	2345	  1	  0	 77	  4	  2	  2	  5	  4	  1	  1	  0	0.31764	  0	0.70000	  0	 22	 80	 81	  1	
12-May-2013	sub2345	2345	  1	  0	 78	  4	  2	  3	  6	  4	  1	  1	  1	0.50994	  1	0.70000	  0	 23	 62	 63	  0	
12-May-2013	sub2345	2345	  1	  0	 79	  4	  2	  6	  4	  6	  0	  2	  0	0.33178	  1	0.70000	  0	 26	 67	 88	  1	
12-May-2013	sub2345	2345	  1	  0	 80	  4	  2	  6	  4	  6	  1	  1	  0	0.35478	  0	0.70000	  0	 26	 85	 86	  1	
12-May-2013	sub2345	2345	  1	  0	 81	  4	  2	  6	  4	  6	  0	  1	  1	0.43038	  0	0.60000	  0	 26	 87	 68	  1	
12-May-2013	sub2345	2345	  1	  0	 82	  4	  2	  3	  6	  4	  1	  1	  1	0.39587	  1	0.60000	  0	 23	 62	 63	  1	
12-May-2013	sub2345	2345	  1	  0	 83	  4	  2	  3	  6	  4	  1	  1	  1	0.38241	  1	0.60000	  0	 23	 62	 63	  1	
12-May-2013	sub2345	2345	  1	  0	 84	  4	  2	  1	  2	  2	  1	  2	  0	0.47683	  0	0.60000	  0	 21	 80	 81	  1	
12-May-2013	sub2345	2345	  1	  0	 85	  4	  2	  1	  2	  2	  1	  1	  1	0.34698	  1	0.60000	  0	 21	 60	 61	  1	
12-May-2013	sub2345	2345	  1	  0	 86	  4	  2	  6	  4	  6	  1	  1	  0	0.48693	  0	0.60000	  0	 26	 85	 86	  1	
12-May-2013	sub2345	2345	  1	  0	 87	  4	  2	  2	  5	  4	  1	  2	  1	0.53244	  1	0.60000	  0	 22	 60	 61	  0	
12-May-2013	sub2345	2345	  1	  0	 88	  4	  2	  4	  1	  5	  1	  2	  1	0.58253	  1	0.60000	  0	 24	 62	 63	  0	
12-May-2013	sub2345	2345	  1	  0	 89	  4	  2	  2	  5	  4	  1	  1	  0	0.42228	  0	0.60000	  0	 22	 80	 81	  1	
12-May-2013	sub2345	2345	  1	  0	 90	  4	  2	  4	  1	  5	  1	  2	  1	0.49137	  1	0.60000	  0	 24	 62	 63	  1	
12-May-2013	sub2345	2345	  1	  0	 91	  4	  2	  1	  2	  2	  1	  1	  1	0.47048	  1	0.60000	  0	 21	 60	 61	  1	
12-May-2013	sub2345	2345	  1	  0	 92	  4	  2	  1	  2	  2	  1	  2	  0	0.41311	  0	0.60000	  0	 21	 80	 81	  1	
12-May-2013	sub2345	2345	  1	  0	 93	  4	  2	  3	  6	  4	  1	  1	  1	0.45138	  1	0.60000	  0	 23	 62	 63	  1	
12-May-2013	sub2345	2345	  1	  0	 94	  4	  2	  2	  5	  4	  1	  1	  0	0.38515	  0	0.60000	  0	 22	 80	 81	  1	
12-May-2013	sub2345	2345	  1	  0	 95	  4	  2	  2	  5	  4	  1	  2	  1	0.38292	  1	0.60000	  0	 22	 60	 61	  1	
12-May-2013	sub2345	2345	  1	  0	 96	  4	  2	  5	  3	  2	  0	  1	  0	0.44322	  1	0.60000	  0	 25	 67	 88	  1	
12-May-2013	sub2345	2345	  1	  0	 97	  4	  2	  1	  2	  2	  1	  2	  0	0.51370	  0	0.60000	  0	 21	 80	 81	  0	
12-May-2013	sub2345	2345	  1	  0	 98	  4	  2	  3	  6	  4	  1	  1	  1	0.49263	  1	0.60000	  0	 23	 62	 63	  1	
12-May-2013	sub2345	2345	  1	  0	 99	  4	  2	  6	  4	  6	  1	  1	  0	0.44893	  0	0.60000	  0	 26	 85	 86	  1	
12-May-2013	sub2345	2345	  1	  0	100	  4	  2	  3	  6	  4	  1	  1	  1	0.40514	  1	0.60000	  0	 23	 62	 63	  1	
12-May-2013	sub2345	2345	  1	  0	101	  4	  2	  6	  4	  6	  0	  2	  0	0.51753	  1	0.50000	  1	 26	 67	 51	  0	
12-May-2013	sub2345	2345	  1	  0	102	  4	  2	  3	  6	  4	  1	  1	  1	0.50843	  1	0.60000	  0	 23	 62	 63	  0	
12-May-2013	sub2345	2345	  1	  0	103	  4	  2	  4	  1	  5	  1	  2	  1	0.55982	  1	0.60000	  0	 24	 62	 63	  0	
12-May-2013	sub2345	2345	  1	  0	104	  4	  2	  1	  2	  2	  1	  1	  1	0.44808	  1	0.60000	  0	 21	 60	 61	  1	
12-May-2013	sub2345	2345	  1	  0	105	  4	  2	  5	  3	  2	  0	  2	  1	0.48683	  0	0.60000	  0	 25	 87	 68	  1	
12-May-2013	sub2345	2345	  1	  0	106	  4	  2	  2	  5	  4	  1	  1	  0	0.42410	  0	0.60000	  0	 22	 80	 81	  1	
12-May-2013	sub2345	2345	  1	  0	107	  4	  2	  4	  1	  5	  0	  2	  0	0.58852	  1	0.60000	  0	 24	 64	 89	  0	
12-May-2013	sub2345	2345	  1	  0	108	  4	  2	  2	  5	  4	  1	  2	  1	0.34107	  1	0.60000	  0	 22	 60	 61	  1	
12-May-2013	sub2345	2345	  1	  0	109	  4	  2	  4	  1	  5	  1	  2	  1	0.51499	  1	0.60000	  0	 24	 62	 63	  0	
12-May-2013	sub2345	2345	  1	  0	110	  4	  2	  4	  1	  5	  0	  2	  0	0.48786	  1	0.60000	  0	 24	 64	 89	  1	
12-May-2013	sub2345	2345	  1	  0	111	  4	  2	  2	  5	  4	  1	  1	  0	0.49251	  0	0.60000	  0	 22	 80	 81	  1	
12-May-2013	sub2345	2345	  1	  0	112	  4	  2	  3	  6	  4	  1	  2	  0	0.30671	  0	0.60000	  0	 23	 82	 83	  1	
12-May-2013	sub2345	2345	  1	  0	113	  4	  2	  5	  3	  2	  0	  1	  0	0.40031	  1	0.60000	  0	 25	 67	 88	  1	
12-May-2013	sub2345	2345	  1	  0	114	  4	  2	  5	  3	  2	  0	  2	  1	0.35995	  0	0.60000	  0	 25	 87	 68	  1	
12-May-2013	sub2345	2345	  1	  0	115	  4	  2	  6	  4	  6	  1	  2	  1	0.54637	  1	0.60000	  0	 26	 65	 66	  0	
12-May-2013	sub2345	2345	  1	  0	116	  4	  2	  5	  3	  2	  0	  2	  1	0.42899	  0	0.60000	  0	 25	 87	 68	  1	
12-May-2013	sub2345	2345	  1	  0	117	  4	  2	  4	  1	  5	  1	  1	  0	0.40564	  0	0.60000	  0	 24	 82	 83	  1	
12-May-2013	sub2345	2345	  1	  0	118	  4	  2	  5	  3	  2	  0	  2	  1	0.38996	  0	0.60000	  0	 25	 87	 68	  1	
12-May-2013	sub2345	2345	  1	  0	119	  4	  2	  5	  3	  2	  0	  2	  1	0.41174	  0	0.60000	  0	 25	 87	 68	  1	
12-May-2013	sub2345	2345	  1	  0	120	  4	  2	  1	  2	  2	  1	  1	  1	0.54145	  1	0.60000	  0	 21	 60	 61	  0	
12-May-2013	sub2345	2345	  1	  0	121	  4	  2	  2	  5	  4	  1	  2	  1	0.49716	  1	0.60000	  0	 22	 60	 61	  1	
12-May-2013	sub2345	2345	  1	  0	122	  4	  2	  5	  3	  2	  0	  2	  1	0.45446	  0	0.60000	  0	 25	 87	 68	  1	
12-May-2013	sub2345	2345	  1	  0	123	  4	  2	  4	  1	  5	  1	  1	  0	0.51039	  0	0.60000	  0	 24	 82	 83	  0	
12-May-2013	sub2345	2345	  1	  0	124	  4	  2	  1	  2	  2	  1	  2	  0	0.51594	  0	0.60000	  0	 21	 80	 81	  0	
12-May-2013	sub2345	2345	  1	  0	125	  4	  2	  5	  3	  2	  0	  1	  0	0.35595	  1	0.60000	  0	 25	 67	 88	  1	
12-May-2013	sub2345	2345	  1	  0	126	  4	  2	  1	  2	  2	  1	  2	  0	0.45726	  0	0.50000	  0	 21	 80	 81	  1	
12-May-2013	sub2345	2345	  1	  0	127	  4	  2	  3	  6	  4	  0	  1	  0	0.52691	  1	0.50000	  1	 23	 64	 51	  0	
12-May-2013	sub2345	2345	  1	  0	128	  4	  2	  5	  3	  2	  0	  2	  1	0.59911	  0	0.60000	  0	 25	 87	 68	  0	
12-May-2013	sub2345	2345	  1	  0	129	  4	  2	  6	  4	  6	  0	  1	  1	0.61475	  0	0.60000	  1	 26	 87	 51	  0	
12-May-2013	sub2345	2345	  1	  0	130	  4	  2	  3	  6	  4	  1	  1	  1	0.41626	  1	0.70000	  0	 23	 62	 63	  1	
12-May-2013	sub2345	2345	  1	  0	131	  4	  2	  6	  4	  6	  0	  2	  0	0.50251	  1	0.70000	  0	 26	 67	 88	  0	
12-May-2013	sub2345	2345	  1	  0	132	  4	  2	  2	  5	  4	  1	  2	  1	0.45595	  1	0.70000	  0	 22	 60	 61	  1	
12-May-2013	sub2345	2345	  1	  0	133	  4	  2	  4	  1	  5	  1	  1	  0	0.38296	  0	0.70000	  0	 24	 82	 83	  1	
12-May-2013	sub2345	2345	  1	  0	134	  4	  2	  4	  1	  5	  1	  2	  1	0.30262	  1	0.70000	  0	 24	 62	 63	  1	
12-May-2013	sub2345	2345	  1	  0	135	  4	  2	  2	  5	  4	  1	  2	  1	0.57957	  1	0.70000	  0	 22	 60	 61	  0	
12-May-2013	sub2345	2345	  1	  0	136	  4	  2	  1	  2	  2	  1	  2	  0	0.48580	  0	0.70000	  0	 21	 80	 81	  1	
12-May-2013	sub2345	2345	  1	  0	137	  4	  2	  6	  4	  6	  1	  1	  0	0.32292	  0	0.70000	  0	 26	 85	 86	  1	
12-May-2013	sub2345	2345	  1	  0	138	  4	  2	  6	  4	  6	  0	  1	  1	0.48258	  0	0.70000	  0	 26	 87	 68	  1	
12-May-2013	sub2345	2345	  1	  0	139	  4	  2	  4	  1	  5	  1	  2	  1	0.52125	  1	0.70000	  0	 24	 62	 63	  0	
12-May-2013	sub2345	2345	  1	  0	140	  4	  2	  5	  3	  2	  0	  1	  0	0.44272	  1	0.70000	  0	 25	 67	 88	  1	
12-May-2013	sub2345	2345	  1	  0	141	  4	  2	  3	  6	  4	  1	  1	  1	0.50147	  1	0.60000	  0	 23	 62	 63	  0	
12-May-2013	sub2345	2345	  1	  0	142	  4	  2	  3	  6	  4	  0	  1	  0	0.44776	  1	0.60000	  0	 23	 64	 89	  1	
12-May-2013	sub2345	2345	  1	  0	143	  4	  2	  4	  1	  5	  1	  1	  0	0.42960	  0	0.60000	  0	 24	 82	 83	  1	
12-May-2013	sub2345	2345	  1	  0	144	  4	  2	  1	  2	  2	  1	  2	  0	0.48058	  0	0.60000	  0	 21	 80	 81	  1	
12-May-2013	sub2345	2345	  1	  0	145	  4	  2	  4	  1	  5	  0	  2	  0	0.39614	  1	0.60000	  0	 24	 64	 89	  1	
12-May-2013	sub2345	2345	  1	  0	146	  4	  2	  1	  2	  2	  1	  1	  1	0.41111	  1	0.60000	  0	 21	 60	 61	  1	
12-May-2013	sub2345	2345	  1	  0	147	  4	  2	  5	  3	  2	  0	  1	  0	0.44539	  1	0.60000	  0	 25	 67	 88	  1	
12-May-2013	sub2345	2345	  1	  0	148	  4	  2	  2	  5	  4	  1	  1	  0	0.49409	  0	0.60000	  0	 22	 80	 81	  1	
12-May-2013	sub2345	2345	  1	  0	149	  4	  2	  6	  4	  6	  1	  2	  1	0.47011	  1	0.60000	  0	 26	 65	 66	  1	
12-May-2013	sub2345	2345	  1	  0	150	  4	  2	  5	  3	  2	  0	  2	  1	0.45344	  0	0.60000	  0	 25	 87	 68	  1	
12-May-2013	sub2345	2345	  1	  0	  1	  5	  1	  1	  3	  6	  1	  1	  1	0.35747	  1	0.60000	  0	 11	 30	 31	  1	
12-May-2013	sub2345	2345	  1	  0	  2	  5	  1	  1	  3	  6	  1	  2	  0	0.17822	  0	0.30000	  0	 11	 40	 41	  1	
12-May-2013	sub2345	2345	  1	  0	  3	  5	  1	  6	  4	  2	  1	  1	  0	0.23207	  0	0.30000	  0	 16	 45	 46	  1	
12-May-2013	sub2345	2345	  1	  0	  4	  5	  1	  6	  4	  2	  0	  2	  0	0.39817	  1	0.30000	  1	 16	 37	 51	  1	
12-May-2013	sub2345	2345	  1	  0	  5	  5	  1	  5	  1	  1	  0	  2	  1	0.50171	  0	0.90000	  0	 15	 47	 38	  0	
12-May-2013	sub2345	2345	  1	  0	  6	  5	  1	  6	  4	  2	  0	  2	  0	0.26105	  1	0.90000	  0	 16	 37	 48	  1	
12-May-2013	sub2345	2345	  1	  0	  7	  5	  1	  3	  5	  3	  1	  1	  1	0.40184	  1	0.90000	  0	 13	 32	 33	  1	
12-May-2013	sub2345	2345	  1	  0	  8	  5	  1	  2	  6	  3	  1	  2	  1	0.43822	  1	0.90000	  0	 12	 30	 31	  1	
12-May-2013	sub2345	2345	  1	  0	  9	  5	  1	  4	  2	  6	  1	  1	  0	0.52080	  0	0.90000	  0	 14	 42	 43	  0	
12-May-2013	sub2345	2345	  1	  0	 10	  5	  1	  5	  1	  1	  1	  2	  0	0.55060	  0	0.90000	  0	 15	 45	 46	  0	
12-May-2013	sub2345	2345	  1	  0	 11	  5	  1	  3	  5	  3	  1	  2	  0	0.54684	  0	0.90000	  0	 13	 42	 43	  0	
12-May-2013	sub2345	2345	  1	  0	 12	  5	  1	  3	  5	  3	  1	  1	  1	0.37749	  1	0.90000	  0	 13	 32	 33	  1	
12-May-2013	sub2345	2345	  1	  0	 13	  5	  1	  1	  3	  6	  1	  1	  1	0.48589	  1	0.90000	  0	 11	 30	 31	  1	
12-May-2013	sub2345	2345	  1	  0	 14	  5	  1	  5	  1	  1	  1	  2	  0	0.38739	  0	0.90000	  0	 15	 45	 46	  1	
12-May-2013	sub2345	2345	  1	  0	 15	  5	  1	  1	  3	  6	  1	  1	  1	0.43336	  1	0.90000	  0	 11	 30	 31	  1	
12-May-2013	sub2345	2345	  1	  0	 16	  5	  1	  6	  4	  2	  1	  1	  0	0.43052	  0	0.80000	  0	 16	 45	 46	  1	
12-May-2013	sub2345	2345	  1	  0	 17	  5	  1	  6	  4	  2	  1	  1	  0	0.43980	  0	0.80000	  0	 16	 45	 46	  1	
12-May-2013	sub2345	2345	  1	  0	 18	  5	  1	  2	  6	  3	  1	  1	  0	0.49268	  0	0.70000	  0	 12	 40	 41	  1	
12-May-2013	sub2345	2345	  1	  0	 19	  5	  1	  2	  6	  3	  1	  2	  1	0.42230	  1	0.70000	  0	 12	 30	 31	  1	
12-May-2013	sub2345	2345	  1	  0	 20	  5	  1	  4	  2	  6	  1	  2	  1	0.37537	  1	0.70000	  0	 14	 32	 33	  1	
12-May-2013	sub2345	2345	  1	  0	 21	  5	  1	  1	  3	  6	  1	  2	  0	0.41006	  0	0.60000	  0	 11	 40	 41	  1	
12-May-2013	sub2345	2345	  1	  0	 22	  5	  1	  4	  2	  6	  1	  1	  0	0.40062	  0	0.60000	  0	 14	 42	 43	  1	
12-May-2013	sub2345	2345	  1	  0	 23	  5	  1	  2	  6	  3	  1	  2	  1	0.39079	  1	0.60000	  0	 12	 30	 31	  1	
12-May-2013	sub2345	2345	  1	  0	 24	  5	  1	  3	  5	  3	  1	  2	  0	0.55042	  0	0.60000	  0	 13	 42	 43	  0	
12-May-2013	sub2345	2345	  1	  0	 25	  5	  1	  4	  2	  6	  1	  1	  0	0.44615	  0	0.60000	  0	 14	 42	 43	  1	
12-May-2013	sub2345	2345	  1	  0	 26	  5	  1	  6	  4	  2	  0	  2	  0	0.37473	  1	0.50000	  0	 16	 37	 48	  1	
12-May-2013	sub2345	2345	  1	  0	 27	  5	  1	  3	  5	  3	  0	  2	  1	0.37059	  0	0.50000	  0	 13	 44	 39	  1	
12-May-2013	sub2345	2345	  1	  0	 28	  5	  1	  1	  3	  6	  1	  1	  1	0.42344	  1	0.50000	  0	 11	 30	 31	  1	
12-May-2013	sub2345	2345	  1	  0	 29	  5	  1	  1	  3	  6	  1	  1	  1	0.38533	  1	0.50000	  0	 11	 30	 31	  1	
12-May-2013	sub2345	2345	  1	  0	 30	  5	  1	  2	  6	  3	  1	  2	  1	0.49129	  1	0.50000	  0	 12	 30	 31	  1	
12-May-2013	sub2345	2345	  1	  0	 31	  5	  1	  6	  4	  2	  1	  1	  0	0.47460	  0	0.50000	  0	 16	 45	 46	  1	
12-May-2013	sub2345	2345	  1	  0	 32	  5	  1	  1	  3	  6	  1	  1	  1	0.53054	  1	0.50000	  1	 11	 30	 51	  0	
12-May-2013	sub2345	2345	  1	  0	 33	  5	  1	  4	  2	  6	  1	  1	  0	0.45006	  0	0.80000	  0	 14	 42	 43	  1	
12-May-2013	sub2345	2345	  1	  0	 34	  5	  1	  2	  6	  3	  1	  1	  0	0.47116	  0	0.80000	  0	 12	 40	 41	  1	
12-May-2013	sub2345	2345	  1	  0	 35	  5	  1	  5	  1	  1	  0	  2	  1	0.39483	  0	0.70000	  0	 15	 47	 38	  1	
12-May-2013	sub2345	2345	  1	  0	 36	  5	  1	  4	  2	  6	  1	  2	  1	0.69170	  1	0.70000	  0	 14	 32	 33	  0	
12-May-2013	sub2345	2345	  1	  0	 37	  5	  1	  6	  4	  2	  0	  1	  1	0.38358	  0	0.70000	  0	 16	 47	 38	  1	
12-May-2013	sub2345	2345	  1	  0	 38	  5	  1	  5	  1	  1	  0	  2	  1	0.51870	  0	0.70000	  0	 15	 47	 38	  0	
12-May-2013	sub2345	2345	  1	  0	 39	  5	  1	  3	  5	  3	  0	  1	  0	0.51175	  1	0.70000	  0	 13	 34	 49	  0	
12-May-2013	sub2345	2345	  1	  0	 40	  5	  1	  5	  1	  1	  1	  1	  1	0.50780	  1	0.70000	  0	 15	 35	 36	  0	
12-May-2013	sub2345	2345	  1	  0	 41	  5	  1	  6	  4	  2	  0	  2	  0	0.52098	  1	0.60000	  0	 16	 37	 48	  0	
12-May-2013	sub2345	2345	  1	  0	 42	  5	  1	  3	  5	  3	  1	  1	  1	0.49611	  1	0.60000	  0	 13	 32	 33	  1	
12-May-2013	sub2345	2345	  1	  0	 43	  5	  1	  4	  2	  6	  1	  1	  0	0.42808	  0	0.60000	  0	 14	 42	 43	  1	
12-May-2013	sub2345	2345	  1	  0	 44	  5	  1	  3	  5	  3	  1	  2	  0	0.40512	  0	0.60000	  0	 13	 42	 43	  1	
12-May-2013	sub2345	2345	  1	  0	 45	  5	  1	  5	  1	  1	  0	  1	  0	0.39430	  1	0.60000	  0	 15	 37	 48	  1	
12-May-2013	sub2345	2345	  1	  0	 46	  5	  1	  6	  4	  2	  0	  2	  0	0.43525	  1	0.60000	  0	 16	 37	 48	  1	
12-May-2013	sub2345	2345	  1	  0	 47	  5	  1	  3	  5	  3	  1	  1	  1	0.45126	  1	0.60000	  0	 13	 32	 33	  1	
12-May-2013	sub2345	2345	  1	  0	 48	  5	  1	  1	  3	  6	  1	  1	  1	0.37316	  1	0.60000	  0	 11	 30	 31	  1	
12-May-2013	sub2345	2345	  1	  0	 49	  5	  1	  2	  6	  3	  1	  1	  0	0.39823	  0	0.60000	  0	 12	 40	 41	  1	
12-May-2013	sub2345	2345	  1	  0	 50	  5	  1	  4	  2	  6	  1	  1	  0	0.49206	  0	0.60000	  0	 14	 42	 43	  1	
12-May-2013	sub2345	2345	  1	  0	 51	  5	  1	  6	  4	  2	  0	  2	  0	0.56593	  1	0.50000	  1	 16	 37	 51	  0	
12-May-2013	sub2345	2345	  1	  0	 52	  5	  1	  2	  6	  3	  1	  2	  1	0.51396	  1	0.70000	  0	 12	 30	 31	  0	
12-May-2013	sub2345	2345	  1	  0	 53	  5	  1	  1	  3	  6	  1	  1	  1	0.50592	  1	0.70000	  0	 11	 30	 31	  0	
12-May-2013	sub2345	2345	  1	  0	 54	  5	  1	  1	  3	  6	  1	  1	  1	0.34667	  1	0.70000	  0	 11	 30	 31	  1	
12-May-2013	sub2345	2345	  1	  0	 55	  5	  1	  2	  6	  3	  1	  1	  0	0.39736	  0	0.70000	  0	 12	 40	 41	  1	
12-May-2013	sub2345	2345	  1	  0	 56	  5	  1	  5	  1	  1	  1	  2	  0	0.51269	  0	0.70000	  0	 15	 45	 46	  0	
12-May-2013	sub2345	2345	  1	  0	 57	  5	  1	  3	  5	  3	  1	  1	  1	0.44378	  1	0.70000	  0	 13	 32	 33	  1	
12-May-2013	sub2345	2345	  1	  0	 58	  5	  1	  2	  6	  3	  1	  1	  0	0.48950	  0	0.70000	  0	 12	 40	 41	  1	
12-May-2013	sub2345	2345	  1	  0	 59	  5	  1	  3	  5	  3	  1	  1	  1	0.43558	  1	0.70000	  0	 13	 32	 33	  1	
12-May-2013	sub2345	2345	  1	  0	 60	  5	  1	  6	  4	  2	  1	  1	  0	0.45135	  0	0.70000	  0	 16	 45	 46	  1	
12-May-2013	sub2345	2345	  1	  0	 61	  5	  1	  1	  3	  6	  1	  1	  1	0.57620	  1	0.60000	  0	 11	 30	 31	  0	
12-May-2013	sub2345	2345	  1	  0	 62	  5	  1	  4	  2	  6	  1	  1	  0	0.42022	  0	0.60000	  0	 14	 42	 43	  1	
12-May-2013	sub2345	2345	  1	  0	 63	  5	  1	  2	  6	  3	  1	  2	  1	0.43657	  1	0.60000	  0	 12	 30	 31	  1	
12-May-2013	sub2345	2345	  1	  0	 64	  5	  1	  2	  6	  3	  1	  2	  1	0.37865	  1	0.60000	  0	 12	 30	 31	  1	
12-May-2013	sub2345	2345	  1	  0	 65	  5	  1	  3	  5	  3	  0	  2	  1	0.46175	  0	0.60000	  0	 13	 44	 39	  1	
12-May-2013	sub2345	2345	  1	  0	 66	  5	  1	  5	  1	  1	  0	  2	  1	0.46658	  0	0.60000	  0	 15	 47	 38	  1	
12-May-2013	sub2345	2345	  1	  0	 67	  5	  1	  4	  2	  6	  1	  1	  0	0.60027	  0	0.60000	  1	 14	 42	 51	  0	
12-May-2013	sub2345	2345	  1	  0	 68	  5	  1	  2	  6	  3	  1	  2	  1	0.42260	  1	0.70000	  0	 12	 30	 31	  1	
12-May-2013	sub2345	2345	  1	  0	 69	  5	  1	  6	  4	  2	  0	  2	  0	0.61894	  1	0.70000	  0	 16	 37	 48	  0	
12-May-2013	sub2345	2345	  1	  0	 70	  5	  1	  4	  2	  6	  0	  1	  1	0.38037	  0	0.70000	  0	 14	 44	 39	  1	
12-May-2013	sub2345	2345	  1	  0	 71	  5	  1	  5	  1	  1	  1	  2	  0	0.53045	  0	0.70000	  0	 15	 45	 46	  0	
12-May-2013	sub2345	2345	  1	  0	 72	  5	  1	  5	  1	  1	  1	  1	  1	0.46634	  1	0.70000	  0	 15	 35	 36	  1	
12-May-2013	sub2345	2345	  1	  0	 73	  5	  1	  5	  1	  1	  1	  1	  1	0.55527	  1	0.70000	  0	 15	 35	 36	  0	
12-May-2013	sub2345	2345	  1	  0	 74	  5	  1	  3	  5	  3	  1	  2	  0	0.48993	  0	0.70000	  0	 13	 42	 43	  1	
12-May-2013	sub2345	2345	  1	  0	 75	  5	  1	  4	  2	  6	  0	  1	  1	0.55792	  0	0.70000	  0	 14	 44	 39	  0	
12-May-2013	sub2345	2345	  1	  0	 76	  5	  2	  4	  2	  6	  1	  1	  0	0.43082	  0	0.70000	  0	 24	 82	 83	  1	
12-May-2013	sub2345	2345	  1	  0	 77	  5	  2	  3	  5	  3	  1	  1	  1	0.43380	  1	0.70000	  0	 23	 62	 63	  1	
12-May-2013	sub2345	2345	  1	  0	 78	  5	  2	  1	  3	  6	  1	  2	  0	0.44595	  0	0.70000	  0	 21	 80	 81	  1	
12-May-2013	sub2345	2345	  1	  0	 79	  5	  2	  3	  5	  3	  1	  1	  1	0.57910	  1	0.70000	  0	 23	 62	 63	  0	
12-May-2013	sub2345	2345	  1	  0	 80	  5	  2	  5	  1	  1	  0	  1	  0	0.46475	  1	0.70000	  0	 25	 67	 88	  1	
12-May-2013	sub2345	2345	  1	  0	 81	  5	  2	  5	  1	  1	  0	  2	  1	0.40335	  0	0.60000	  0	 25	 87	 68	  1	
12-May-2013	sub2345	2345	  1	  0	 82	  5	  2	  2	  6	  3	  1	  2	  1	0.53568	  1	0.60000	  0	 22	 60	 61	  0	
12-May-2013	sub2345	2345	  1	  0	 83	  5	  2	  6	  4	  2	  0	  2	  0	0.54089	  1	0.60000	  0	 26	 67	 88	  0	
12-May-2013	sub2345	2345	  1	  0	 84	  5	  2	  1	  3	  6	  1	  1	  1	0.46270	  1	0.60000	  0	 21	 60	 61	  1	
12-May-2013	sub2345	2345	  1	  0	 85	  5	  2	  6	  4	  2	  0	  1	  1	0.50123	  0	0.60000	  0	 26	 87	 68	  0	
12-May-2013	sub2345	2345	  1	  0	 86	  5	  2	  5	  1	  1	  0	  2	  1	0.50927	  0	0.60000	  0	 25	 87	 68	  0	
12-May-2013	sub2345	2345	  1	  0	 87	  5	  2	  5	  1	  1	  0	  2	  1	0.42563	  0	0.60000	  0	 25	 87	 68	  1	
12-May-2013	sub2345	2345	  1	  0	 88	  5	  2	  5	  1	  1	  0	  1	  0	0.39514	  1	0.60000	  0	 25	 67	 88	  1	
12-May-2013	sub2345	2345	  1	  0	 89	  5	  2	  4	  2	  6	  1	  2	  1	0.59068	  1	0.60000	  0	 24	 62	 63	  0	
12-May-2013	sub2345	2345	  1	  0	 90	  5	  2	  4	  2	  6	  0	  2	  0	0.42039	  1	0.60000	  0	 24	 64	 89	  1	
12-May-2013	sub2345	2345	  1	  0	 91	  5	  2	  4	  2	  6	  1	  1	  0	0.36247	  0	0.60000	  0	 24	 82	 83	  1	
12-May-2013	sub2345	2345	  1	  0	 92	  5	  2	  6	  4	  2	  1	  2	  1	0.33850	  1	0.60000	  0	 26	 65	 66	  1	
12-May-2013	sub2345	2345	  1	  0	 93	  5	  2	  4	  2	  6	  1	  2	  1	0.44909	  1	0.60000	  0	 24	 62	 63	  1	
12-May-2013	sub2345	2345	  1	  0	 94	  5	  2	  1	  3	  6	  1	  1	  1	0.50685	  1	0.60000	  0	 21	 60	 61	  0	
12-May-2013	sub2345	2345	  1	  0	 95	  5	  2	  1	  3	  6	  1	  1	  1	0.36522	  1	0.60000	  0	 21	 60	 61	  1	
12-May-2013	sub2345	2345	  1	  0	 96	  5	  2	  3	  5	  3	  1	  1	  1	0.47319	  1	0.60000	  0	 23	 62	 63	  1	
12-May-2013	sub2345	2345	  1	  0	 97	  5	  2	  4	  2	  6	  1	  2	  1	0.41892	  1	0.60000	  0	 24	 62	 63	  1	
12-May-2013	sub2345	2345	  1	  0	 98	  5	  2	  1	  3	  6	  1	  1	  1	0.43839	  1	0.60000	  0	 21	 60	 61	  1	
12-May-2013	sub2345	2345	  1	  0	 99	  5	  2	  6	  4	  2	  0	  2	  0	0.48576	  1	0.60000	  0	 26	 67	 88	  1	
12-May-2013	sub2345	2345	  1	  0	100	  5	  2	  2	  6	  3	  1	  2	  1	0.51443	  1	0.60000	  0	 22	 60	 61	  0	
12-May-2013	sub2345	2345	  1	  0	101	  5	  2	  1	  3	  6	  1	  2	  0	0.39879	  0	0.50000	  0	 21	 80	 81	  1	
12-May-2013	sub2345	2345	  1	  0	102	  5	  2	  2	  6	  3	  1	  1	  0	0.37339	  0	0.50000	  0	 22	 80	 81	  1	
12-May-2013	sub2345	2345	  1	  0	103	  5	  2	  5	  1	  1	  0	  2	  1	0.46872	  0	0.50000	  0	 25	 87	 68	  1	
12-May-2013	sub2345	2345	  1	  0	104	  5	  2	  6	  4	  2	  1	  2	  1	0.41182	  1	0.50000	  0	 26	 65	 66	  1	
12-May-2013	sub2345	2345	  1	  0	105	  5	  2	  2	  6	  3	  1	  1	  0	0.41494	  0	0.50000	  0	 22	 80	 81	  1	
12-May-2013	sub2345	2345	  1	  0	106	  5	  2	  6	  4	  2	  0	  2	  0	0.44566	  1	0.50000	  0	 26	 67	 88	  1	
12-May-2013	sub2345	2345	  1	  0	107	  5	  2	  4	  2	  6	  1	  1	  0	0.47628	  0	0.50000	  0	 24	 82	 83	  1	
12-May-2013	sub2345	2345	  1	  0	108	  5	  2	  2	  6	  3	  1	  2	  1	0.39297	  1	0.50000	  0	 22	 60	 61	  1	
12-May-2013	sub2345	2345	  1	  0	109	  5	  2	  2	  6	  3	  1	  2	  1	0.38089	  1	0.50000	  0	 22	 60	 61	  1	
12-May-2013	sub2345	2345	  1	  0	110	  5	  2	  6	  4	  2	  0	  2	  0	0.48725	  1	0.50000	  0	 26	 67	 88	  1	
12-May-2013	sub2345	2345	  1	  0	111	  5	  2	  4	  2	  6	  1	  1	  0	0.52044	  0	0.50000	  1	 24	 82	 51	  0	
12-May-2013	sub2345	2345	  1	  0	112	  5	  2	  3	  5	  3	  0	  2	  1	0.48905	  0	0.60000	  0	 23	 84	 69	  1	
12-May-2013	sub2345	2345	  1	  0	113	  5	  2	  1	  3	  6	  1	  1	  1	0.50116	  1	0.60000	  0	 21	 60	 61	  0	
12-May-2013	sub2345	2345	  1	  0	114	  5	  2	  3	  5	  3	  1	  2	  0	0.48457	  0	0.60000	  0	 23	 82	 83	  1	
12-May-2013	sub2345	2345	  1	  0	115	  5	  2	  2	  6	  3	  1	  1	  0	0.39358	  0	0.60000	  0	 22	 80	 81	  1	
12-May-2013	sub2345	2345	  1	  0	116	  5	  2	  1	  3	  6	  1	  2	  0	0.40191	  0	0.60000	  0	 21	 80	 81	  1	
12-May-2013	sub2345	2345	  1	  0	117	  5	  2	  1	  3	  6	  1	  1	  1	0.33809	  1	0.60000	  0	 21	 60	 61	  1	
12-May-2013	sub2345	2345	  1	  0	118	  5	  2	  2	  6	  3	  1	  1	  0	0.40592	  0	0.60000	  0	 22	 80	 81	  1	
12-May-2013	sub2345	2345	  1	  0	119	  5	  2	  6	  4	  2	  0	  2	  0	0.43682	  1	0.60000	  0	 26	 67	 88	  1	
12-May-2013	sub2345	2345	  1	  0	120	  5	  2	  3	  5	  3	  1	  2	  0	0.61633	  0	0.60000	  1	 23	 82	 51	  0	
12-May-2013	sub2345	2345	  1	  0	121	  5	  2	  1	  3	  6	  1	  1	  1	0.43438	  1	0.60000	  0	 21	 60	 61	  1	
12-May-2013	sub2345	2345	  1	  0	122	  5	  2	  4	  2	  6	  0	  2	  0	0.53675	  1	0.60000	  0	 24	 64	 89	  0	
12-May-2013	sub2345	2345	  1	  0	123	  5	  2	  5	  1	  1	  0	  2	  1	0.55945	  0	0.60000	  0	 25	 87	 68	  0	
12-May-2013	sub2345	2345	  1	  0	124	  5	  2	  3	  5	  3	  1	  2	  0	0.51732	  0	0.60000	  0	 23	 82	 83	  0	
12-May-2013	sub2345	2345	  1	  0	125	  5	  2	  2	  6	  3	  1	  1	  0	0.49813	  0	0.60000	  0	 22	 80	 81	  1	
12-May-2013	sub2345	2345	  1	  0	126	  5	  2	  4	  2	  6	  1	  2	  1	0.46265	  1	0.60000	  0	 24	 62	 63	  1	
12-May-2013	sub2345	2345	  1	  0	127	  5	  2	  5	  1	  1	  0	  2	  1	0.52222	  0	0.60000	  0	 25	 87	 68	  0	
12-May-2013	sub2345	2345	  1	  0	128	  5	  2	  2	  6	  3	  1	  1	  0	0.50184	  0	0.60000	  0	 22	 80	 81	  0	
12-May-2013	sub2345	2345	  1	  0	129	  5	  2	  1	  3	  6	  1	  1	  1	0.56031	  1	0.60000	  0	 21	 60	 61	  0	
12-May-2013	sub2345	2345	  1	  0	130	  5	  2	  2	  6	  3	  1	  2	  1	0.35416	  1	0.60000	  0	 22	 60	 61	  1	
12-May-2013	sub2345	2345	  1	  0	131	  5	  2	  4	  2	  6	  1	  2	  1	0.48503	  1	0.60000	  0	 24	 62	 63	  1	
12-May-2013	sub2345	2345	  1	  0	132	  5	  2	  4	  2	  6	  0	  2	  0	0.40702	  1	0.60000	  0	 24	 64	 89	  1	
12-May-2013	sub2345	2345	  1	  0	133	  5	  2	  3	  5	  3	  0	  2	  1	0.58840	  0	0.60000	  0	 23	 84	 69	  0	
12-May-2013	sub2345	2345	  1	  0	134	  5	  2	  5	  1	  1	  0	  2	  1	0.47131	  0	0.60000	  0	 25	 87	 68	  1	
12-May-2013	sub2345	2345	  1	  0	135	  5	  2	  1	  3	  6	  1	  2	  0	0.37620	  0	0.60000	  0	 21	 80	 81	  1	
12-May-2013	sub2345	2345	  1	  0	136	  5	  2	  5	  1	  1	  0	  2	  1	0.43470	  0	0.60000	  0	 25	 87	 68	  1	
12-May-2013	sub2345	2345	  1	  0	137	  5	  2	  5	  1	  1	  0	  2	  1	0.57499	  0	0.60000	  0	 25	 87	 68	  0	
12-May-2013	sub2345	2345	  1	  0	138	  5	  2	  3	  5	  3	  1	  2	  0	0.52815	  0	0.60000	  0	 23	 82	 83	  0	
12-May-2013	sub2345	2345	  1	  0	139	  5	  2	  6	  4	  2	  1	  2	  1	0.47533	  1	0.60000	  0	 26	 65	 66	  1	
12-May-2013	sub2345	2345	  1	  0	140	  5	  2	  6	  4	  2	  1	  2	  1	0.39339	  1	0.60000	  0	 26	 65	 66	  1	
12-May-2013	sub2345	2345	  1	  0	141	  5	  2	  3	  5	  3	  1	  2	  0	0.42335	  0	0.60000	  0	 23	 82	 83	  1	
12-May-2013	sub2345	2345	  1	  0	142	  5	  2	  5	  1	  1	  0	  2	  1	0.42251	  0	0.60000	  0	 25	 87	 68	  1	
12-May-2013	sub2345	2345	  1	  0	143	  5	  2	  6	  4	  2	  1	  2	  1	0.38267	  1	0.60000	  0	 26	 65	 66	  1	
12-May-2013	sub2345	2345	  1	  0	144	  5	  2	  4	  2	  6	  1	  2	  1	0.44355	  1	0.60000	  0	 24	 62	 63	  1	
12-May-2013	sub2345	2345	  1	  0	145	  5	  2	  3	  5	  3	  1	  2	  0	0.38992	  0	0.60000	  0	 23	 82	 83	  1	
12-May-2013	sub2345	2345	  1	  0	146	  5	  2	  5	  1	  1	  0	  2	  1	0.45329	  0	0.60000	  0	 25	 87	 68	  1	
12-May-2013	sub2345	2345	  1	  0	147	  5	  2	  1	  3	  6	  1	  2	  0	0.39556	  0	0.60000	  0	 21	 80	 81	  1	
12-May-2013	sub2345	2345	  1	  0	148	  5	  2	  2	  6	  3	  1	  1	  0	0.46341	  0	0.60000	  0	 22	 80	 81	  1	
12-May-2013	sub2345	2345	  1	  0	149	  5	  2	  3	  5	  3	  1	  2	  0	0.48857	  0	0.60000	  0	 23	 82	 83	  1	
12-May-2013	sub2345	2345	  1	  0	150	  5	  2	  6	  4	  2	  1	  2	  1	0.55617	  1	0.60000	  0	 26	 65	 66	  0	
12-May-2013	sub2345	2345	  1	  0	  1	  6	  1	  5	  6	  6	  1	  1	  1	0.21965	  1	0.60000	  0	 15	 35	 36	  1	
12-May-2013	sub2345	2345	  1	  0	  2	  6	  1	  5	  6	  6	  0	  1	  0	0.38462	  1	0.30000	  1	 15	 37	 51	  1	
12-May-2013	sub2345	2345	  1	  0	  3	  6	  1	  2	  5	  6	  1	  1	  0	0.00009	  0	0.90000	  0	 12	 40	 41	  1	
12-May-2013	sub2345	2345	  1	  0	  4	  6	  1	  3	  1	  4	  1	  1	  1	0.36536	  1	0.90000	  0	 13	 32	 33	  1	
12-May-2013	sub2345	2345	  1	  0	  5	  6	  1	  4	  4	  5	  1	  1	  0	0.45899	  0	0.90000	  0	 14	 42	 43	  1	
12-May-2013	sub2345	2345	  1	  0	  6	  6	  1	  6	  3	  4	  1	  2	  1	0.44632	  1	0.90000	  0	 16	 35	 36	  1	
12-May-2013	sub2345	2345	  1	  0	  7	  6	  1	  4	  4	  5	  0	  2	  0	0.42030	  1	0.90000	  0	 14	 34	 49	  1	
12-May-2013	sub2345	2345	  1	  0	  8	  6	  1	  6	  3	  4	  1	  2	  1	0.37055	  1	0.90000	  0	 16	 35	 36	  1	
12-May-2013	sub2345	2345	  1	  0	  9	  6	  1	  1	  2	  4	  1	  2	  0	0.44679	  0	0.90000	  0	 11	 40	 41	  1	
12-May-2013	sub2345	2345	  1	  0	 10	  6	  1	  1	  2	  4	  1	  1	  1	0.46195	  1	0.90000	  0	 11	 30	 31	  1	
12-May-2013	sub2345	2345	  1	  0	 11	  6	  1	  4	  4	  5	  1	  1	  0	0.48375	  0	0.90000	  0	 14	 42	 43	  1	
12-May-2013	sub2345	2345	  1	  0	 12	  6	  1	  2	  5	  6	  1	  2	  1	0.46695	  1	0.90000	  0	 12	 30	 31	  1	
12-May-2013	sub2345	2345	  1	  0	 13	  6	  1	  3	  1	  4	  0	  1	  0	0.43620	  1	0.90000	  0	 13	 34	 49	  1	
12-May-2013	sub2345	2345	  1	  0	 14	  6	  1	  5	  6	  6	  0	  2	  1	0.47999	  0	0.90000	  0	 15	 47	 38	  1	
12-May-2013	sub2345	2345	  1	  0	 15	  6	  1	  6	  3	  4	  0	  2	  0	0.43840	  1	0.90000	  0	 16	 37	 48	  1	
12-May-2013	sub2345	2345	  1	  0	 16	  6	  1	  4	  4	  5	  1	  1	  0	0.36668	  0	0.80000	  0	 14	 42	 43	  1	
12-May-2013	sub2345	2345	  1	  0	 17	  6	  1	  3	  1	  4	  1	  2	  0	0.40292	  0	0.80000	  0	 13	 42	 43	  1	
12-May-2013	sub2345	2345	  1	  0	 18	  6	  1	  2	  5	  6	  1	  2	  1	0.46618	  1	0.70000	  0	 12	 30	 31	  1	
12-May-2013	sub2345	2345	  1	  0	 19	  6	  1	  6	  3	  4	  1	  2	  1	0.46684	  1	0.70000	  0	 16	 35	 36	  1	
12-May-2013	sub2345	2345	  1	  0	 20	  6	  1	  6	  3	  4	  0	  2	  0	0.36599	  1	0.70000	  0	 16	 37	 48	  1	
12-May-2013	sub2345	2345	  1	  0	 21	  6	  1	  6	  3	  4	  1	  1	  0	0.41168	  0	0.60000	  0	 16	 45	 46	  1	
12-May-2013	sub2345	2345	  1	  0	 22	  6	  1	  1	  2	  4	  1	  2	  0	0.57528	  0	0.60000	  0	 11	 40	 41	  0	
12-May-2013	sub2345	2345	  1	  0	 23	  6	  1	  4	  4	  5	  0	  1	  1	0.39601	  0	0.60000	  0	 14	 44	 39	  1	
12-May-2013	sub2345	2345	  1	  0	 24	  6	  1	  6	  3	  4	  0	  2	  0	0.47752	  1	0.60000	  0	 16	 37	 48	  1	
12-May-2013	sub2345	2345	  1	  0	 25	  6	  1	  2	  5	  6	  1	  2	  1	0.46694	  1	0.60000	  0	 12	 30	 31	  1	
12-May-2013	sub2345	2345	  1	  0	 26	  6	  1	  3	  1	  4	  1	  1	  1	0.46331	  1	0.50000	  0	 13	 32	 33	  1	
12-May-2013	sub2345	2345	  1	  0	 27	  6	  1	  4	  4	  5	  1	  2	  1	0.34496	  1	0.50000	  0	 14	 32	 33	  1	
12-May-2013	sub2345	2345	  1	  0	 28	  6	  1	  6	  3	  4	  1	  2	  1	0.39257	  1	0.50000	  0	 16	 35	 36	  1	
12-May-2013	sub2345	2345	  1	  0	 29	  6	  1	  2	  5	  6	  1	  1	  0	0.46132	  0	0.50000	  0	 12	 40	 41	  1	
12-May-2013	sub2345	2345	  1	  0	 30	  6	  1	  1	  2	  4	  1	  2	  0	0.47130	  0	0.50000	  0	 11	 40	 41	  1	
12-May-2013	sub2345	2345	  1	  0	 31	  6	  1	  3	  1	  4	  1	  2	  0	0.43404	  0	0.50000	  0	 13	 42	 43	  1	
12-May-2013	sub2345	2345	  1	  0	 32	  6	  1	  3	  1	  4	  0	  2	  1	0.35703	  0	0.50000	  0	 13	 44	 39	  1	
12-May-2013	sub2345	2345	  1	  0	 33	  6	  1	  3	  1	  4	  1	  2	  0	0.46950	  0	0.50000	  0	 13	 42	 43	  1	
12-May-2013	sub2345	2345	  1	  0	 34	  6	  1	  3	  1	  4	  1	  2	  0	0.40131	  0	0.50000	  0	 13	 42	 43	  1	
12-May-2013	sub2345	2345	  1	  0	 35	  6	  1	  5	  6	  6	  0	  1	  0	0.55504	  1	0.40000	  1	 15	 37	 51	  0	
12-May-2013	sub2345	2345	  1	  0	 36	  6	  1	  1	  2	  4	  1	  1	  1	0.43450	  1	0.70000	  0	 11	 30	 31	  1	
12-May-2013	sub2345	2345	  1	  0	 37	  6	  1	  5	  6	  6	  1	  1	  1	0.43233	  1	0.70000	  0	 15	 35	 36	  1	
12-May-2013	sub2345	2345	  1	  0	 38	  6	  1	  4	  4	  5	  1	  1	  0	0.47534	  0	0.70000	  0	 14	 42	 43	  1	
12-May-2013	sub2345	2345	  1	  0	 39	  6	  1	  4	  4	  5	  1	  2	  1	0.37213	  1	0.70000	  0	 14	 32	 33	  1	
12-May-2013	sub2345	2345	  1	  0	 40	  6	  1	  1	  2	  4	  1	  2	  0	0.60902	  0	0.70000	  0	 11	 40	 41	  0	
12-May-2013	sub2345	2345	  1	  0	 41	  6	  1	  5	  6	  6	  1	  1	  1	0.48313	  1	0.60000	  0	 15	 35	 36	  1	
12-May-2013	sub2345	2345	  1	  0	 42	  6	  1	  4	  4	  5	  1	  1	  0	0.32042	  0	0.60000	  0	 14	 42	 43	  1	
12-May-2013	sub2345	2345	  1	  0	 43	  6	  1	  5	  6	  6	  1	  1	  1	0.49198	  1	0.60000	  0	 15	 35	 36	  1	
12-May-2013	sub2345	2345	  1	  0	 44	  6	  1	  3	  1	  4	  1	  1	  1	0.45403	  1	0.60000	  0	 13	 32	 33	  1	
12-May-2013	sub2345	2345	  1	  0	 45	  6	  1	  3	  1	  4	  1	  1	  1	0.50947	  1	0.60000	  0	 13	 32	 33	  0	
12-May-2013	sub2345	2345	  1	  0	 46	  6	  1	  4	  4	  5	  1	  1	  0	0.44325	  0	0.60000	  0	 14	 42	 43	  1	
12-May-2013	sub2345	2345	  1	  0	 47	  6	  1	  2	  5	  6	  1	  1	  0	0.45828	  0	0.60000	  0	 12	 40	 41	  1	
12-May-2013	sub2345	2345	  1	  0	 48	  6	  1	  1	  2	  4	  1	  2	  0	0.49134	  0	0.60000	  0	 11	 40	 41	  1	
12-May-2013	sub2345	2345	  1	  0	 49	  6	  1	  2	  5	  6	  1	  2	  1	0.46221	  1	0.60000	  0	 12	 30	 31	  1	
12-May-2013	sub2345	2345	  1	  0	 50	  6	  1	  2	  5	  6	  1	  2	  1	0.41145	  1	0.60000	  0	 12	 30	 31	  1	
12-May-2013	sub2345	2345	  1	  0	 51	  6	  1	  6	  3	  4	  0	  2	  0	0.72610	  1	0.50000	  1	 16	 37	 51	  0	
12-May-2013	sub2345	2345	  1	  0	 52	  6	  1	  2	  5	  6	  1	  2	  1	0.46541	  1	0.70000	  0	 12	 30	 31	  1	
12-May-2013	sub2345	2345	  1	  0	 53	  6	  1	  2	  5	  6	  1	  2	  1	0.44888	  1	0.70000	  0	 12	 30	 31	  1	
12-May-2013	sub2345	2345	  1	  0	 54	  6	  1	  1	  2	  4	  1	  2	  0	0.49124	  0	0.70000	  0	 11	 40	 41	  1	
12-May-2013	sub2345	2345	  1	  0	 55	  6	  1	  4	  4	  5	  1	  1	  0	0.58081	  0	0.70000	  0	 14	 42	 43	  0	
12-May-2013	sub2345	2345	  1	  0	 56	  6	  1	  1	  2	  4	  1	  2	  0	0.45125	  0	0.70000	  0	 11	 40	 41	  1	
12-May-2013	sub2345	2345	  1	  0	 57	  6	  1	  1	  2	  4	  1	  2	  0	0.52286	  0	0.70000	  0	 11	 40	 41	  0	
12-May-2013	sub2345	2345	  1	  0	 58	  6	  1	  5	  6	  6	  1	  1	  1	0.46794	  1	0.70000	  0	 15	 35	 36	  1	
12-May-2013	sub2345	2345	  1	  0	 59	  6	  1	  4	  4	  5	  1	  1	  0	0.47880	  0	0.70000	  0	 14	 42	 43	  1	
12-May-2013	sub2345	2345	  1	  0	 60	  6	  1	  6	  3	  4	  0	  2	  0	0.42627	  1	0.70000	  0	 16	 37	 48	  1	
12-May-2013	sub2345	2345	  1	  0	 61	  6	  1	  3	  1	  4	  0	  1	  0	0.61219	  1	0.60000	  1	 13	 34	 51	  0	
12-May-2013	sub2345	2345	  1	  0	 62	  6	  1	  5	  6	  6	  1	  2	  0	0.50116	  0	0.80000	  0	 15	 45	 46	  0	
12-May-2013	sub2345	2345	  1	  0	 63	  6	  1	  5	  6	  6	  1	  1	  1	0.38809	  1	0.80000	  0	 15	 35	 36	  1	
12-May-2013	sub2345	2345	  1	  0	 64	  6	  1	  5	  6	  6	  0	  1	  0	0.41024	  1	0.80000	  0	 15	 37	 48	  1	
12-May-2013	sub2345	2345	  1	  0	 65	  6	  1	  6	  3	  4	  1	  2	  1	0.54114	  1	0.80000	  0	 16	 35	 36	  0	
12-May-2013	sub2345	2345	  1	  0	 66	  6	  1	  6	  3	  4	  0	  2	  0	0.43037	  1	0.80000	  0	 16	 37	 48	  1	
12-May-2013	sub2345	2345	  1	  0	 67	  6	  1	  1	  2	  4	  1	  2	  0	0.43974	  0	0.80000	  0	 11	 40	 41	  1	
12-May-2013	sub2345	2345	  1	  0	 68	  6	  1	  2	  5	  6	  1	  2	  1	0.45733	  1	0.70000	  0	 12	 30	 31	  1	
12-May-2013	sub2345	2345	  1	  0	 69	  6	  1	  3	  1	  4	  1	  2	  0	0.39065	  0	0.70000	  0	 13	 42	 43	  1	
12-May-2013	sub2345	2345	  1	  0	 70	  6	  1	  2	  5	  6	  1	  2	  1	0.40723	  1	0.70000	  0	 12	 30	 31	  1	
12-May-2013	sub2345	2345	  1	  0	 71	  6	  1	  1	  2	  4	  1	  2	  0	0.57526	  0	0.70000	  0	 11	 40	 41	  0	
12-May-2013	sub2345	2345	  1	  0	 72	  6	  1	  6	  3	  4	  0	  2	  0	0.58709	  1	0.70000	  0	 16	 37	 48	  0	
12-May-2013	sub2345	2345	  1	  0	 73	  6	  1	  2	  5	  6	  1	  2	  1	0.44971	  1	0.70000	  0	 12	 30	 31	  1	
12-May-2013	sub2345	2345	  1	  0	 74	  6	  1	  3	  1	  4	  1	  1	  1	0.35269	  1	0.70000	  0	 13	 32	 33	  1	
12-May-2013	sub2345	2345	  1	  0	 75	  6	  1	  5	  6	  6	  0	  2	  1	0.46660	  0	0.70000	  0	 15	 47	 38	  1	
12-May-2013	sub2345	2345	  1	  0	 76	  6	  2	  4	  4	  5	  1	  1	  0	0.46566	  0	0.70000	  0	 24	 82	 83	  1	
12-May-2013	sub2345	2345	  1	  0	 77	  6	  2	  1	  2	  4	  1	  2	  0	0.42589	  0	0.70000	  0	 21	 80	 81	  1	
12-May-2013	sub2345	2345	  1	  0	 78	  6	  2	  5	  6	  6	  0	  1	  0	0.47514	  1	0.70000	  0	 25	 67	 88	  1	
12-May-2013	sub2345	2345	  1	  0	 79	  6	  2	  1	  2	  4	  1	  1	  1	0.44072	  1	0.70000	  0	 21	 60	 61	  1	
12-May-2013	sub2345	2345	  1	  0	 80	  6	  2	  4	  4	  5	  1	  2	  1	0.59298	  1	0.70000	  0	 24	 62	 63	  0	
12-May-2013	sub2345	2345	  1	  0	 81	  6	  2	  5	  6	  6	  0	  1	  0	0.66070	  1	0.60000	  1	 25	 67	 51	  0	
12-May-2013	sub2345	2345	  1	  0	 82	  6	  2	  3	  1	  4	  1	  2	  0	0.53816	  0	0.80000	  0	 23	 82	 83	  0	
12-May-2013	sub2345	2345	  1	  0	 83	  6	  2	  4	  4	  5	  1	  1	  0	0.38700	  0	0.80000	  0	 24	 82	 83	  1	
12-May-2013	sub2345	2345	  1	  0	 84	  6	  2	  6	  3	  4	  0	  2	  0	0.48018	  1	0.80000	  0	 26	 67	 88	  1	
12-May-2013	sub2345	2345	  1	  0	 85	  6	  2	  6	  3	  4	  1	  1	  0	0.36637	  0	0.70000	  0	 26	 85	 86	  1	
12-May-2013	sub2345	2345	  1	  0	 86	  6	  2	  4	  4	  5	  0	  2	  0	0.57593	  1	0.70000	  0	 24	 64	 89	  0	
12-May-2013	sub2345	2345	  1	  0	 87	  6	  2	  1	  2	  4	  1	  1	  1	0.57718	  1	0.70000	  0	 21	 60	 61	  0	
12-May-2013	sub2345	2345	  1	  0	 88	  6	  2	  3	  1	  4	  1	  2	  0	0.43563	  0	0.70000	  0	 23	 82	 83	  1	
12-May-2013	sub2345	2345	  1	  0	 89	  6	  2	  3	  1	  4	  1	  1	  1	0.52953	  1	0.70000	  0	 23	 62	 63	  0	
12-May-2013	sub2345	2345	  1	  0	 90	  6	  2	  5	  6	  6	  0	  2	  1	0.41917	  0	0.70000	  0	 25	 87	 68	  1	
12-May-2013	sub2345	2345	  1	  0	 91	  6	  2	  4	  4	  5	  1	  1	  0	0.41783	  0	0.70000	  0	 24	 82	 83	  1	
12-May-2013	sub2345	2345	  1	  0	 92	  6	  2	  6	  3	  4	  0	  2	  0	0.47016	  1	0.70000	  0	 26	 67	 88	  1	
12-May-2013	sub2345	2345	  1	  0	 93	  6	  2	  5	  6	  6	  0	  1	  0	0.45631	  1	0.70000	  0	 25	 67	 88	  1	
12-May-2013	sub2345	2345	  1	  0	 94	  6	  2	  1	  2	  4	  1	  1	  1	0.53004	  1	0.70000	  0	 21	 60	 61	  0	
12-May-2013	sub2345	2345	  1	  0	 95	  6	  2	  1	  2	  4	  1	  1	  1	0.45013	  1	0.70000	  0	 21	 60	 61	  1	
12-May-2013	sub2345	2345	  1	  0	 96	  6	  2	  3	  1	  4	  1	  1	  1	0.63139	  1	0.70000	  0	 23	 62	 63	  0	
12-May-2013	sub2345	2345	  1	  0	 97	  6	  2	  4	  4	  5	  1	  2	  1	0.35336	  1	0.70000	  0	 24	 62	 63	  1	
12-May-2013	sub2345	2345	  1	  0	 98	  6	  2	  1	  2	  4	  1	  2	  0	2.91566	  0	0.70000	  1	 21	 80	 51	  0	
12-May-2013	sub2345	2345	  1	  0	 99	  6	  2	  4	  4	  5	  1	  2	  1	0.57004	  1	0.80000	  0	 24	 62	 63	  0	
12-May-2013	sub2345	2345	  1	  0	100	  6	  2	  3	  1	  4	  1	  1	  1	0.42249	  1	0.80000	  0	 23	 62	 63	  1	
12-May-2013	sub2345	2345	  1	  0	101	  6	  2	  5	  6	  6	  0	  1	  0	0.46394	  1	0.70000	  0	 25	 67	 88	  1	
12-May-2013	sub2345	2345	  1	  0	102	  6	  2	  3	  1	  4	  1	  1	  1	0.41131	  1	0.70000	  0	 23	 62	 63	  1	
12-May-2013	sub2345	2345	  1	  0	103	  6	  2	  1	  2	  4	  1	  2	  0	0.35968	  0	0.70000	  0	 21	 80	 81	  1	
12-May-2013	sub2345	2345	  1	  0	104	  6	  2	  1	  2	  4	  1	  1	  1	0.55691	  1	0.70000	  0	 21	 60	 61	  0	
12-May-2013	sub2345	2345	  1	  0	105	  6	  2	  1	  2	  4	  1	  1	  1	0.37108	  1	0.70000	  0	 21	 60	 61	  1	
12-May-2013	sub2345	2345	  1	  0	106	  6	  2	  6	  3	  4	  1	  2	  1	0.42401	  1	0.70000	  0	 26	 65	 66	  1	
12-May-2013	sub2345	2345	  1	  0	107	  6	  2	  6	  3	  4	  0	  2	  0	0.41258	  1	0.70000	  0	 26	 67	 88	  1	
12-May-2013	sub2345	2345	  1	  0	108	  6	  2	  6	  3	  4	  0	  2	  0	0.36074	  1	0.70000	  0	 26	 67	 88	  1	
12-May-2013	sub2345	2345	  1	  0	109	  6	  2	  4	  4	  5	  1	  2	  1	0.52848	  1	0.70000	  0	 24	 62	 63	  0	
12-May-2013	sub2345	2345	  1	  0	110	  6	  2	  6	  3	  4	  1	  1	  0	0.37036	  0	0.70000	  0	 26	 85	 86	  1	
12-May-2013	sub2345	2345	  1	  0	111	  6	  2	  6	  3	  4	  0	  1	  1	0.39416	  0	0.70000	  0	 26	 87	 68	  1	
12-May-2013	sub2345	2345	  1	  0	112	  6	  2	  5	  6	  6	  0	  1	  0	0.54695	  1	0.70000	  0	 25	 67	 88	  0	
12-May-2013	sub2345	2345	  1	  0	113	  6	  2	  3	  1	  4	  1	  2	  0	0.54343	  0	0.70000	  0	 23	 82	 83	  0	
12-May-2013	sub2345	2345	  1	  0	114	  6	  2	  6	  3	  4	  1	  1	  0	1.17658	  0	0.70000	  1	 26	 85	 51	  0	
12-May-2013	sub2345	2345	  1	  0	115	  6	  2	  2	  5	  6	  1	  1	  0	0.60352	  0	0.80000	  0	 22	 80	 81	  0	
12-May-2013	sub2345	2345	  1	  0	116	  6	  2	  2	  5	  6	  1	  2	  1	0.40404	  1	0.80000	  0	 22	 60	 61	  1	
12-May-2013	sub2345	2345	  1	  0	117	  6	  2	  5	  6	  6	  0	  1	  0	0.45576	  1	0.80000	  0	 25	 67	 88	  1	
12-May-2013	sub2345	2345	  1	  0	118	  6	  2	  3	  1	  4	  1	  2	  0	0.52898	  0	0.70000	  0	 23	 82	 83	  0	
12-May-2013	sub2345	2345	  1	  0	119	  6	  2	  4	  4	  5	  1	  1	  0	0.40810	  0	0.70000	  0	 24	 82	 83	  1	
12-May-2013	sub2345	2345	  1	  0	120	  6	  2	  1	  2	  4	  1	  1	  1	0.71355	  1	0.70000	  1	 21	 60	 51	  0	
12-May-2013	sub2345	2345	  1	  0	121	  6	  2	  2	  5	  6	  1	  2	  1	0.52256	  1	0.80000	  0	 22	 60	 61	  0	
12-May-2013	sub2345	2345	  1	  0	122	  6	  2	  5	  6	  6	  0	  1	  0	0.46975	  1	0.80000	  0	 25	 67	 88	  1	
12-May-2013	sub2345	2345	  1	  0	123	  6	  2	  4	  4	  5	  0	  1	  1	0.34498	  0	0.80000	  0	 24	 84	 69	  1	
12-May-2013	sub2345	2345	  1	  0	124	  6	  2	  3	  1	  4	  1	  2	  0	0.50845	  0	0.80000	  0	 23	 82	 83	  0	
12-May-2013	sub2345	2345	  1	  0	125	  6	  2	  2	  5	  6	  1	  2	  1	0.53746	  1	0.80000	  0	 22	 60	 61	  0	
12-May-2013	sub2345	2345	  1	  0	126	  6	  2	  3	  1	  4	  0	  1	  0	0.62127	  1	0.80000	  0	 23	 64	 89	  0	
12-May-2013	sub2345	2345	  1	  0	127	  6	  2	  3	  1	  4	  1	  2	  0	0.48788	  0	0.80000	  0	 23	 82	 83	  1	
12-May-2013	sub2345	2345	  1	  0	128	  6	  2	  4	  4	  5	  1	  1	  0	0.43114	  0	0.80000	  0	 24	 82	 83	  1	
12-May-2013	sub2345	2345	  1	  0	129	  6	  2	  4	  4	  5	  0	  1	  1	0.40488	  0	0.80000	  0	 24	 84	 69	  1	
12-May-2013	sub2345	2345	  1	  0	130	  6	  2	  5	  6	  6	  0	  1	  0	0.44605	  1	0.80000	  0	 25	 67	 88	  1	
12-May-2013	sub2345	2345	  1	  0	131	  6	  2	  2	  5	  6	  1	  2	  1	0.46656	  1	0.80000	  0	 22	 60	 61	  1	
12-May-2013	sub2345	2345	  1	  0	132	  6	  2	  2	  5	  6	  1	  2	  1	0.38206	  1	0.80000	  0	 22	 60	 61	  1	
12-May-2013	sub2345	2345	  1	  0	133	  6	  2	  4	  4	  5	  1	  2	  1	0.53456	  1	0.80000	  0	 24	 62	 63	  0	
12-May-2013	sub2345	2345	  1	  0	134	  6	  2	  2	  5	  6	  1	  2	  1	0.44244	  1	0.80000	  0	 22	 60	 61	  1	
12-May-2013	sub2345	2345	  1	  0	135	  6	  2	  5	  6	  6	  0	  1	  0	0.37517	  1	0.70000	  0	 25	 67	 88	  1	
12-May-2013	sub2345	2345	  1	  0	136	  6	  2	  2	  5	  6	  1	  2	  1	0.40968	  1	0.70000	  0	 22	 60	 61	  1	
12-May-2013	sub2345	2345	  1	  0	137	  6	  2	  2	  5	  6	  1	  2	  1	0.50013	  1	0.70000	  0	 22	 60	 61	  1	
12-May-2013	sub2345	2345	  1	  0	138	  6	  2	  1	  2	  4	  1	  2	  0	0.50444	  0	0.70000	  0	 21	 80	 81	  0	
12-May-2013	sub2345	2345	  1	  0	139	  6	  2	  5	  6	  6	  0	  1	  0	0.45411	  1	0.70000	  0	 25	 67	 88	  1	
12-May-2013	sub2345	2345	  1	  0	140	  6	  2	  5	  6	  6	  0	  2	  1	1.90269	  0	0.70000	  1	 25	 87	 51	  0	
12-May-2013	sub2345	2345	  1	  0	141	  6	  2	  6	  3	  4	  1	  2	  1	0.51130	  1	0.80000	  0	 26	 65	 66	  0	
12-May-2013	sub2345	2345	  1	  0	142	  6	  2	  1	  2	  4	  1	  1	  1	0.41407	  1	0.80000	  0	 21	 60	 61	  1	
12-May-2013	sub2345	2345	  1	  0	143	  6	  2	  2	  5	  6	  1	  2	  1	0.46018	  1	0.80000	  0	 22	 60	 61	  1	
12-May-2013	sub2345	2345	  1	  0	144	  6	  2	  5	  6	  6	  0	  1	  0	0.45643	  1	0.80000	  0	 25	 67	 88	  1	
12-May-2013	sub2345	2345	  1	  0	145	  6	  2	  6	  3	  4	  1	  2	  1	0.42015	  1	0.80000	  0	 26	 65	 66	  1	
12-May-2013	sub2345	2345	  1	  0	146	  6	  2	  1	  2	  4	  1	  2	  0	0.65945	  0	0.80000	  0	 21	 80	 81	  0	
12-May-2013	sub2345	2345	  1	  0	147	  6	  2	  2	  5	  6	  1	  1	  0	0.41476	  0	0.80000	  0	 22	 80	 81	  1	
12-May-2013	sub2345	2345	  1	  0	148	  6	  2	  6	  3	  4	  0	  2	  0	0.40693	  1	0.80000	  0	 26	 67	 88	  1	
12-May-2013	sub2345	2345	  1	  0	149	  6	  2	  2	  5	  6	  1	  1	  0	0.40515	  0	0.80000	  0	 22	 80	 81	  1	
12-May-2013	sub2345	2345	  1	  0	150	  6	  2	  3	  1	  4	  0	  2	  1	0.32677	  0	0.80000	  0	 23	 84	 69	  1	
