Date 	 Name 	 ID 	 Gender 	 Appearance 	 Trial 	 Block 	 Bin 	 Condition 	 Category 	 Number 	 Valid 	 Keypress 	 Correct 	 RT 	 Realcorrect 	 Deadline 	 Timeout 	 Stimtrigger 	 Resptrigger 	 Fedtrigger 	 WithinTime 	 
12-May-2013	sub2346	2346	  1	  1	  1	  1	  1	  4	  1	  2	  0	  1	  1	1.05527	  0	0.60000	  1	 14	 44	 51	  0	
12-May-2013	sub2346	2346	  1	  1	  2	  1	  1	  2	  3	  4	  1	  2	  1	0.28874	  1	0.90000	  0	 12	 30	 31	  1	
12-May-2013	sub2346	2346	  1	  1	  3	  1	  1	  6	  5	  4	  0	  1	  1	0.57301	  0	0.90000	  0	 16	 47	 38	  0	
12-May-2013	sub2346	2346	  1	  1	  4	  1	  1	  2	  3	  4	  1	  2	  1	0.32383	  1	0.90000	  0	 12	 30	 31	  1	
12-May-2013	sub2346	2346	  1	  1	  5	  1	  1	  6	  5	  4	  1	  1	  0	0.40051	  0	0.90000	  0	 16	 45	 46	  1	
12-May-2013	sub2346	2346	  1	  1	  6	  1	  1	  1	  2	  1	  1	  2	  0	0.56482	  0	0.90000	  0	 11	 40	 41	  0	
12-May-2013	sub2346	2346	  1	  1	  7	  1	  1	  6	  5	  4	  1	  2	  1	0.29288	  1	0.90000	  0	 16	 35	 36	  1	
12-May-2013	sub2346	2346	  1	  1	  8	  1	  1	  2	  3	  4	  1	  2	  1	0.31439	  1	0.90000	  0	 12	 30	 31	  1	
12-May-2013	sub2346	2346	  1	  1	  9	  1	  1	  4	  1	  2	  1	  2	  1	0.45135	  1	0.90000	  0	 14	 32	 33	  1	
12-May-2013	sub2346	2346	  1	  1	 10	  1	  1	  5	  6	  4	  1	  2	  0	0.41728	  0	0.90000	  0	 15	 45	 46	  1	
12-May-2013	sub2346	2346	  1	  1	 11	  1	  1	  3	  4	  4	  1	  1	  1	0.88074	  1	0.90000	  0	 13	 32	 33	  0	
12-May-2013	sub2346	2346	  1	  1	 12	  1	  1	  2	  3	  4	  1	  1	  0	0.50978	  0	0.90000	  0	 12	 40	 41	  0	
12-May-2013	sub2346	2346	  1	  1	 13	  1	  1	  2	  3	  4	  1	  2	  1	0.40595	  1	0.90000	  0	 12	 30	 31	  1	
12-May-2013	sub2346	2346	  1	  1	 14	  1	  1	  1	  2	  1	  1	  1	  1	0.60864	  1	0.90000	  0	 11	 30	 31	  0	
12-May-2013	sub2346	2346	  1	  1	 15	  1	  1	  4	  1	  2	  1	  2	  1	1.08106	  1	0.90000	  1	 14	 32	 51	  0	
12-May-2013	sub2346	2346	  1	  1	 16	  1	  1	  3	  4	  4	  1	  1	  1	0.33267	  1	0.90000	  0	 13	 32	 33	  1	
12-May-2013	sub2346	2346	  1	  1	 17	  1	  1	  3	  4	  4	  1	  1	  1	0.31562	  1	0.90000	  0	 13	 32	 33	  1	
12-May-2013	sub2346	2346	  1	  1	 18	  1	  1	  5	  6	  4	  0	  1	  0	0.34610	  1	0.90000	  0	 15	 37	 48	  1	
12-May-2013	sub2346	2346	  1	  1	 19	  1	  1	  6	  5	  4	  1	  2	  1	0.42854	  1	0.90000	  0	 16	 35	 36	  1	
12-May-2013	sub2346	2346	  1	  1	 20	  1	  1	  4	  1	  2	  1	  2	  1	0.34386	  1	0.90000	  0	 14	 32	 33	  1	
12-May-2013	sub2346	2346	  1	  1	 21	  1	  1	  1	  2	  1	  1	  2	  0	0.34564	  0	0.90000	  0	 11	 40	 41	  1	
12-May-2013	sub2346	2346	  1	  1	 22	  1	  1	  2	  3	  4	  1	  2	  1	0.77598	  1	0.90000	  0	 12	 30	 31	  0	
12-May-2013	sub2346	2346	  1	  1	 23	  1	  1	  1	  2	  1	  1	  1	  1	0.55777	  1	0.90000	  0	 11	 30	 31	  0	
12-May-2013	sub2346	2346	  1	  1	 24	  1	  1	  2	  3	  4	  1	  1	  0	0.55527	  0	0.90000	  0	 12	 40	 41	  0	
12-May-2013	sub2346	2346	  1	  1	 25	  1	  1	  6	  5	  4	  0	  2	  0	0.40319	  1	0.90000	  0	 16	 37	 48	  1	
12-May-2013	sub2346	2346	  1	  1	 26	  1	  1	  5	  6	  4	  1	  2	  0	0.82202	  0	0.90000	  0	 15	 45	 46	  0	
12-May-2013	sub2346	2346	  1	  1	 27	  1	  1	  3	  4	  4	  1	  1	  1	0.36719	  1	0.90000	  0	 13	 32	 33	  1	
12-May-2013	sub2346	2346	  1	  1	 28	  1	  1	  2	  3	  4	  1	  2	  1	0.35830	  1	0.90000	  0	 12	 30	 31	  1	
12-May-2013	sub2346	2346	  1	  1	 29	  1	  1	  6	  5	  4	  0	  2	  0	0.44565	  1	0.90000	  0	 16	 37	 48	  1	
12-May-2013	sub2346	2346	  1	  1	 30	  1	  1	  1	  2	  1	  1	  2	  0	0.65498	  0	0.80000	  0	 11	 40	 41	  0	
12-May-2013	sub2346	2346	  1	  1	 31	  1	  1	  1	  2	  1	  1	  1	  1	0.58534	  1	0.80000	  0	 11	 30	 31	  0	
12-May-2013	sub2346	2346	  1	  1	 32	  1	  1	  5	  6	  4	  0	  1	  0	0.40216	  1	0.80000	  0	 15	 37	 48	  1	
12-May-2013	sub2346	2346	  1	  1	 33	  1	  1	  6	  5	  4	  0	  2	  0	0.61969	  1	0.80000	  0	 16	 37	 48	  0	
12-May-2013	sub2346	2346	  1	  1	 34	  1	  1	  5	  6	  4	  1	  1	  1	0.61914	  1	0.80000	  0	 15	 35	 36	  0	
12-May-2013	sub2346	2346	  1	  1	 35	  1	  1	  5	  6	  4	  0	  1	  0	0.55017	  1	0.70000	  0	 15	 37	 48	  0	
12-May-2013	sub2346	2346	  1	  1	 36	  1	  1	  2	  3	  4	  1	  1	  0	0.55839	  0	0.70000	  0	 12	 40	 41	  0	
12-May-2013	sub2346	2346	  1	  1	 37	  1	  1	  3	  4	  4	  1	  2	  0	0.60702	  0	0.70000	  0	 13	 42	 43	  0	
12-May-2013	sub2346	2346	  1	  1	 38	  1	  1	  6	  5	  4	  0	  2	  0	0.69630	  1	0.70000	  0	 16	 37	 48	  0	
12-May-2013	sub2346	2346	  1	  1	 39	  1	  1	  3	  4	  4	  0	  2	  1	0.39858	  0	0.70000	  0	 13	 44	 39	  1	
12-May-2013	sub2346	2346	  1	  1	 40	  1	  1	  5	  6	  4	  0	  1	  0	0.63928	  1	0.70000	  0	 15	 37	 48	  0	
12-May-2013	sub2346	2346	  1	  1	 41	  1	  1	  1	  2	  1	  1	  2	  0	0.84251	  0	0.60000	  1	 11	 40	 51	  0	
12-May-2013	sub2346	2346	  1	  1	 42	  1	  1	  1	  2	  1	  1	  2	  0	0.39780	  0	0.90000	  0	 11	 40	 41	  1	
12-May-2013	sub2346	2346	  1	  1	 43	  1	  1	  4	  1	  2	  1	  1	  0	0.43507	  0	0.90000	  0	 14	 42	 43	  1	
12-May-2013	sub2346	2346	  1	  1	 44	  1	  1	  4	  1	  2	  1	  2	  1	0.45690	  1	0.80000	  0	 14	 32	 33	  1	
12-May-2013	sub2346	2346	  1	  1	 45	  1	  1	  2	  3	  4	  1	  2	  1	0.54068	  1	0.80000	  0	 12	 30	 31	  0	
12-May-2013	sub2346	2346	  1	  1	 46	  1	  1	  4	  1	  2	  1	  2	  1	0.52272	  1	0.80000	  0	 14	 32	 33	  0	
12-May-2013	sub2346	2346	  1	  1	 47	  1	  1	  2	  3	  4	  1	  1	  0	0.67217	  0	0.80000	  0	 12	 40	 41	  0	
12-May-2013	sub2346	2346	  1	  1	 48	  1	  1	  3	  4	  4	  0	  2	  1	0.53175	  0	0.80000	  0	 13	 44	 39	  0	
12-May-2013	sub2346	2346	  1	  1	 49	  1	  1	  3	  4	  4	  1	  2	  0	0.43906	  0	0.80000	  0	 13	 42	 43	  1	
12-May-2013	sub2346	2346	  1	  1	 50	  1	  1	  4	  1	  2	  1	  2	  1	0.57106	  1	0.80000	  0	 14	 32	 33	  0	
12-May-2013	sub2346	2346	  1	  1	 51	  1	  1	  3	  4	  4	  1	  1	  1	0.92095	  1	0.70000	  1	 13	 32	 51	  0	
12-May-2013	sub2346	2346	  1	  1	 52	  1	  1	  4	  1	  2	  1	  2	  1	0.39231	  1	0.90000	  0	 14	 32	 33	  1	
12-May-2013	sub2346	2346	  1	  1	 53	  1	  1	  4	  1	  2	  1	  2	  1	0.38895	  1	0.90000	  0	 14	 32	 33	  1	
12-May-2013	sub2346	2346	  1	  1	 54	  1	  1	  1	  2	  1	  1	  1	  1	0.61996	  1	0.90000	  0	 11	 30	 31	  0	
12-May-2013	sub2346	2346	  1	  1	 55	  1	  1	  3	  4	  4	  0	  1	  0	0.51918	  1	0.90000	  0	 13	 34	 49	  0	
12-May-2013	sub2346	2346	  1	  1	 56	  1	  1	  4	  1	  2	  1	  2	  1	0.58298	  1	0.90000	  0	 14	 32	 33	  0	
12-May-2013	sub2346	2346	  1	  1	 57	  1	  1	  1	  2	  1	  1	  2	  0	0.64092	  0	0.90000	  0	 11	 40	 41	  0	
12-May-2013	sub2346	2346	  1	  1	 58	  1	  1	  3	  4	  4	  1	  2	  0	0.62762	  0	0.90000	  0	 13	 42	 43	  0	
12-May-2013	sub2346	2346	  1	  1	 59	  1	  1	  3	  4	  4	  1	  1	  1	0.82418	  1	0.80000	  1	 13	 32	 51	  0	
12-May-2013	sub2346	2346	  1	  1	 60	  1	  1	  5	  6	  4	  1	  2	  0	0.74434	  0	0.90000	  0	 15	 45	 46	  0	
12-May-2013	sub2346	2346	  1	  1	 61	  1	  1	  6	  5	  4	  1	  2	  1	0.78335	  1	0.90000	  0	 16	 35	 36	  0	
12-May-2013	sub2346	2346	  1	  1	 62	  1	  1	  3	  4	  4	  1	  1	  1	0.63061	  1	0.90000	  0	 13	 32	 33	  0	
12-May-2013	sub2346	2346	  1	  1	 63	  1	  1	  4	  1	  2	  0	  2	  0	0.50483	  1	0.90000	  0	 14	 34	 49	  0	
12-May-2013	sub2346	2346	  1	  1	 64	  1	  1	  5	  6	  4	  0	  1	  0	0.60828	  1	0.90000	  0	 15	 37	 48	  0	
12-May-2013	sub2346	2346	  1	  1	 65	  1	  1	  5	  6	  4	  1	  1	  1	0.72755	  1	0.90000	  0	 15	 35	 36	  0	
12-May-2013	sub2346	2346	  1	  1	 66	  1	  1	  5	  6	  4	  0	  1	  0	0.42046	  1	0.90000	  0	 15	 37	 48	  1	
12-May-2013	sub2346	2346	  1	  1	 67	  1	  1	  6	  5	  4	  1	  2	  1	4.55093	  1	0.90000	  1	 16	 35	 51	  0	
12-May-2013	sub2346	2346	  1	  1	 68	  1	  1	  5	  6	  4	  1	  2	  0	0.31504	  0	0.90000	  0	 15	 45	 46	  1	
12-May-2013	sub2346	2346	  1	  1	 69	  1	  1	  2	  3	  4	  1	  2	  1	0.58310	  1	0.90000	  0	 12	 30	 31	  0	
12-May-2013	sub2346	2346	  1	  1	 70	  1	  1	  2	  3	  4	  1	  2	  1	0.66581	  1	0.90000	  0	 12	 30	 31	  0	
12-May-2013	sub2346	2346	  1	  1	 71	  1	  1	  6	  5	  4	  0	  2	  0	0.77331	  1	0.90000	  0	 16	 37	 48	  0	
12-May-2013	sub2346	2346	  1	  1	 72	  1	  1	  1	  2	  1	  1	  1	  1	0.66366	  1	0.90000	  0	 11	 30	 31	  0	
12-May-2013	sub2346	2346	  1	  1	 73	  1	  1	  6	  5	  4	  1	  2	  1	0.79733	  1	0.90000	  0	 16	 35	 36	  0	
12-May-2013	sub2346	2346	  1	  1	 74	  1	  1	  1	  2	  1	  1	  1	  1	0.46757	  1	0.90000	  0	 11	 30	 31	  1	
12-May-2013	sub2346	2346	  1	  1	 75	  1	  1	  6	  5	  4	  0	  1	  1	0.43091	  0	0.90000	  0	 16	 47	 38	  1	
12-May-2013	sub2346	2346	  1	  1	  1	  2	  1	  2	  3	  5	  1	  1	  0	0.62096	  0	0.60000	  1	 12	 40	 51	  0	
12-May-2013	sub2346	2346	  1	  1	  2	  2	  1	  4	  1	  1	  1	  2	  1	0.00034	  1	0.90000	  0	 14	 32	 33	  1	
12-May-2013	sub2346	2346	  1	  1	  3	  2	  1	  3	  4	  5	  1	  2	  0	0.37638	  0	0.90000	  0	 13	 42	 43	  1	
12-May-2013	sub2346	2346	  1	  1	  4	  2	  1	  1	  6	  3	  1	  1	  1	0.51546	  1	0.90000	  0	 11	 30	 31	  0	
12-May-2013	sub2346	2346	  1	  1	  5	  2	  1	  6	  2	  6	  0	  2	  0	0.40715	  1	0.90000	  0	 16	 37	 48	  1	
12-May-2013	sub2346	2346	  1	  1	  6	  2	  1	  1	  6	  3	  1	  1	  1	0.51396	  1	0.90000	  0	 11	 30	 31	  0	
12-May-2013	sub2346	2346	  1	  1	  7	  2	  1	  5	  5	  1	  0	  1	  0	0.49331	  1	0.90000	  0	 15	 37	 48	  1	
12-May-2013	sub2346	2346	  1	  1	  8	  2	  1	  5	  5	  1	  0	  2	  1	0.41763	  0	0.90000	  0	 15	 47	 38	  1	
12-May-2013	sub2346	2346	  1	  1	  9	  2	  1	  2	  3	  5	  1	  2	  1	0.59581	  1	0.90000	  0	 12	 30	 31	  0	
12-May-2013	sub2346	2346	  1	  1	 10	  2	  1	  3	  4	  5	  0	  1	  0	0.53824	  1	0.90000	  0	 13	 34	 49	  0	
12-May-2013	sub2346	2346	  1	  1	 11	  2	  1	  2	  3	  5	  1	  2	  1	0.53960	  1	0.90000	  0	 12	 30	 31	  0	
12-May-2013	sub2346	2346	  1	  1	 12	  2	  1	  5	  5	  1	  0	  2	  1	0.36184	  0	0.90000	  0	 15	 47	 38	  1	
12-May-2013	sub2346	2346	  1	  1	 13	  2	  1	  2	  3	  5	  1	  2	  1	0.48157	  1	0.90000	  0	 12	 30	 31	  1	
12-May-2013	sub2346	2346	  1	  1	 14	  2	  1	  1	  6	  3	  1	  2	  0	0.51887	  0	0.90000	  0	 11	 40	 41	  0	
12-May-2013	sub2346	2346	  1	  1	 15	  2	  1	  4	  1	  1	  1	  2	  1	0.52248	  1	0.90000	  0	 14	 32	 33	  0	
12-May-2013	sub2346	2346	  1	  1	 16	  2	  1	  2	  3	  5	  1	  2	  1	0.71144	  1	0.80000	  0	 12	 30	 31	  0	
12-May-2013	sub2346	2346	  1	  1	 17	  2	  1	  5	  5	  1	  0	  2	  1	0.36623	  0	0.80000	  0	 15	 47	 38	  1	
12-May-2013	sub2346	2346	  1	  1	 18	  2	  1	  4	  1	  1	  1	  2	  1	0.58012	  1	0.70000	  0	 14	 32	 33	  0	
12-May-2013	sub2346	2346	  1	  1	 19	  2	  1	  1	  6	  3	  1	  1	  1	0.47898	  1	0.70000	  0	 11	 30	 31	  1	
12-May-2013	sub2346	2346	  1	  1	 20	  2	  1	  6	  2	  6	  1	  1	  0	0.68300	  0	0.70000	  0	 16	 45	 46	  0	
12-May-2013	sub2346	2346	  1	  1	 21	  2	  1	  4	  1	  1	  1	  2	  1	0.32983	  1	0.60000	  0	 14	 32	 33	  1	
12-May-2013	sub2346	2346	  1	  1	 22	  2	  1	  3	  4	  5	  0	  2	  1	0.21770	  0	0.60000	  0	 13	 44	 39	  1	
12-May-2013	sub2346	2346	  1	  1	 23	  2	  1	  1	  6	  3	  1	  2	  0	0.34219	  0	0.60000	  0	 11	 40	 41	  1	
12-May-2013	sub2346	2346	  1	  1	 24	  2	  1	  4	  1	  1	  0	  2	  0	0.52855	  1	0.60000	  0	 14	 34	 49	  0	
12-May-2013	sub2346	2346	  1	  1	 25	  2	  1	  6	  2	  6	  0	  2	  0	0.37770	  1	0.60000	  0	 16	 37	 48	  1	
12-May-2013	sub2346	2346	  1	  1	 26	  2	  1	  3	  4	  5	  1	  1	  1	0.35286	  1	0.50000	  0	 13	 32	 33	  1	
12-May-2013	sub2346	2346	  1	  1	 27	  2	  1	  1	  6	  3	  1	  2	  0	0.30469	  0	0.50000	  0	 11	 40	 41	  1	
12-May-2013	sub2346	2346	  1	  1	 28	  2	  1	  5	  5	  1	  1	  2	  0	0.35347	  0	0.50000	  0	 15	 45	 46	  1	
12-May-2013	sub2346	2346	  1	  1	 29	  2	  1	  1	  6	  3	  1	  1	  1	0.33948	  1	0.50000	  0	 11	 30	 31	  1	
12-May-2013	sub2346	2346	  1	  1	 30	  2	  1	  4	  1	  1	  1	  2	  1	0.24010	  1	0.50000	  0	 14	 32	 33	  1	
12-May-2013	sub2346	2346	  1	  1	 31	  2	  1	  1	  6	  3	  1	  1	  1	0.36632	  1	0.50000	  0	 11	 30	 31	  1	
12-May-2013	sub2346	2346	  1	  1	 32	  2	  1	  2	  3	  5	  1	  2	  1	0.37729	  1	0.50000	  0	 12	 30	 31	  1	
12-May-2013	sub2346	2346	  1	  1	 33	  2	  1	  2	  3	  5	  1	  2	  1	0.31443	  1	0.50000	  0	 12	 30	 31	  1	
12-May-2013	sub2346	2346	  1	  1	 34	  2	  1	  6	  2	  6	  0	  1	  1	0.40670	  0	0.50000	  0	 16	 47	 38	  1	
12-May-2013	sub2346	2346	  1	  1	 35	  2	  1	  5	  5	  1	  1	  2	  0	0.44050	  0	0.40000	  1	 15	 45	 51	  1	
12-May-2013	sub2346	2346	  1	  1	 36	  2	  1	  3	  4	  5	  1	  2	  0	0.31922	  0	0.70000	  0	 13	 42	 43	  1	
12-May-2013	sub2346	2346	  1	  1	 37	  2	  1	  3	  4	  5	  1	  2	  0	0.28928	  0	0.70000	  0	 13	 42	 43	  1	
12-May-2013	sub2346	2346	  1	  1	 38	  2	  1	  5	  5	  1	  1	  2	  0	0.38514	  0	0.70000	  0	 15	 45	 46	  1	
12-May-2013	sub2346	2346	  1	  1	 39	  2	  1	  5	  5	  1	  1	  2	  0	0.34432	  0	0.70000	  0	 15	 45	 46	  1	
12-May-2013	sub2346	2346	  1	  1	 40	  2	  1	  3	  4	  5	  1	  1	  1	0.35538	  1	0.70000	  0	 13	 32	 33	  1	
12-May-2013	sub2346	2346	  1	  1	 41	  2	  1	  6	  2	  6	  0	  1	  1	0.47356	  0	0.60000	  0	 16	 47	 38	  1	
12-May-2013	sub2346	2346	  1	  1	 42	  2	  1	  6	  2	  6	  0	  1	  1	0.32743	  0	0.60000	  0	 16	 47	 38	  1	
12-May-2013	sub2346	2346	  1	  1	 43	  2	  1	  3	  4	  5	  1	  2	  0	0.61523	  0	0.60000	  1	 13	 42	 51	  0	
12-May-2013	sub2346	2346	  1	  1	 44	  2	  1	  2	  3	  5	  1	  1	  0	0.22066	  0	0.80000	  0	 12	 40	 41	  1	
12-May-2013	sub2346	2346	  1	  1	 45	  2	  1	  2	  3	  5	  1	  2	  1	0.27493	  1	0.80000	  0	 12	 30	 31	  1	
12-May-2013	sub2346	2346	  1	  1	 46	  2	  1	  4	  1	  1	  1	  2	  1	0.54145	  1	0.80000	  0	 14	 32	 33	  0	
12-May-2013	sub2346	2346	  1	  1	 47	  2	  1	  1	  6	  3	  1	  2	  0	0.55709	  0	0.80000	  0	 11	 40	 41	  0	
12-May-2013	sub2346	2346	  1	  1	 48	  2	  1	  1	  6	  3	  1	  2	  0	0.33536	  0	0.80000	  0	 11	 40	 41	  1	
12-May-2013	sub2346	2346	  1	  1	 49	  2	  1	  3	  4	  5	  0	  2	  1	0.56773	  0	0.80000	  0	 13	 44	 39	  0	
12-May-2013	sub2346	2346	  1	  1	 50	  2	  1	  2	  3	  5	  1	  2	  1	0.33792	  1	0.80000	  0	 12	 30	 31	  1	
12-May-2013	sub2346	2346	  1	  1	 51	  2	  1	  5	  5	  1	  1	  2	  0	0.35514	  0	0.70000	  0	 15	 45	 46	  1	
12-May-2013	sub2346	2346	  1	  1	 52	  2	  1	  3	  4	  5	  1	  2	  0	0.89923	  0	0.70000	  1	 13	 42	 51	  0	
12-May-2013	sub2346	2346	  1	  1	 53	  2	  1	  6	  2	  6	  0	  1	  1	0.69056	  0	0.90000	  0	 16	 47	 38	  0	
12-May-2013	sub2346	2346	  1	  1	 54	  2	  1	  2	  3	  5	  1	  2	  1	0.32549	  1	0.90000	  0	 12	 30	 31	  1	
12-May-2013	sub2346	2346	  1	  1	 55	  2	  1	  3	  4	  5	  1	  1	  1	0.29276	  1	0.90000	  0	 13	 32	 33	  1	
12-May-2013	sub2346	2346	  1	  1	 56	  2	  1	  1	  6	  3	  1	  2	  0	0.34421	  0	0.90000	  0	 11	 40	 41	  1	
12-May-2013	sub2346	2346	  1	  1	 57	  2	  1	  6	  2	  6	  0	  2	  0	0.56147	  1	0.90000	  0	 16	 37	 48	  0	
12-May-2013	sub2346	2346	  1	  1	 58	  2	  1	  5	  5	  1	  0	  2	  1	0.53132	  0	0.90000	  0	 15	 47	 38	  0	
12-May-2013	sub2346	2346	  1	  1	 59	  2	  1	  3	  4	  5	  1	  2	  0	0.41134	  0	0.80000	  0	 13	 42	 43	  1	
12-May-2013	sub2346	2346	  1	  1	 60	  2	  1	  2	  3	  5	  1	  2	  1	0.49630	  1	0.80000	  0	 12	 30	 31	  1	
12-May-2013	sub2346	2346	  1	  1	 61	  2	  1	  4	  1	  1	  1	  2	  1	0.43244	  1	0.80000	  0	 14	 32	 33	  1	
12-May-2013	sub2346	2346	  1	  1	 62	  2	  1	  4	  1	  1	  1	  2	  1	0.43110	  1	0.80000	  0	 14	 32	 33	  1	
12-May-2013	sub2346	2346	  1	  1	 63	  2	  1	  5	  5	  1	  1	  2	  0	0.53709	  0	0.80000	  0	 15	 45	 46	  0	
12-May-2013	sub2346	2346	  1	  1	 64	  2	  1	  4	  1	  1	  1	  2	  1	0.55162	  1	0.80000	  0	 14	 32	 33	  0	
12-May-2013	sub2346	2346	  1	  1	 65	  2	  1	  6	  2	  6	  1	  2	  1	0.40680	  1	0.80000	  0	 16	 35	 36	  1	
12-May-2013	sub2346	2346	  1	  1	 66	  2	  1	  1	  6	  3	  1	  1	  1	0.35539	  1	0.80000	  0	 11	 30	 31	  1	
12-May-2013	sub2346	2346	  1	  1	 67	  2	  1	  6	  2	  6	  1	  2	  1	0.38389	  1	0.80000	  0	 16	 35	 36	  1	
12-May-2013	sub2346	2346	  1	  1	 68	  2	  1	  4	  1	  1	  0	  2	  0	0.53166	  1	0.70000	  0	 14	 34	 49	  0	
12-May-2013	sub2346	2346	  1	  1	 69	  2	  1	  5	  5	  1	  1	  2	  0	0.59977	  0	0.70000	  0	 15	 45	 46	  0	
12-May-2013	sub2346	2346	  1	  1	 70	  2	  1	  4	  1	  1	  1	  2	  1	0.48138	  1	0.70000	  0	 14	 32	 33	  1	
12-May-2013	sub2346	2346	  1	  1	 71	  2	  1	  6	  2	  6	  0	  2	  0	0.70217	  1	0.70000	  1	 16	 37	 51	  0	
12-May-2013	sub2346	2346	  1	  1	 72	  2	  1	  6	  2	  6	  1	  2	  1	0.47113	  1	0.90000	  0	 16	 35	 36	  1	
12-May-2013	sub2346	2346	  1	  1	 73	  2	  1	  3	  4	  5	  1	  1	  1	0.38612	  1	0.80000	  0	 13	 32	 33	  1	
12-May-2013	sub2346	2346	  1	  1	 74	  2	  1	  2	  3	  5	  1	  2	  1	0.45948	  1	0.80000	  0	 12	 30	 31	  1	
12-May-2013	sub2346	2346	  1	  1	 75	  2	  1	  6	  2	  6	  1	  2	  1	0.37549	  1	0.80000	  0	 16	 35	 36	  1	
12-May-2013	sub2346	2346	  1	  1	 76	  2	  2	  4	  1	  1	  1	  2	  1	0.51272	  1	0.80000	  0	 24	 62	 63	  0	
12-May-2013	sub2346	2346	  1	  1	 77	  2	  2	  6	  2	  6	  0	  2	  0	0.45455	  1	0.80000	  0	 26	 67	 88	  1	
12-May-2013	sub2346	2346	  1	  1	 78	  2	  2	  5	  5	  1	  0	  2	  1	0.54932	  0	0.80000	  0	 25	 87	 68	  0	
12-May-2013	sub2346	2346	  1	  1	 79	  2	  2	  3	  4	  5	  1	  2	  0	0.35724	  0	0.80000	  0	 23	 82	 83	  1	
12-May-2013	sub2346	2346	  1	  1	 80	  2	  2	  2	  3	  5	  1	  2	  1	0.48856	  1	0.80000	  0	 22	 60	 61	  1	
12-May-2013	sub2346	2346	  1	  1	 81	  2	  2	  2	  3	  5	  1	  2	  1	0.34329	  1	0.80000	  0	 22	 60	 61	  1	
12-May-2013	sub2346	2346	  1	  1	 82	  2	  2	  4	  1	  1	  1	  2	  1	0.41408	  1	0.80000	  0	 24	 62	 63	  1	
12-May-2013	sub2346	2346	  1	  1	 83	  2	  2	  4	  1	  1	  1	  2	  1	0.34902	  1	0.80000	  0	 24	 62	 63	  1	
12-May-2013	sub2346	2346	  1	  1	 84	  2	  2	  1	  6	  3	  1	  1	  1	0.42346	  1	0.80000	  0	 21	 60	 61	  1	
12-May-2013	sub2346	2346	  1	  1	 85	  2	  2	  1	  6	  3	  1	  2	  0	0.35830	  0	0.70000	  0	 21	 80	 81	  1	
12-May-2013	sub2346	2346	  1	  1	 86	  2	  2	  4	  1	  1	  1	  2	  1	0.41139	  1	0.70000	  0	 24	 62	 63	  1	
12-May-2013	sub2346	2346	  1	  1	 87	  2	  2	  5	  5	  1	  0	  2	  1	0.56253	  0	0.70000	  0	 25	 87	 68	  0	
12-May-2013	sub2346	2346	  1	  1	 88	  2	  2	  3	  4	  5	  1	  1	  1	0.41898	  1	0.70000	  0	 23	 62	 63	  1	
12-May-2013	sub2346	2346	  1	  1	 89	  2	  2	  5	  5	  1	  0	  2	  1	0.35213	  0	0.70000	  0	 25	 87	 68	  1	
12-May-2013	sub2346	2346	  1	  1	 90	  2	  2	  4	  1	  1	  1	  2	  1	0.33971	  1	0.70000	  0	 24	 62	 63	  1	
12-May-2013	sub2346	2346	  1	  1	 91	  2	  2	  3	  4	  5	  1	  1	  1	0.50114	  1	0.70000	  0	 23	 62	 63	  0	
12-May-2013	sub2346	2346	  1	  1	 92	  2	  2	  6	  2	  6	  0	  2	  0	0.33991	  1	0.70000	  0	 26	 67	 88	  1	
12-May-2013	sub2346	2346	  1	  1	 93	  2	  2	  5	  5	  1	  0	  2	  1	0.55689	  0	0.70000	  0	 25	 87	 68	  0	
12-May-2013	sub2346	2346	  1	  1	 94	  2	  2	  2	  3	  5	  1	  2	  1	0.41933	  1	0.70000	  0	 22	 60	 61	  1	
12-May-2013	sub2346	2346	  1	  1	 95	  2	  2	  6	  2	  6	  1	  2	  1	0.45556	  1	0.70000	  0	 26	 65	 66	  1	
12-May-2013	sub2346	2346	  1	  1	 96	  2	  2	  4	  1	  1	  0	  2	  0	0.42473	  1	0.70000	  0	 24	 64	 89	  1	
12-May-2013	sub2346	2346	  1	  1	 97	  2	  2	  3	  4	  5	  1	  1	  1	0.42929	  1	0.70000	  0	 23	 62	 63	  1	
12-May-2013	sub2346	2346	  1	  1	 98	  2	  2	  2	  3	  5	  1	  2	  1	0.41021	  1	0.70000	  0	 22	 60	 61	  1	
12-May-2013	sub2346	2346	  1	  1	 99	  2	  2	  4	  1	  1	  1	  2	  1	0.50031	  1	0.70000	  0	 24	 62	 63	  0	
12-May-2013	sub2346	2346	  1	  1	100	  2	  2	  4	  1	  1	  1	  2	  1	0.39724	  1	0.70000	  0	 24	 62	 63	  1	
12-May-2013	sub2346	2346	  1	  1	101	  2	  2	  1	  6	  3	  1	  2	  0	0.40132	  0	0.60000	  0	 21	 80	 81	  1	
12-May-2013	sub2346	2346	  1	  1	102	  2	  2	  4	  1	  1	  0	  2	  0	0.33479	  1	0.60000	  0	 24	 64	 89	  1	
12-May-2013	sub2346	2346	  1	  1	103	  2	  2	  1	  6	  3	  1	  1	  1	0.40083	  1	0.60000	  0	 21	 60	 61	  1	
12-May-2013	sub2346	2346	  1	  1	104	  2	  2	  1	  6	  3	  1	  1	  1	0.40179	  1	0.60000	  0	 21	 60	 61	  1	
12-May-2013	sub2346	2346	  1	  1	105	  2	  2	  2	  3	  5	  1	  2	  1	0.39869	  1	0.60000	  0	 22	 60	 61	  1	
12-May-2013	sub2346	2346	  1	  1	106	  2	  2	  5	  5	  1	  0	  2	  1	0.44188	  0	0.60000	  0	 25	 87	 68	  1	
12-May-2013	sub2346	2346	  1	  1	107	  2	  2	  1	  6	  3	  1	  1	  1	0.47180	  1	0.60000	  0	 21	 60	 61	  1	
12-May-2013	sub2346	2346	  1	  1	108	  2	  2	  6	  2	  6	  1	  2	  1	0.43807	  1	0.60000	  0	 26	 65	 66	  1	
12-May-2013	sub2346	2346	  1	  1	109	  2	  2	  2	  3	  5	  1	  2	  1	0.43443	  1	0.60000	  0	 22	 60	 61	  1	
12-May-2013	sub2346	2346	  1	  1	110	  2	  2	  4	  1	  1	  0	  2	  0	0.38425	  1	0.60000	  0	 24	 64	 89	  1	
12-May-2013	sub2346	2346	  1	  1	111	  2	  2	  2	  3	  5	  1	  2	  1	0.45663	  1	0.60000	  0	 22	 60	 61	  1	
12-May-2013	sub2346	2346	  1	  1	112	  2	  2	  5	  5	  1	  0	  2	  1	0.56056	  0	0.60000	  0	 25	 87	 68	  0	
12-May-2013	sub2346	2346	  1	  1	113	  2	  2	  5	  5	  1	  0	  2	  1	0.43963	  0	0.60000	  0	 25	 87	 68	  1	
12-May-2013	sub2346	2346	  1	  1	114	  2	  2	  1	  6	  3	  1	  2	  0	0.00017	  0	0.60000	  0	 21	 80	 81	  1	
12-May-2013	sub2346	2346	  1	  1	115	  2	  2	  3	  4	  5	  1	  2	  0	0.00010	  0	0.60000	  0	 23	 82	 83	  1	
12-May-2013	sub2346	2346	  1	  1	116	  2	  2	  3	  4	  5	  1	  1	  1	0.45266	  1	0.60000	  0	 23	 62	 63	  1	
12-May-2013	sub2346	2346	  1	  1	117	  2	  2	  1	  6	  3	  1	  1	  1	0.51082	  1	0.60000	  0	 21	 60	 61	  0	
12-May-2013	sub2346	2346	  1	  1	118	  2	  2	  3	  4	  5	  0	  1	  0	0.66076	  1	0.60000	  1	 23	 64	 51	  0	
12-May-2013	sub2346	2346	  1	  1	119	  2	  2	  1	  6	  3	  1	  1	  1	0.51375	  1	0.70000	  0	 21	 60	 61	  0	
12-May-2013	sub2346	2346	  1	  1	120	  2	  2	  1	  6	  3	  1	  1	  1	0.44097	  1	0.70000	  0	 21	 60	 61	  1	
12-May-2013	sub2346	2346	  1	  1	121	  2	  2	  5	  5	  1	  0	  2	  1	0.52244	  0	0.60000	  0	 25	 87	 68	  0	
12-May-2013	sub2346	2346	  1	  1	122	  2	  2	  1	  6	  3	  1	  1	  1	0.41918	  1	0.60000	  0	 21	 60	 61	  1	
12-May-2013	sub2346	2346	  1	  1	123	  2	  2	  4	  1	  1	  1	  2	  1	0.38625	  1	0.60000	  0	 24	 62	 63	  1	
12-May-2013	sub2346	2346	  1	  1	124	  2	  2	  2	  3	  5	  1	  2	  1	0.49684	  1	0.60000	  0	 22	 60	 61	  1	
12-May-2013	sub2346	2346	  1	  1	125	  2	  2	  5	  5	  1	  0	  2	  1	0.51237	  0	0.60000	  0	 25	 87	 68	  0	
12-May-2013	sub2346	2346	  1	  1	126	  2	  2	  5	  5	  1	  0	  2	  1	0.43141	  0	0.60000	  0	 25	 87	 68	  1	
12-May-2013	sub2346	2346	  1	  1	127	  2	  2	  6	  2	  6	  1	  2	  1	0.53404	  1	0.60000	  0	 26	 65	 66	  0	
12-May-2013	sub2346	2346	  1	  1	128	  2	  2	  4	  1	  1	  1	  2	  1	0.41728	  1	0.60000	  0	 24	 62	 63	  1	
12-May-2013	sub2346	2346	  1	  1	129	  2	  2	  6	  2	  6	  1	  2	  1	0.41045	  1	0.60000	  0	 26	 65	 66	  1	
12-May-2013	sub2346	2346	  1	  1	130	  2	  2	  6	  2	  6	  0	  2	  0	0.42077	  1	0.60000	  0	 26	 67	 88	  1	
12-May-2013	sub2346	2346	  1	  1	131	  2	  2	  6	  2	  6	  1	  2	  1	0.43519	  1	0.60000	  0	 26	 65	 66	  1	
12-May-2013	sub2346	2346	  1	  1	132	  2	  2	  3	  4	  5	  1	  1	  1	0.51065	  1	0.60000	  0	 23	 62	 63	  0	
12-May-2013	sub2346	2346	  1	  1	133	  2	  2	  2	  3	  5	  1	  2	  1	0.39433	  1	0.60000	  0	 22	 60	 61	  1	
12-May-2013	sub2346	2346	  1	  1	134	  2	  2	  1	  6	  3	  1	  1	  1	0.47250	  1	0.60000	  0	 21	 60	 61	  1	
12-May-2013	sub2346	2346	  1	  1	135	  2	  2	  5	  5	  1	  0	  2	  1	0.51213	  0	0.60000	  0	 25	 87	 68	  0	
12-May-2013	sub2346	2346	  1	  1	136	  2	  2	  2	  3	  5	  1	  2	  1	0.51349	  1	0.60000	  0	 22	 60	 61	  0	
12-May-2013	sub2346	2346	  1	  1	137	  2	  2	  3	  4	  5	  0	  2	  1	0.37649	  0	0.60000	  0	 23	 84	 69	  1	
12-May-2013	sub2346	2346	  1	  1	138	  2	  2	  6	  2	  6	  0	  2	  0	0.35248	  1	0.60000	  0	 26	 67	 88	  1	
12-May-2013	sub2346	2346	  1	  1	139	  2	  2	  3	  4	  5	  1	  2	  0	0.41377	  0	0.60000	  0	 23	 82	 83	  1	
12-May-2013	sub2346	2346	  1	  1	140	  2	  2	  3	  4	  5	  1	  2	  0	0.39624	  0	0.60000	  0	 23	 82	 83	  1	
12-May-2013	sub2346	2346	  1	  1	141	  2	  2	  3	  4	  5	  1	  1	  1	0.44428	  1	0.60000	  0	 23	 62	 63	  1	
12-May-2013	sub2346	2346	  1	  1	142	  2	  2	  4	  1	  1	  1	  2	  1	0.41233	  1	0.60000	  0	 24	 62	 63	  1	
12-May-2013	sub2346	2346	  1	  1	143	  2	  2	  6	  2	  6	  0	  2	  0	0.48734	  1	0.60000	  0	 26	 67	 88	  1	
12-May-2013	sub2346	2346	  1	  1	144	  2	  2	  5	  5	  1	  0	  2	  1	0.53627	  0	0.60000	  0	 25	 87	 68	  0	
12-May-2013	sub2346	2346	  1	  1	145	  2	  2	  5	  5	  1	  0	  2	  1	0.40910	  0	0.60000	  0	 25	 87	 68	  1	
12-May-2013	sub2346	2346	  1	  1	146	  2	  2	  2	  3	  5	  1	  2	  1	0.35870	  1	0.60000	  0	 22	 60	 61	  1	
12-May-2013	sub2346	2346	  1	  1	147	  2	  2	  6	  2	  6	  1	  2	  1	0.38600	  1	0.60000	  0	 26	 65	 66	  1	
12-May-2013	sub2346	2346	  1	  1	148	  2	  2	  2	  3	  5	  1	  2	  1	0.44246	  1	0.60000	  0	 22	 60	 61	  1	
12-May-2013	sub2346	2346	  1	  1	149	  2	  2	  6	  2	  6	  0	  2	  0	0.50633	  1	0.60000	  0	 26	 67	 88	  0	
12-May-2013	sub2346	2346	  1	  1	150	  2	  2	  1	  6	  3	  1	  1	  1	0.39189	  1	0.60000	  0	 21	 60	 61	  1	
12-May-2013	sub2346	2346	  1	  1	  1	  3	  1	  2	  1	  6	  1	  2	  1	0.48338	  1	0.60000	  0	 12	 30	 31	  1	
12-May-2013	sub2346	2346	  1	  1	  2	  3	  1	  6	  4	  3	  0	  2	  0	0.42576	  1	0.30000	  1	 16	 37	 51	  1	
12-May-2013	sub2346	2346	  1	  1	  3	  3	  1	  4	  5	  5	  1	  2	  1	0.21071	  1	0.90000	  0	 14	 32	 33	  1	
12-May-2013	sub2346	2346	  1	  1	  4	  3	  1	  3	  2	  5	  1	  2	  0	0.33347	  0	0.90000	  0	 13	 42	 43	  1	
12-May-2013	sub2346	2346	  1	  1	  5	  3	  1	  5	  3	  3	  0	  2	  1	0.35519	  0	0.90000	  0	 15	 47	 38	  1	
12-May-2013	sub2346	2346	  1	  1	  6	  3	  1	  1	  6	  2	  1	  2	  0	0.31732	  0	0.90000	  0	 11	 40	 41	  1	
12-May-2013	sub2346	2346	  1	  1	  7	  3	  1	  1	  6	  2	  1	  2	  0	0.38345	  0	0.90000	  0	 11	 40	 41	  1	
12-May-2013	sub2346	2346	  1	  1	  8	  3	  1	  4	  5	  5	  0	  2	  0	0.43839	  1	0.90000	  0	 14	 34	 49	  1	
12-May-2013	sub2346	2346	  1	  1	  9	  3	  1	  5	  3	  3	  0	  2	  1	0.51894	  0	0.90000	  0	 15	 47	 38	  0	
12-May-2013	sub2346	2346	  1	  1	 10	  3	  1	  3	  2	  5	  0	  1	  0	0.48578	  1	0.90000	  0	 13	 34	 49	  1	
12-May-2013	sub2346	2346	  1	  1	 11	  3	  1	  1	  6	  2	  1	  2	  0	0.45942	  0	0.90000	  0	 11	 40	 41	  1	
12-May-2013	sub2346	2346	  1	  1	 12	  3	  1	  4	  5	  5	  1	  1	  0	0.55848	  0	0.90000	  0	 14	 42	 43	  0	
12-May-2013	sub2346	2346	  1	  1	 13	  3	  1	  1	  6	  2	  1	  1	  1	0.52187	  1	0.90000	  0	 11	 30	 31	  0	
12-May-2013	sub2346	2346	  1	  1	 14	  3	  1	  3	  2	  5	  1	  2	  0	0.35759	  0	0.90000	  0	 13	 42	 43	  1	
12-May-2013	sub2346	2346	  1	  1	 15	  3	  1	  6	  4	  3	  1	  2	  1	0.59601	  1	0.90000	  0	 16	 35	 36	  0	
12-May-2013	sub2346	2346	  1	  1	 16	  3	  1	  3	  2	  5	  0	  2	  1	0.44140	  0	0.80000	  0	 13	 44	 39	  1	
12-May-2013	sub2346	2346	  1	  1	 17	  3	  1	  3	  2	  5	  1	  2	  0	0.37417	  0	0.80000	  0	 13	 42	 43	  1	
12-May-2013	sub2346	2346	  1	  1	 18	  3	  1	  6	  4	  3	  0	  2	  0	0.41182	  1	0.70000	  0	 16	 37	 48	  1	
12-May-2013	sub2346	2346	  1	  1	 19	  3	  1	  1	  6	  2	  1	  1	  1	0.53633	  1	0.70000	  0	 11	 30	 31	  0	
12-May-2013	sub2346	2346	  1	  1	 20	  3	  1	  5	  3	  3	  1	  2	  0	0.24425	  0	0.70000	  0	 15	 45	 46	  1	
12-May-2013	sub2346	2346	  1	  1	 21	  3	  1	  2	  1	  6	  1	  2	  1	0.45813	  1	0.60000	  0	 12	 30	 31	  1	
12-May-2013	sub2346	2346	  1	  1	 22	  3	  1	  4	  5	  5	  0	  1	  1	0.41916	  0	0.60000	  0	 14	 44	 39	  1	
12-May-2013	sub2346	2346	  1	  1	 23	  3	  1	  6	  4	  3	  1	  2	  1	0.38882	  1	0.60000	  0	 16	 35	 36	  1	
12-May-2013	sub2346	2346	  1	  1	 24	  3	  1	  4	  5	  5	  1	  1	  0	0.54991	  0	0.60000	  0	 14	 42	 43	  0	
12-May-2013	sub2346	2346	  1	  1	 25	  3	  1	  1	  6	  2	  1	  2	  0	0.31219	  0	0.60000	  0	 11	 40	 41	  1	
12-May-2013	sub2346	2346	  1	  1	 26	  3	  1	  6	  4	  3	  0	  2	  0	0.48328	  1	0.50000	  0	 16	 37	 48	  1	
12-May-2013	sub2346	2346	  1	  1	 27	  3	  1	  1	  6	  2	  1	  1	  1	0.37369	  1	0.50000	  0	 11	 30	 31	  1	
12-May-2013	sub2346	2346	  1	  1	 28	  3	  1	  4	  5	  5	  1	  1	  0	0.58141	  0	0.50000	  1	 14	 42	 51	  0	
12-May-2013	sub2346	2346	  1	  1	 29	  3	  1	  5	  3	  3	  1	  1	  1	0.44771	  1	0.90000	  0	 15	 35	 36	  1	
12-May-2013	sub2346	2346	  1	  1	 30	  3	  1	  6	  4	  3	  1	  1	  0	0.41857	  0	0.80000	  0	 16	 45	 46	  1	
12-May-2013	sub2346	2346	  1	  1	 31	  3	  1	  6	  4	  3	  0	  2	  0	0.34698	  1	0.80000	  0	 16	 37	 48	  1	
12-May-2013	sub2346	2346	  1	  1	 32	  3	  1	  3	  2	  5	  1	  1	  1	0.41953	  1	0.80000	  0	 13	 32	 33	  1	
12-May-2013	sub2346	2346	  1	  1	 33	  3	  1	  4	  5	  5	  1	  1	  0	0.44767	  0	0.80000	  0	 14	 42	 43	  1	
12-May-2013	sub2346	2346	  1	  1	 34	  3	  1	  4	  5	  5	  1	  1	  0	0.54086	  0	0.80000	  0	 14	 42	 43	  0	
12-May-2013	sub2346	2346	  1	  1	 35	  3	  1	  3	  2	  5	  0	  2	  1	0.46313	  0	0.70000	  0	 13	 44	 39	  1	
12-May-2013	sub2346	2346	  1	  1	 36	  3	  1	  5	  3	  3	  1	  2	  0	0.54637	  0	0.70000	  0	 15	 45	 46	  0	
12-May-2013	sub2346	2346	  1	  1	 37	  3	  1	  6	  4	  3	  1	  1	  0	0.44267	  0	0.70000	  0	 16	 45	 46	  1	
12-May-2013	sub2346	2346	  1	  1	 38	  3	  1	  2	  1	  6	  1	  2	  1	0.38716	  1	0.70000	  0	 12	 30	 31	  1	
12-May-2013	sub2346	2346	  1	  1	 39	  3	  1	  2	  1	  6	  1	  2	  1	0.43571	  1	0.70000	  0	 12	 30	 31	  1	
12-May-2013	sub2346	2346	  1	  1	 40	  3	  1	  6	  4	  3	  0	  2	  0	0.50852	  1	0.70000	  0	 16	 37	 48	  0	
12-May-2013	sub2346	2346	  1	  1	 41	  3	  1	  4	  5	  5	  1	  2	  1	0.83990	  1	0.60000	  1	 14	 32	 51	  0	
12-May-2013	sub2346	2346	  1	  1	 42	  3	  1	  1	  6	  2	  1	  1	  1	0.32409	  1	0.90000	  0	 11	 30	 31	  1	
12-May-2013	sub2346	2346	  1	  1	 43	  3	  1	  4	  5	  5	  1	  2	  1	0.96651	  1	0.90000	  1	 14	 32	 51	  0	
12-May-2013	sub2346	2346	  1	  1	 44	  3	  1	  3	  2	  5	  1	  1	  1	0.49657	  1	0.90000	  0	 13	 32	 33	  1	
12-May-2013	sub2346	2346	  1	  1	 45	  3	  1	  2	  1	  6	  1	  1	  0	0.43067	  0	0.90000	  0	 12	 40	 41	  1	
12-May-2013	sub2346	2346	  1	  1	 46	  3	  1	  3	  2	  5	  1	  1	  1	0.26925	  1	0.90000	  0	 13	 32	 33	  1	
12-May-2013	sub2346	2346	  1	  1	 47	  3	  1	  6	  4	  3	  1	  2	  1	0.26489	  1	0.90000	  0	 16	 35	 36	  1	
12-May-2013	sub2346	2346	  1	  1	 48	  3	  1	  5	  3	  3	  0	  1	  0	0.38417	  1	0.90000	  0	 15	 37	 48	  1	
12-May-2013	sub2346	2346	  1	  1	 49	  3	  1	  2	  1	  6	  1	  2	  1	0.47461	  1	0.90000	  0	 12	 30	 31	  1	
12-May-2013	sub2346	2346	  1	  1	 50	  3	  1	  5	  3	  3	  1	  2	  0	0.37686	  0	0.90000	  0	 15	 45	 46	  1	
12-May-2013	sub2346	2346	  1	  1	 51	  3	  1	  5	  3	  3	  0	  1	  0	0.40252	  1	0.90000	  0	 15	 37	 48	  1	
12-May-2013	sub2346	2346	  1	  1	 52	  3	  1	  6	  4	  3	  0	  2	  0	0.47615	  1	0.90000	  0	 16	 37	 48	  1	
12-May-2013	sub2346	2346	  1	  1	 53	  3	  1	  2	  1	  6	  1	  2	  1	0.33723	  1	0.90000	  0	 12	 30	 31	  1	
12-May-2013	sub2346	2346	  1	  1	 54	  3	  1	  5	  3	  3	  1	  2	  0	0.53519	  0	0.90000	  0	 15	 45	 46	  0	
12-May-2013	sub2346	2346	  1	  1	 55	  3	  1	  5	  3	  3	  1	  1	  1	0.37343	  1	0.90000	  0	 15	 35	 36	  1	
12-May-2013	sub2346	2346	  1	  1	 56	  3	  1	  2	  1	  6	  1	  2	  1	0.48198	  1	0.90000	  0	 12	 30	 31	  1	
12-May-2013	sub2346	2346	  1	  1	 57	  3	  1	  4	  5	  5	  1	  2	  1	0.41808	  1	0.90000	  0	 14	 32	 33	  1	
12-May-2013	sub2346	2346	  1	  1	 58	  3	  1	  5	  3	  3	  1	  2	  0	0.44188	  0	0.90000	  0	 15	 45	 46	  1	
12-May-2013	sub2346	2346	  1	  1	 59	  3	  1	  5	  3	  3	  0	  1	  0	0.41885	  1	0.80000	  0	 15	 37	 48	  1	
12-May-2013	sub2346	2346	  1	  1	 60	  3	  1	  1	  6	  2	  1	  2	  0	0.56978	  0	0.80000	  0	 11	 40	 41	  0	
12-May-2013	sub2346	2346	  1	  1	 61	  3	  1	  1	  6	  2	  1	  2	  0	0.31187	  0	0.80000	  0	 11	 40	 41	  1	
12-May-2013	sub2346	2346	  1	  1	 62	  3	  1	  1	  6	  2	  1	  1	  1	0.48889	  1	0.80000	  0	 11	 30	 31	  1	
12-May-2013	sub2346	2346	  1	  1	 63	  3	  1	  6	  4	  3	  0	  2	  0	0.60168	  1	0.80000	  0	 16	 37	 48	  0	
12-May-2013	sub2346	2346	  1	  1	 64	  3	  1	  3	  2	  5	  1	  2	  0	0.56371	  0	0.80000	  0	 13	 42	 43	  0	
12-May-2013	sub2346	2346	  1	  1	 65	  3	  1	  6	  4	  3	  1	  1	  0	0.33851	  0	0.80000	  0	 16	 45	 46	  1	
12-May-2013	sub2346	2346	  1	  1	 66	  3	  1	  2	  1	  6	  1	  2	  1	0.36399	  1	0.80000	  0	 12	 30	 31	  1	
12-May-2013	sub2346	2346	  1	  1	 67	  3	  1	  3	  2	  5	  1	  2	  0	0.52666	  0	0.80000	  0	 13	 42	 43	  0	
12-May-2013	sub2346	2346	  1	  1	 68	  3	  1	  1	  6	  2	  1	  1	  1	0.52046	  1	0.70000	  0	 11	 30	 31	  0	
12-May-2013	sub2346	2346	  1	  1	 69	  3	  1	  2	  1	  6	  1	  2	  1	0.46852	  1	0.70000	  0	 12	 30	 31	  1	
12-May-2013	sub2346	2346	  1	  1	 70	  3	  1	  4	  5	  5	  1	  1	  0	0.55027	  0	0.70000	  0	 14	 42	 43	  0	
12-May-2013	sub2346	2346	  1	  1	 71	  3	  1	  2	  1	  6	  1	  2	  1	0.50709	  1	0.70000	  0	 12	 30	 31	  0	
12-May-2013	sub2346	2346	  1	  1	 72	  3	  1	  2	  1	  6	  1	  2	  1	0.45762	  1	0.70000	  0	 12	 30	 31	  1	
12-May-2013	sub2346	2346	  1	  1	 73	  3	  1	  3	  2	  5	  1	  1	  1	0.54657	  1	0.70000	  0	 13	 32	 33	  0	
12-May-2013	sub2346	2346	  1	  1	 74	  3	  1	  2	  1	  6	  1	  2	  1	0.45506	  1	0.70000	  0	 12	 30	 31	  1	
12-May-2013	sub2346	2346	  1	  1	 75	  3	  1	  3	  2	  5	  1	  1	  1	0.42737	  1	0.70000	  0	 13	 32	 33	  1	
12-May-2013	sub2346	2346	  1	  1	 76	  3	  2	  3	  2	  5	  1	  1	  1	0.47126	  1	0.70000	  0	 23	 62	 63	  1	
12-May-2013	sub2346	2346	  1	  1	 77	  3	  2	  1	  6	  2	  1	  1	  1	0.61978	  1	0.70000	  0	 21	 60	 61	  0	
12-May-2013	sub2346	2346	  1	  1	 78	  3	  2	  5	  3	  3	  0	  1	  0	0.37894	  1	0.70000	  0	 25	 67	 88	  1	
12-May-2013	sub2346	2346	  1	  1	 79	  3	  2	  2	  1	  6	  1	  1	  0	0.37814	  0	0.70000	  0	 22	 80	 81	  1	
12-May-2013	sub2346	2346	  1	  1	 80	  3	  2	  2	  1	  6	  1	  2	  1	0.32471	  1	0.70000	  0	 22	 60	 61	  1	
12-May-2013	sub2346	2346	  1	  1	 81	  3	  2	  1	  6	  2	  1	  1	  1	0.51019	  1	0.60000	  0	 21	 60	 61	  0	
12-May-2013	sub2346	2346	  1	  1	 82	  3	  2	  5	  3	  3	  0	  1	  0	0.44359	  1	0.60000	  0	 25	 67	 88	  1	
12-May-2013	sub2346	2346	  1	  1	 83	  3	  2	  5	  3	  3	  0	  1	  0	0.52935	  1	0.60000	  0	 25	 67	 88	  0	
12-May-2013	sub2346	2346	  1	  1	 84	  3	  2	  3	  2	  5	  1	  1	  1	0.63827	  1	0.60000	  1	 23	 62	 51	  0	
12-May-2013	sub2346	2346	  1	  1	 85	  3	  2	  6	  4	  3	  0	  1	  1	0.19999	  0	0.70000	  0	 26	 87	 68	  1	
12-May-2013	sub2346	2346	  1	  1	 86	  3	  2	  3	  2	  5	  0	  1	  0	0.45781	  1	0.70000	  0	 23	 64	 89	  1	
12-May-2013	sub2346	2346	  1	  1	 87	  3	  2	  1	  6	  2	  1	  1	  1	0.49581	  1	0.70000	  0	 21	 60	 61	  1	
12-May-2013	sub2346	2346	  1	  1	 88	  3	  2	  1	  6	  2	  1	  1	  1	0.52957	  1	0.70000	  0	 21	 60	 61	  0	
12-May-2013	sub2346	2346	  1	  1	 89	  3	  2	  4	  5	  5	  1	  2	  1	0.44045	  1	0.70000	  0	 24	 62	 63	  1	
12-May-2013	sub2346	2346	  1	  1	 90	  3	  2	  1	  6	  2	  1	  1	  1	0.37348	  1	0.70000	  0	 21	 60	 61	  1	
12-May-2013	sub2346	2346	  1	  1	 91	  3	  2	  2	  1	  6	  1	  2	  1	0.31265	  1	0.70000	  0	 22	 60	 61	  1	
12-May-2013	sub2346	2346	  1	  1	 92	  3	  2	  5	  3	  3	  0	  1	  0	0.34568	  1	0.70000	  0	 25	 67	 88	  1	
12-May-2013	sub2346	2346	  1	  1	 93	  3	  2	  5	  3	  3	  0	  1	  0	0.62217	  1	0.70000	  0	 25	 67	 88	  0	
12-May-2013	sub2346	2346	  1	  1	 94	  3	  2	  4	  5	  5	  1	  2	  1	0.42423	  1	0.70000	  0	 24	 62	 63	  1	
12-May-2013	sub2346	2346	  1	  1	 95	  3	  2	  1	  6	  2	  1	  1	  1	0.43089	  1	0.70000	  0	 21	 60	 61	  1	
12-May-2013	sub2346	2346	  1	  1	 96	  3	  2	  4	  5	  5	  0	  1	  1	0.41534	  0	0.70000	  0	 24	 84	 69	  1	
12-May-2013	sub2346	2346	  1	  1	 97	  3	  2	  1	  6	  2	  1	  2	  0	0.42125	  0	0.70000	  0	 21	 80	 81	  1	
12-May-2013	sub2346	2346	  1	  1	 98	  3	  2	  5	  3	  3	  0	  1	  0	0.36740	  1	0.70000	  0	 25	 67	 88	  1	
12-May-2013	sub2346	2346	  1	  1	 99	  3	  2	  6	  4	  3	  1	  1	  0	0.50764	  0	0.70000	  0	 26	 85	 86	  0	
12-May-2013	sub2346	2346	  1	  1	100	  3	  2	  5	  3	  3	  0	  2	  1	0.45098	  0	0.70000	  0	 25	 87	 68	  1	
12-May-2013	sub2346	2346	  1	  1	101	  3	  2	  6	  4	  3	  1	  1	  0	4.90327	  0	0.60000	  1	 26	 85	 51	  0	
12-May-2013	sub2346	2346	  1	  1	102	  3	  2	  2	  1	  6	  1	  1	  0	0.41316	  0	0.70000	  0	 22	 80	 81	  1	
12-May-2013	sub2346	2346	  1	  1	103	  3	  2	  2	  1	  6	  1	  2	  1	0.29359	  1	0.70000	  0	 22	 60	 61	  1	
12-May-2013	sub2346	2346	  1	  1	104	  3	  2	  1	  6	  2	  1	  1	  1	0.52967	  1	0.70000	  0	 21	 60	 61	  0	
12-May-2013	sub2346	2346	  1	  1	105	  3	  2	  3	  2	  5	  1	  2	  0	0.38860	  0	0.70000	  0	 23	 82	 83	  1	
12-May-2013	sub2346	2346	  1	  1	106	  3	  2	  4	  5	  5	  1	  2	  1	0.46711	  1	0.70000	  0	 24	 62	 63	  1	
12-May-2013	sub2346	2346	  1	  1	107	  3	  2	  3	  2	  5	  1	  2	  0	0.45919	  0	0.70000	  0	 23	 82	 83	  1	
12-May-2013	sub2346	2346	  1	  1	108	  3	  2	  2	  1	  6	  1	  1	  0	0.42148	  0	0.70000	  0	 22	 80	 81	  1	
12-May-2013	sub2346	2346	  1	  1	109	  3	  2	  1	  6	  2	  1	  1	  1	0.52246	  1	0.70000	  0	 21	 60	 61	  0	
12-May-2013	sub2346	2346	  1	  1	110	  3	  2	  6	  4	  3	  1	  2	  1	0.57291	  1	0.70000	  0	 26	 65	 66	  0	
12-May-2013	sub2346	2346	  1	  1	111	  3	  2	  3	  2	  5	  1	  2	  0	0.48277	  0	0.70000	  0	 23	 82	 83	  1	
12-May-2013	sub2346	2346	  1	  1	112	  3	  2	  2	  1	  6	  1	  2	  1	0.50112	  1	0.70000	  0	 22	 60	 61	  0	
12-May-2013	sub2346	2346	  1	  1	113	  3	  2	  6	  4	  3	  1	  2	  1	0.44452	  1	0.70000	  0	 26	 65	 66	  1	
12-May-2013	sub2346	2346	  1	  1	114	  3	  2	  3	  2	  5	  1	  2	  0	0.52370	  0	0.70000	  0	 23	 82	 83	  0	
12-May-2013	sub2346	2346	  1	  1	115	  3	  2	  4	  5	  5	  0	  1	  1	0.62015	  0	0.70000	  0	 24	 84	 69	  0	
12-May-2013	sub2346	2346	  1	  1	116	  3	  2	  2	  1	  6	  1	  2	  1	0.33416	  1	0.70000	  0	 22	 60	 61	  1	
12-May-2013	sub2346	2346	  1	  1	117	  3	  2	  6	  4	  3	  0	  2	  0	0.45578	  1	0.70000	  0	 26	 67	 88	  1	
12-May-2013	sub2346	2346	  1	  1	118	  3	  2	  4	  5	  5	  1	  1	  0	0.85725	  0	0.70000	  1	 24	 82	 51	  0	
12-May-2013	sub2346	2346	  1	  1	119	  3	  2	  3	  2	  5	  1	  2	  0	0.22057	  0	0.70000	  0	 23	 82	 83	  1	
12-May-2013	sub2346	2346	  1	  1	120	  3	  2	  4	  5	  5	  1	  1	  0	0.40712	  0	0.70000	  0	 24	 82	 83	  1	
12-May-2013	sub2346	2346	  1	  1	121	  3	  2	  3	  2	  5	  0	  1	  0	0.46860	  1	0.70000	  0	 23	 64	 89	  1	
12-May-2013	sub2346	2346	  1	  1	122	  3	  2	  1	  6	  2	  1	  1	  1	0.42867	  1	0.70000	  0	 21	 60	 61	  1	
12-May-2013	sub2346	2346	  1	  1	123	  3	  2	  3	  2	  5	  1	  1	  1	0.47773	  1	0.70000	  0	 23	 62	 63	  1	
12-May-2013	sub2346	2346	  1	  1	124	  3	  2	  4	  5	  5	  1	  1	  0	0.65133	  0	0.70000	  0	 24	 82	 83	  0	
12-May-2013	sub2346	2346	  1	  1	125	  3	  2	  5	  3	  3	  0	  1	  0	0.29344	  1	0.70000	  0	 25	 67	 88	  1	
12-May-2013	sub2346	2346	  1	  1	126	  3	  2	  2	  1	  6	  1	  2	  1	0.57537	  1	0.70000	  0	 22	 60	 61	  0	
12-May-2013	sub2346	2346	  1	  1	127	  3	  2	  2	  1	  6	  1	  2	  1	0.51177	  1	0.70000	  0	 22	 60	 61	  0	
12-May-2013	sub2346	2346	  1	  1	128	  3	  2	  6	  4	  3	  0	  2	  0	0.54138	  1	0.70000	  0	 26	 67	 88	  0	
12-May-2013	sub2346	2346	  1	  1	129	  3	  2	  6	  4	  3	  0	  1	  1	0.38230	  0	0.70000	  0	 26	 87	 68	  1	
12-May-2013	sub2346	2346	  1	  1	130	  3	  2	  4	  5	  5	  0	  2	  0	0.31109	  1	0.70000	  0	 24	 64	 89	  1	
12-May-2013	sub2346	2346	  1	  1	131	  3	  2	  4	  5	  5	  1	  1	  0	0.44791	  0	0.70000	  0	 24	 82	 83	  1	
12-May-2013	sub2346	2346	  1	  1	132	  3	  2	  4	  5	  5	  1	  2	  1	0.45973	  1	0.70000	  0	 24	 62	 63	  1	
12-May-2013	sub2346	2346	  1	  1	133	  3	  2	  3	  2	  5	  1	  1	  1	0.56468	  1	0.70000	  0	 23	 62	 63	  0	
12-May-2013	sub2346	2346	  1	  1	134	  3	  2	  4	  5	  5	  1	  1	  0	0.50838	  0	0.70000	  0	 24	 82	 83	  0	
12-May-2013	sub2346	2346	  1	  1	135	  3	  2	  5	  3	  3	  0	  1	  0	0.51311	  1	0.70000	  0	 25	 67	 88	  0	
12-May-2013	sub2346	2346	  1	  1	136	  3	  2	  6	  4	  3	  0	  2	  0	0.66344	  1	0.70000	  0	 26	 67	 88	  0	
12-May-2013	sub2346	2346	  1	  1	137	  3	  2	  6	  4	  3	  0	  2	  0	0.60834	  1	0.70000	  0	 26	 67	 88	  0	
12-May-2013	sub2346	2346	  1	  1	138	  3	  2	  5	  3	  3	  0	  1	  0	0.58506	  1	0.70000	  0	 25	 67	 88	  0	
12-May-2013	sub2346	2346	  1	  1	139	  3	  2	  5	  3	  3	  0	  2	  1	0.66248	  0	0.70000	  0	 25	 87	 68	  0	
12-May-2013	sub2346	2346	  1	  1	140	  3	  2	  5	  3	  3	  0	  2	  1	0.40010	  0	0.70000	  0	 25	 87	 68	  1	
12-May-2013	sub2346	2346	  1	  1	141	  3	  2	  6	  4	  3	  1	  2	  1	0.62653	  1	0.60000	  1	 26	 65	 51	  0	
12-May-2013	sub2346	2346	  1	  1	142	  3	  2	  6	  4	  3	  1	  2	  1	0.41150	  1	0.70000	  0	 26	 65	 66	  1	
12-May-2013	sub2346	2346	  1	  1	143	  3	  2	  1	  6	  2	  1	  1	  1	0.52081	  1	0.70000	  0	 21	 60	 61	  0	
12-May-2013	sub2346	2346	  1	  1	144	  3	  2	  1	  6	  2	  1	  2	  0	0.61993	  0	0.70000	  0	 21	 80	 81	  0	
12-May-2013	sub2346	2346	  1	  1	145	  3	  2	  2	  1	  6	  1	  2	  1	0.48547	  1	0.70000	  0	 22	 60	 61	  1	
12-May-2013	sub2346	2346	  1	  1	146	  3	  2	  1	  6	  2	  1	  1	  1	0.35155	  1	0.70000	  0	 21	 60	 61	  1	
12-May-2013	sub2346	2346	  1	  1	147	  3	  2	  3	  2	  5	  1	  1	  1	0.42334	  1	0.70000	  0	 23	 62	 63	  1	
12-May-2013	sub2346	2346	  1	  1	148	  3	  2	  5	  3	  3	  0	  2	  1	0.53542	  0	0.70000	  0	 25	 87	 68	  0	
12-May-2013	sub2346	2346	  1	  1	149	  3	  2	  4	  5	  5	  1	  1	  0	0.68841	  0	0.70000	  0	 24	 82	 83	  0	
12-May-2013	sub2346	2346	  1	  1	150	  3	  2	  2	  1	  6	  1	  2	  1	0.47823	  1	0.70000	  0	 22	 60	 61	  1	
12-May-2013	sub2346	2346	  1	  1	  1	  4	  1	  4	  5	  3	  1	  2	  1	0.35929	  1	0.60000	  0	 14	 32	 33	  1	
12-May-2013	sub2346	2346	  1	  1	  2	  4	  1	  3	  4	  1	  1	  2	  0	0.27466	  0	0.30000	  0	 13	 42	 43	  1	
12-May-2013	sub2346	2346	  1	  1	  3	  4	  1	  6	  3	  1	  1	  2	  1	0.48455	  1	0.30000	  1	 16	 35	 51	  1	
12-May-2013	sub2346	2346	  1	  1	  4	  4	  1	  4	  5	  3	  1	  2	  1	0.22822	  1	0.90000	  0	 14	 32	 33	  1	
12-May-2013	sub2346	2346	  1	  1	  5	  4	  1	  5	  2	  3	  0	  2	  1	0.48568	  0	0.90000	  0	 15	 47	 38	  1	
12-May-2013	sub2346	2346	  1	  1	  6	  4	  1	  3	  4	  1	  1	  2	  0	0.32973	  0	0.90000	  0	 13	 42	 43	  1	
12-May-2013	sub2346	2346	  1	  1	  7	  4	  1	  1	  1	  4	  1	  2	  0	0.40133	  0	0.90000	  0	 11	 40	 41	  1	
12-May-2013	sub2346	2346	  1	  1	  8	  4	  1	  4	  5	  3	  1	  1	  0	0.46333	  0	0.90000	  0	 14	 42	 43	  1	
12-May-2013	sub2346	2346	  1	  1	  9	  4	  1	  5	  2	  3	  0	  2	  1	0.41853	  0	0.90000	  0	 15	 47	 38	  1	
12-May-2013	sub2346	2346	  1	  1	 10	  4	  1	  6	  3	  1	  1	  2	  1	0.45448	  1	0.90000	  0	 16	 35	 36	  1	
12-May-2013	sub2346	2346	  1	  1	 11	  4	  1	  5	  2	  3	  0	  2	  1	0.45802	  0	0.90000	  0	 15	 47	 38	  1	
12-May-2013	sub2346	2346	  1	  1	 12	  4	  1	  4	  5	  3	  1	  2	  1	0.53012	  1	0.90000	  0	 14	 32	 33	  0	
12-May-2013	sub2346	2346	  1	  1	 13	  4	  1	  6	  3	  1	  0	  2	  0	0.41202	  1	0.90000	  0	 16	 37	 48	  1	
12-May-2013	sub2346	2346	  1	  1	 14	  4	  1	  3	  4	  1	  1	  2	  0	0.37412	  0	0.90000	  0	 13	 42	 43	  1	
12-May-2013	sub2346	2346	  1	  1	 15	  4	  1	  1	  1	  4	  1	  2	  0	0.52259	  0	0.90000	  0	 11	 40	 41	  0	
12-May-2013	sub2346	2346	  1	  1	 16	  4	  1	  3	  4	  1	  1	  1	  1	0.47210	  1	0.80000	  0	 13	 32	 33	  1	
12-May-2013	sub2346	2346	  1	  1	 17	  4	  1	  2	  6	  5	  1	  2	  1	0.60415	  1	0.80000	  0	 12	 30	 31	  0	
12-May-2013	sub2346	2346	  1	  1	 18	  4	  1	  2	  6	  5	  1	  2	  1	0.41295	  1	0.70000	  0	 12	 30	 31	  1	
12-May-2013	sub2346	2346	  1	  1	 19	  4	  1	  2	  6	  5	  1	  2	  1	0.37200	  1	0.70000	  0	 12	 30	 31	  1	
12-May-2013	sub2346	2346	  1	  1	 20	  4	  1	  4	  5	  3	  0	  2	  0	0.47659	  1	0.70000	  0	 14	 34	 49	  1	
12-May-2013	sub2346	2346	  1	  1	 21	  4	  1	  2	  6	  5	  1	  2	  1	0.39727	  1	0.60000	  0	 12	 30	 31	  1	
12-May-2013	sub2346	2346	  1	  1	 22	  4	  1	  1	  1	  4	  1	  2	  0	0.52974	  0	0.60000	  0	 11	 40	 41	  0	
12-May-2013	sub2346	2346	  1	  1	 23	  4	  1	  3	  4	  1	  1	  1	  1	0.42680	  1	0.60000	  0	 13	 32	 33	  1	
12-May-2013	sub2346	2346	  1	  1	 24	  4	  1	  6	  3	  1	  1	  1	  0	0.85269	  0	0.60000	  1	 16	 45	 51	  0	
12-May-2013	sub2346	2346	  1	  1	 25	  4	  1	  5	  2	  3	  0	  2	  1	0.37534	  0	0.90000	  0	 15	 47	 38	  1	
12-May-2013	sub2346	2346	  1	  1	 26	  4	  1	  3	  4	  1	  1	  2	  0	0.38279	  0	0.90000	  0	 13	 42	 43	  1	
12-May-2013	sub2346	2346	  1	  1	 27	  4	  1	  5	  2	  3	  0	  1	  0	0.42526	  1	0.90000	  0	 15	 37	 48	  1	
12-May-2013	sub2346	2346	  1	  1	 28	  4	  1	  2	  6	  5	  1	  2	  1	0.53143	  1	0.90000	  0	 12	 30	 31	  0	
12-May-2013	sub2346	2346	  1	  1	 29	  4	  1	  4	  5	  3	  1	  2	  1	0.32357	  1	0.90000	  0	 14	 32	 33	  1	
12-May-2013	sub2346	2346	  1	  1	 30	  4	  1	  2	  6	  5	  1	  2	  1	0.47879	  1	0.80000	  0	 12	 30	 31	  1	
12-May-2013	sub2346	2346	  1	  1	 31	  4	  1	  2	  6	  5	  1	  2	  1	0.37060	  1	0.80000	  0	 12	 30	 31	  1	
12-May-2013	sub2346	2346	  1	  1	 32	  4	  1	  4	  5	  3	  1	  1	  0	0.30225	  0	0.80000	  0	 14	 42	 43	  1	
12-May-2013	sub2346	2346	  1	  1	 33	  4	  1	  3	  4	  1	  1	  2	  0	0.39084	  0	0.80000	  0	 13	 42	 43	  1	
12-May-2013	sub2346	2346	  1	  1	 34	  4	  1	  2	  6	  5	  1	  1	  0	0.45224	  0	0.80000	  0	 12	 40	 41	  1	
12-May-2013	sub2346	2346	  1	  1	 35	  4	  1	  4	  5	  3	  1	  2	  1	0.41426	  1	0.70000	  0	 14	 32	 33	  1	
12-May-2013	sub2346	2346	  1	  1	 36	  4	  1	  4	  5	  3	  1	  2	  1	0.33013	  1	0.70000	  0	 14	 32	 33	  1	
12-May-2013	sub2346	2346	  1	  1	 37	  4	  1	  2	  6	  5	  1	  2	  1	0.35727	  1	0.70000	  0	 12	 30	 31	  1	
12-May-2013	sub2346	2346	  1	  1	 38	  4	  1	  3	  4	  1	  0	  1	  0	0.44013	  1	0.70000	  0	 13	 34	 49	  1	
12-May-2013	sub2346	2346	  1	  1	 39	  4	  1	  1	  1	  4	  1	  2	  0	0.61077	  0	0.70000	  0	 11	 40	 41	  0	
12-May-2013	sub2346	2346	  1	  1	 40	  4	  1	  4	  5	  3	  1	  1	  0	0.43011	  0	0.70000	  0	 14	 42	 43	  1	
12-May-2013	sub2346	2346	  1	  1	 41	  4	  1	  1	  1	  4	  1	  2	  0	0.38398	  0	0.60000	  0	 11	 40	 41	  1	
12-May-2013	sub2346	2346	  1	  1	 42	  4	  1	  1	  1	  4	  1	  2	  0	0.41150	  0	0.60000	  0	 11	 40	 41	  1	
12-May-2013	sub2346	2346	  1	  1	 43	  4	  1	  1	  1	  4	  1	  2	  0	0.37644	  0	0.60000	  0	 11	 40	 41	  1	
12-May-2013	sub2346	2346	  1	  1	 44	  4	  1	  5	  2	  3	  1	  2	  0	0.49639	  0	0.60000	  0	 15	 45	 46	  1	
12-May-2013	sub2346	2346	  1	  1	 45	  4	  1	  5	  2	  3	  1	  2	  0	0.49186	  0	0.60000	  0	 15	 45	 46	  1	
12-May-2013	sub2346	2346	  1	  1	 46	  4	  1	  2	  6	  5	  1	  2	  1	0.50431	  1	0.60000	  0	 12	 30	 31	  0	
12-May-2013	sub2346	2346	  1	  1	 47	  4	  1	  3	  4	  1	  1	  2	  0	0.58609	  0	0.60000	  0	 13	 42	 43	  0	
12-May-2013	sub2346	2346	  1	  1	 48	  4	  1	  6	  3	  1	  0	  1	  1	0.50946	  0	0.60000	  0	 16	 47	 38	  0	
12-May-2013	sub2346	2346	  1	  1	 49	  4	  1	  1	  1	  4	  1	  1	  1	0.46958	  1	0.60000	  0	 11	 30	 31	  1	
12-May-2013	sub2346	2346	  1	  1	 50	  4	  1	  6	  3	  1	  0	  1	  1	0.45247	  0	0.60000	  0	 16	 47	 38	  1	
12-May-2013	sub2346	2346	  1	  1	 51	  4	  1	  1	  1	  4	  1	  1	  1	0.39245	  1	0.50000	  0	 11	 30	 31	  1	
12-May-2013	sub2346	2346	  1	  1	 52	  4	  1	  4	  5	  3	  0	  2	  0	0.46332	  1	0.50000	  0	 14	 34	 49	  1	
12-May-2013	sub2346	2346	  1	  1	 53	  4	  1	  6	  3	  1	  1	  1	  0	0.74027	  0	0.50000	  1	 16	 45	 51	  0	
12-May-2013	sub2346	2346	  1	  1	 54	  4	  1	  1	  1	  4	  1	  1	  1	0.29989	  1	0.70000	  0	 11	 30	 31	  1	
12-May-2013	sub2346	2346	  1	  1	 55	  4	  1	  6	  3	  1	  1	  1	  0	0.38053	  0	0.70000	  0	 16	 45	 46	  1	
12-May-2013	sub2346	2346	  1	  1	 56	  4	  1	  2	  6	  5	  1	  2	  1	0.49571	  1	0.70000	  0	 12	 30	 31	  1	
12-May-2013	sub2346	2346	  1	  1	 57	  4	  1	  6	  3	  1	  0	  2	  0	0.37797	  1	0.70000	  0	 16	 37	 48	  1	
12-May-2013	sub2346	2346	  1	  1	 58	  4	  1	  2	  6	  5	  1	  2	  1	0.47853	  1	0.70000	  0	 12	 30	 31	  1	
12-May-2013	sub2346	2346	  1	  1	 59	  4	  1	  5	  2	  3	  0	  2	  1	0.39242	  0	0.70000	  0	 15	 47	 38	  1	
12-May-2013	sub2346	2346	  1	  1	 60	  4	  1	  1	  1	  4	  1	  2	  0	0.84522	  0	0.70000	  1	 11	 40	 51	  0	
12-May-2013	sub2346	2346	  1	  1	 61	  4	  1	  6	  3	  1	  1	  1	  0	0.25528	  0	0.80000	  0	 16	 45	 46	  1	
12-May-2013	sub2346	2346	  1	  1	 62	  4	  1	  3	  4	  1	  1	  2	  0	0.35169	  0	0.80000	  0	 13	 42	 43	  1	
12-May-2013	sub2346	2346	  1	  1	 63	  4	  1	  6	  3	  1	  0	  1	  1	0.47002	  0	0.80000	  0	 16	 47	 38	  1	
12-May-2013	sub2346	2346	  1	  1	 64	  4	  1	  6	  3	  1	  0	  1	  1	0.49850	  0	0.80000	  0	 16	 47	 38	  1	
12-May-2013	sub2346	2346	  1	  1	 65	  4	  1	  5	  2	  3	  1	  2	  0	0.47331	  0	0.80000	  0	 15	 45	 46	  1	
12-May-2013	sub2346	2346	  1	  1	 66	  4	  1	  5	  2	  3	  1	  2	  0	0.69165	  0	0.80000	  0	 15	 45	 46	  0	
12-May-2013	sub2346	2346	  1	  1	 67	  4	  1	  4	  5	  3	  1	  2	  1	0.40816	  1	0.80000	  0	 14	 32	 33	  1	
12-May-2013	sub2346	2346	  1	  1	 68	  4	  1	  6	  3	  1	  0	  2	  0	0.45153	  1	0.70000	  0	 16	 37	 48	  1	
12-May-2013	sub2346	2346	  1	  1	 69	  4	  1	  1	  1	  4	  1	  1	  1	0.57206	  1	0.70000	  0	 11	 30	 31	  0	
12-May-2013	sub2346	2346	  1	  1	 70	  4	  1	  2	  6	  5	  1	  2	  1	0.35437	  1	0.70000	  0	 12	 30	 31	  1	
12-May-2013	sub2346	2346	  1	  1	 71	  4	  1	  3	  4	  1	  1	  1	  1	0.61925	  1	0.70000	  0	 13	 32	 33	  0	
12-May-2013	sub2346	2346	  1	  1	 72	  4	  1	  3	  4	  1	  0	  1	  0	0.38827	  1	0.70000	  0	 13	 34	 49	  1	
12-May-2013	sub2346	2346	  1	  1	 73	  4	  1	  5	  2	  3	  1	  1	  1	0.37581	  1	0.70000	  0	 15	 35	 36	  1	
12-May-2013	sub2346	2346	  1	  1	 74	  4	  1	  5	  2	  3	  1	  1	  1	0.41445	  1	0.70000	  0	 15	 35	 36	  1	
12-May-2013	sub2346	2346	  1	  1	 75	  4	  1	  3	  4	  1	  0	  1	  0	0.75567	  1	0.70000	  1	 13	 34	 51	  0	
12-May-2013	sub2346	2346	  1	  1	 76	  4	  2	  5	  2	  3	  0	  1	  0	0.38126	  1	0.80000	  0	 25	 67	 88	  1	
12-May-2013	sub2346	2346	  1	  1	 77	  4	  2	  4	  5	  3	  1	  2	  1	0.54403	  1	0.80000	  0	 24	 62	 63	  0	
12-May-2013	sub2346	2346	  1	  1	 78	  4	  2	  5	  2	  3	  0	  1	  0	0.43086	  1	0.80000	  0	 25	 67	 88	  1	
12-May-2013	sub2346	2346	  1	  1	 79	  4	  2	  3	  4	  1	  1	  2	  0	0.46245	  0	0.80000	  0	 23	 82	 83	  1	
12-May-2013	sub2346	2346	  1	  1	 80	  4	  2	  1	  1	  4	  1	  1	  1	0.42140	  1	0.80000	  0	 21	 60	 61	  1	
12-May-2013	sub2346	2346	  1	  1	 81	  4	  2	  5	  2	  3	  0	  1	  0	0.34263	  1	0.80000	  0	 25	 67	 88	  1	
12-May-2013	sub2346	2346	  1	  1	 82	  4	  2	  4	  5	  3	  1	  2	  1	0.57862	  1	0.80000	  0	 24	 62	 63	  0	
12-May-2013	sub2346	2346	  1	  1	 83	  4	  2	  6	  3	  1	  1	  1	  0	0.49046	  0	0.80000	  0	 26	 85	 86	  1	
12-May-2013	sub2346	2346	  1	  1	 84	  4	  2	  1	  1	  4	  1	  1	  1	0.83139	  1	0.80000	  1	 21	 60	 51	  0	
12-May-2013	sub2346	2346	  1	  1	 85	  4	  2	  2	  6	  5	  1	  1	  0	0.18492	  0	0.90000	  0	 22	 80	 81	  1	
12-May-2013	sub2346	2346	  1	  1	 86	  4	  2	  1	  1	  4	  1	  1	  1	0.57017	  1	0.90000	  0	 21	 60	 61	  0	
12-May-2013	sub2346	2346	  1	  1	 87	  4	  2	  2	  6	  5	  1	  2	  1	0.35350	  1	0.80000	  0	 22	 60	 61	  1	
12-May-2013	sub2346	2346	  1	  1	 88	  4	  2	  3	  4	  1	  0	  2	  1	0.44288	  0	0.80000	  0	 23	 84	 69	  1	
12-May-2013	sub2346	2346	  1	  1	 89	  4	  2	  5	  2	  3	  0	  1	  0	0.24081	  1	0.80000	  0	 25	 67	 88	  1	
12-May-2013	sub2346	2346	  1	  1	 90	  4	  2	  2	  6	  5	  1	  2	  1	0.34792	  1	0.80000	  0	 22	 60	 61	  1	
12-May-2013	sub2346	2346	  1	  1	 91	  4	  2	  6	  3	  1	  1	  1	  0	0.56280	  0	0.80000	  0	 26	 85	 86	  0	
12-May-2013	sub2346	2346	  1	  1	 92	  4	  2	  5	  2	  3	  0	  2	  1	0.40802	  0	0.80000	  0	 25	 87	 68	  1	
12-May-2013	sub2346	2346	  1	  1	 93	  4	  2	  5	  2	  3	  0	  1	  0	0.66792	  1	0.80000	  0	 25	 67	 88	  0	
12-May-2013	sub2346	2346	  1	  1	 94	  4	  2	  4	  5	  3	  1	  2	  1	0.43713	  1	0.80000	  0	 24	 62	 63	  1	
12-May-2013	sub2346	2346	  1	  1	 95	  4	  2	  2	  6	  5	  1	  2	  1	0.44033	  1	0.80000	  0	 22	 60	 61	  1	
12-May-2013	sub2346	2346	  1	  1	 96	  4	  2	  2	  6	  5	  1	  2	  1	0.53489	  1	0.80000	  0	 22	 60	 61	  0	
12-May-2013	sub2346	2346	  1	  1	 97	  4	  2	  4	  5	  3	  0	  2	  0	0.64221	  1	0.80000	  0	 24	 64	 89	  0	
12-May-2013	sub2346	2346	  1	  1	 98	  4	  2	  2	  6	  5	  1	  2	  1	0.45094	  1	0.80000	  0	 22	 60	 61	  1	
12-May-2013	sub2346	2346	  1	  1	 99	  4	  2	  1	  1	  4	  1	  2	  0	0.35508	  0	0.80000	  0	 21	 80	 81	  1	
12-May-2013	sub2346	2346	  1	  1	100	  4	  2	  5	  2	  3	  0	  1	  0	0.55248	  1	0.80000	  0	 25	 67	 88	  0	
12-May-2013	sub2346	2346	  1	  1	101	  4	  2	  4	  5	  3	  1	  2	  1	0.32366	  1	0.70000	  0	 24	 62	 63	  1	
12-May-2013	sub2346	2346	  1	  1	102	  4	  2	  3	  4	  1	  1	  1	  1	0.36987	  1	0.70000	  0	 23	 62	 63	  1	
12-May-2013	sub2346	2346	  1	  1	103	  4	  2	  5	  2	  3	  0	  2	  1	0.60802	  0	0.70000	  0	 25	 87	 68	  0	
12-May-2013	sub2346	2346	  1	  1	104	  4	  2	  1	  1	  4	  1	  1	  1	0.58143	  1	0.70000	  0	 21	 60	 61	  0	
12-May-2013	sub2346	2346	  1	  1	105	  4	  2	  4	  5	  3	  1	  2	  1	0.28861	  1	0.70000	  0	 24	 62	 63	  1	
12-May-2013	sub2346	2346	  1	  1	106	  4	  2	  4	  5	  3	  0	  2	  0	0.51009	  1	0.70000	  0	 24	 64	 89	  0	
12-May-2013	sub2346	2346	  1	  1	107	  4	  2	  5	  2	  3	  0	  1	  0	0.55438	  1	0.70000	  0	 25	 67	 88	  0	
12-May-2013	sub2346	2346	  1	  1	108	  4	  2	  3	  4	  1	  0	  2	  1	0.44999	  0	0.70000	  0	 23	 84	 69	  1	
12-May-2013	sub2346	2346	  1	  1	109	  4	  2	  3	  4	  1	  1	  2	  0	0.46551	  0	0.70000	  0	 23	 82	 83	  1	
12-May-2013	sub2346	2346	  1	  1	110	  4	  2	  1	  1	  4	  1	  2	  0	0.33935	  0	0.70000	  0	 21	 80	 81	  1	
12-May-2013	sub2346	2346	  1	  1	111	  4	  2	  4	  5	  3	  1	  1	  0	0.61629	  0	0.70000	  0	 24	 82	 83	  0	
12-May-2013	sub2346	2346	  1	  1	112	  4	  2	  6	  3	  1	  0	  2	  0	0.24254	  1	0.70000	  0	 26	 67	 88	  1	
12-May-2013	sub2346	2346	  1	  1	113	  4	  2	  2	  6	  5	  1	  2	  1	0.34310	  1	0.70000	  0	 22	 60	 61	  1	
12-May-2013	sub2346	2346	  1	  1	114	  4	  2	  1	  1	  4	  1	  2	  0	0.44178	  0	0.70000	  0	 21	 80	 81	  1	
12-May-2013	sub2346	2346	  1	  1	115	  4	  2	  3	  4	  1	  1	  2	  0	0.35980	  0	0.70000	  0	 23	 82	 83	  1	
12-May-2013	sub2346	2346	  1	  1	116	  4	  2	  2	  6	  5	  1	  2	  1	0.53870	  1	0.70000	  0	 22	 60	 61	  0	
12-May-2013	sub2346	2346	  1	  1	117	  4	  2	  4	  5	  3	  1	  1	  0	0.49094	  0	0.70000	  0	 24	 82	 83	  1	
12-May-2013	sub2346	2346	  1	  1	118	  4	  2	  1	  1	  4	  1	  2	  0	0.43351	  0	0.70000	  0	 21	 80	 81	  1	
12-May-2013	sub2346	2346	  1	  1	119	  4	  2	  2	  6	  5	  1	  2	  1	0.39248	  1	0.70000	  0	 22	 60	 61	  1	
12-May-2013	sub2346	2346	  1	  1	120	  4	  2	  3	  4	  1	  1	  2	  0	0.40418	  0	0.70000	  0	 23	 82	 83	  1	
12-May-2013	sub2346	2346	  1	  1	121	  4	  2	  6	  3	  1	  1	  1	  0	0.52085	  0	0.60000	  0	 26	 85	 86	  0	
12-May-2013	sub2346	2346	  1	  1	122	  4	  2	  5	  2	  3	  0	  1	  0	0.72028	  1	0.60000	  1	 25	 67	 51	  0	
12-May-2013	sub2346	2346	  1	  1	123	  4	  2	  5	  2	  3	  0	  1	  0	0.30563	  1	0.70000	  0	 25	 67	 88	  1	
12-May-2013	sub2346	2346	  1	  1	124	  4	  2	  3	  4	  1	  1	  2	  0	0.40838	  0	0.70000	  0	 23	 82	 83	  1	
12-May-2013	sub2346	2346	  1	  1	125	  4	  2	  5	  2	  3	  0	  1	  0	0.63515	  1	0.70000	  0	 25	 67	 88	  0	
12-May-2013	sub2346	2346	  1	  1	126	  4	  2	  1	  1	  4	  1	  2	  0	0.41727	  0	0.70000	  0	 21	 80	 81	  1	
12-May-2013	sub2346	2346	  1	  1	127	  4	  2	  4	  5	  3	  1	  2	  1	0.38331	  1	0.70000	  0	 24	 62	 63	  1	
12-May-2013	sub2346	2346	  1	  1	128	  4	  2	  1	  1	  4	  1	  1	  1	0.65159	  1	0.70000	  0	 21	 60	 61	  0	
12-May-2013	sub2346	2346	  1	  1	129	  4	  2	  6	  3	  1	  1	  1	  0	0.55674	  0	0.70000	  0	 26	 85	 86	  0	
12-May-2013	sub2346	2346	  1	  1	130	  4	  2	  5	  2	  3	  0	  1	  0	0.65306	  1	0.70000	  0	 25	 67	 88	  0	
12-May-2013	sub2346	2346	  1	  1	131	  4	  2	  6	  3	  1	  0	  1	  1	0.57198	  0	0.70000	  0	 26	 87	 68	  0	
12-May-2013	sub2346	2346	  1	  1	132	  4	  2	  3	  4	  1	  1	  2	  0	0.38072	  0	0.70000	  0	 23	 82	 83	  1	
12-May-2013	sub2346	2346	  1	  1	133	  4	  2	  3	  4	  1	  1	  1	  1	0.60994	  1	0.70000	  0	 23	 62	 63	  0	
12-May-2013	sub2346	2346	  1	  1	134	  4	  2	  6	  3	  1	  1	  2	  1	0.52391	  1	0.70000	  0	 26	 65	 66	  0	
12-May-2013	sub2346	2346	  1	  1	135	  4	  2	  2	  6	  5	  1	  2	  1	0.36896	  1	0.70000	  0	 22	 60	 61	  1	
12-May-2013	sub2346	2346	  1	  1	136	  4	  2	  6	  3	  1	  0	  2	  0	0.77704	  1	0.70000	  1	 26	 67	 51	  0	
12-May-2013	sub2346	2346	  1	  1	137	  4	  2	  4	  5	  3	  1	  2	  1	0.43624	  1	0.70000	  0	 24	 62	 63	  1	
12-May-2013	sub2346	2346	  1	  1	138	  4	  2	  6	  3	  1	  1	  2	  1	0.50385	  1	0.70000	  0	 26	 65	 66	  0	
12-May-2013	sub2346	2346	  1	  1	139	  4	  2	  4	  5	  3	  1	  2	  1	0.51731	  1	0.70000	  0	 24	 62	 63	  0	
12-May-2013	sub2346	2346	  1	  1	140	  4	  2	  3	  4	  1	  1	  2	  0	0.42895	  0	0.70000	  0	 23	 82	 83	  1	
12-May-2013	sub2346	2346	  1	  1	141	  4	  2	  4	  5	  3	  0	  1	  1	0.35625	  0	0.70000	  0	 24	 84	 69	  1	
12-May-2013	sub2346	2346	  1	  1	142	  4	  2	  6	  3	  1	  0	  1	  1	0.60714	  0	0.70000	  0	 26	 87	 68	  0	
12-May-2013	sub2346	2346	  1	  1	143	  4	  2	  6	  3	  1	  0	  2	  0	0.40328	  1	0.70000	  0	 26	 67	 88	  1	
12-May-2013	sub2346	2346	  1	  1	144	  4	  2	  1	  1	  4	  1	  2	  0	0.53979	  0	0.70000	  0	 21	 80	 81	  0	
12-May-2013	sub2346	2346	  1	  1	145	  4	  2	  6	  3	  1	  0	  1	  1	0.47286	  0	0.70000	  0	 26	 87	 68	  1	
12-May-2013	sub2346	2346	  1	  1	146	  4	  2	  2	  6	  5	  1	  2	  1	0.54619	  1	0.70000	  0	 22	 60	 61	  0	
12-May-2013	sub2346	2346	  1	  1	147	  4	  2	  2	  6	  5	  1	  1	  0	1.05119	  0	0.70000	  1	 22	 80	 51	  0	
12-May-2013	sub2346	2346	  1	  1	148	  4	  2	  1	  1	  4	  1	  2	  0	0.24321	  0	0.80000	  0	 21	 80	 81	  1	
12-May-2013	sub2346	2346	  1	  1	149	  4	  2	  3	  4	  1	  1	  1	  1	0.48871	  1	0.80000	  0	 23	 62	 63	  1	
12-May-2013	sub2346	2346	  1	  1	150	  4	  2	  1	  1	  4	  1	  2	  0	0.55099	  0	0.80000	  0	 21	 80	 81	  0	
12-May-2013	sub2346	2346	  1	  1	  1	  5	  1	  1	  2	  4	  1	  2	  0	0.34454	  0	0.60000	  0	 11	 40	 41	  1	
12-May-2013	sub2346	2346	  1	  1	  2	  5	  1	  3	  5	  2	  0	  2	  1	0.36399	  0	0.30000	  1	 13	 44	 51	  1	
12-May-2013	sub2346	2346	  1	  1	  3	  5	  1	  1	  2	  4	  1	  2	  0	0.14788	  0	0.90000	  0	 11	 40	 41	  1	
12-May-2013	sub2346	2346	  1	  1	  4	  5	  1	  3	  5	  2	  1	  2	  0	0.30108	  0	0.90000	  0	 13	 42	 43	  1	
12-May-2013	sub2346	2346	  1	  1	  5	  5	  1	  4	  4	  2	  1	  2	  1	0.39661	  1	0.90000	  0	 14	 32	 33	  1	
12-May-2013	sub2346	2346	  1	  1	  6	  5	  1	  6	  3	  2	  0	  2	  0	0.36452	  1	0.90000	  0	 16	 37	 48	  1	
12-May-2013	sub2346	2346	  1	  1	  7	  5	  1	  2	  1	  3	  1	  2	  1	0.39357	  1	0.90000	  0	 12	 30	 31	  1	
12-May-2013	sub2346	2346	  1	  1	  8	  5	  1	  1	  2	  4	  1	  2	  0	0.47078	  0	0.90000	  0	 11	 40	 41	  1	
12-May-2013	sub2346	2346	  1	  1	  9	  5	  1	  3	  5	  2	  1	  2	  0	0.46761	  0	0.90000	  0	 13	 42	 43	  1	
12-May-2013	sub2346	2346	  1	  1	 10	  5	  1	  4	  4	  2	  1	  2	  1	0.36776	  1	0.90000	  0	 14	 32	 33	  1	
12-May-2013	sub2346	2346	  1	  1	 11	  5	  1	  6	  3	  2	  1	  2	  1	0.43562	  1	0.90000	  0	 16	 35	 36	  1	
12-May-2013	sub2346	2346	  1	  1	 12	  5	  1	  6	  3	  2	  1	  2	  1	0.54606	  1	0.90000	  0	 16	 35	 36	  0	
12-May-2013	sub2346	2346	  1	  1	 13	  5	  1	  3	  5	  2	  1	  1	  1	1.02271	  1	0.90000	  1	 13	 32	 51	  0	
12-May-2013	sub2346	2346	  1	  1	 14	  5	  1	  5	  6	  6	  1	  1	  1	0.58581	  1	0.90000	  0	 15	 35	 36	  0	
12-May-2013	sub2346	2346	  1	  1	 15	  5	  1	  5	  6	  6	  1	  1	  1	0.62511	  1	0.90000	  0	 15	 35	 36	  0	
12-May-2013	sub2346	2346	  1	  1	 16	  5	  1	  1	  2	  4	  1	  1	  1	0.49096	  1	0.90000	  0	 11	 30	 31	  1	
12-May-2013	sub2346	2346	  1	  1	 17	  5	  1	  2	  1	  3	  1	  1	  0	0.67033	  0	0.90000	  0	 12	 40	 41	  0	
12-May-2013	sub2346	2346	  1	  1	 18	  5	  1	  3	  5	  2	  1	  1	  1	0.50177	  1	0.90000	  0	 13	 32	 33	  0	
12-May-2013	sub2346	2346	  1	  1	 19	  5	  1	  4	  4	  2	  1	  2	  1	0.37975	  1	0.90000	  0	 14	 32	 33	  1	
12-May-2013	sub2346	2346	  1	  1	 20	  5	  1	  2	  1	  3	  1	  2	  1	0.55458	  1	0.90000	  0	 12	 30	 31	  0	
12-May-2013	sub2346	2346	  1	  1	 21	  5	  1	  1	  2	  4	  1	  2	  0	0.43196	  0	0.90000	  0	 11	 40	 41	  1	
12-May-2013	sub2346	2346	  1	  1	 22	  5	  1	  4	  4	  2	  0	  2	  0	0.47584	  1	0.90000	  0	 14	 34	 49	  1	
12-May-2013	sub2346	2346	  1	  1	 23	  5	  1	  2	  1	  3	  1	  2	  1	0.60505	  1	0.90000	  0	 12	 30	 31	  0	
12-May-2013	sub2346	2346	  1	  1	 24	  5	  1	  1	  2	  4	  1	  1	  1	0.68540	  1	0.90000	  0	 11	 30	 31	  0	
12-May-2013	sub2346	2346	  1	  1	 25	  5	  1	  6	  3	  2	  1	  2	  1	0.57237	  1	0.90000	  0	 16	 35	 36	  0	
12-May-2013	sub2346	2346	  1	  1	 26	  5	  1	  5	  6	  6	  0	  1	  0	0.49206	  1	0.90000	  0	 15	 37	 48	  1	
12-May-2013	sub2346	2346	  1	  1	 27	  5	  1	  5	  6	  6	  1	  1	  1	0.50323	  1	0.90000	  0	 15	 35	 36	  0	
12-May-2013	sub2346	2346	  1	  1	 28	  5	  1	  2	  1	  3	  1	  2	  1	0.38682	  1	0.90000	  0	 12	 30	 31	  1	
12-May-2013	sub2346	2346	  1	  1	 29	  5	  1	  3	  5	  2	  1	  1	  1	0.69215	  1	0.90000	  0	 13	 32	 33	  0	
12-May-2013	sub2346	2346	  1	  1	 30	  5	  1	  4	  4	  2	  1	  2	  1	0.38681	  1	0.80000	  0	 14	 32	 33	  1	
12-May-2013	sub2346	2346	  1	  1	 31	  5	  1	  3	  5	  2	  0	  1	  0	0.38113	  1	0.80000	  0	 13	 34	 49	  1	
12-May-2013	sub2346	2346	  1	  1	 32	  5	  1	  2	  1	  3	  1	  2	  1	0.40152	  1	0.80000	  0	 12	 30	 31	  1	
12-May-2013	sub2346	2346	  1	  1	 33	  5	  1	  6	  3	  2	  1	  2	  1	0.49869	  1	0.80000	  0	 16	 35	 36	  1	
12-May-2013	sub2346	2346	  1	  1	 34	  5	  1	  3	  5	  2	  0	  1	  0	0.54207	  1	0.80000	  0	 13	 34	 49	  0	
12-May-2013	sub2346	2346	  1	  1	 35	  5	  1	  5	  6	  6	  0	  1	  0	0.55855	  1	0.70000	  0	 15	 37	 48	  0	
12-May-2013	sub2346	2346	  1	  1	 36	  5	  1	  2	  1	  3	  1	  2	  1	0.37360	  1	0.70000	  0	 12	 30	 31	  1	
12-May-2013	sub2346	2346	  1	  1	 37	  5	  1	  6	  3	  2	  0	  2	  0	0.45413	  1	0.70000	  0	 16	 37	 48	  1	
12-May-2013	sub2346	2346	  1	  1	 38	  5	  1	  4	  4	  2	  0	  2	  0	0.38384	  1	0.70000	  0	 14	 34	 49	  1	
12-May-2013	sub2346	2346	  1	  1	 39	  5	  1	  3	  5	  2	  1	  2	  0	0.41977	  0	0.70000	  0	 13	 42	 43	  1	
12-May-2013	sub2346	2346	  1	  1	 40	  5	  1	  1	  2	  4	  1	  1	  1	0.37007	  1	0.70000	  0	 11	 30	 31	  1	
12-May-2013	sub2346	2346	  1	  1	 41	  5	  1	  1	  2	  4	  1	  1	  1	0.55620	  1	0.60000	  0	 11	 30	 31	  0	
12-May-2013	sub2346	2346	  1	  1	 42	  5	  1	  4	  4	  2	  1	  1	  0	0.44835	  0	0.60000	  0	 14	 42	 43	  1	
12-May-2013	sub2346	2346	  1	  1	 43	  5	  1	  6	  3	  2	  0	  2	  0	0.45001	  1	0.60000	  0	 16	 37	 48	  1	
12-May-2013	sub2346	2346	  1	  1	 44	  5	  1	  4	  4	  2	  1	  2	  1	0.43972	  1	0.60000	  0	 14	 32	 33	  1	
12-May-2013	sub2346	2346	  1	  1	 45	  5	  1	  6	  3	  2	  1	  2	  1	0.31062	  1	0.60000	  0	 16	 35	 36	  1	
12-May-2013	sub2346	2346	  1	  1	 46	  5	  1	  5	  6	  6	  0	  2	  1	0.46512	  0	0.60000	  0	 15	 47	 38	  1	
12-May-2013	sub2346	2346	  1	  1	 47	  5	  1	  2	  1	  3	  1	  2	  1	0.43574	  1	0.60000	  0	 12	 30	 31	  1	
12-May-2013	sub2346	2346	  1	  1	 48	  5	  1	  6	  3	  2	  0	  1	  1	0.43044	  0	0.60000	  0	 16	 47	 38	  1	
12-May-2013	sub2346	2346	  1	  1	 49	  5	  1	  3	  5	  2	  1	  1	  1	0.69149	  1	0.60000	  1	 13	 32	 51	  0	
12-May-2013	sub2346	2346	  1	  1	 50	  5	  1	  2	  1	  3	  1	  1	  0	0.01790	  0	0.80000	  0	 12	 40	 41	  1	
12-May-2013	sub2346	2346	  1	  1	 51	  5	  1	  5	  6	  6	  0	  2	  1	0.37949	  0	0.70000	  0	 15	 47	 38	  1	
12-May-2013	sub2346	2346	  1	  1	 52	  5	  1	  1	  2	  4	  1	  1	  1	0.52661	  1	0.70000	  0	 11	 30	 31	  0	
12-May-2013	sub2346	2346	  1	  1	 53	  5	  1	  2	  1	  3	  1	  2	  1	0.49074	  1	0.70000	  0	 12	 30	 31	  1	
12-May-2013	sub2346	2346	  1	  1	 54	  5	  1	  5	  6	  6	  1	  2	  0	0.45915	  0	0.70000	  0	 15	 45	 46	  1	
12-May-2013	sub2346	2346	  1	  1	 55	  5	  1	  6	  3	  2	  0	  2	  0	0.45063	  1	0.70000	  0	 16	 37	 48	  1	
12-May-2013	sub2346	2346	  1	  1	 56	  5	  1	  4	  4	  2	  1	  2	  1	0.49205	  1	0.70000	  0	 14	 32	 33	  1	
12-May-2013	sub2346	2346	  1	  1	 57	  5	  1	  1	  2	  4	  1	  2	  0	0.46784	  0	0.70000	  0	 11	 40	 41	  1	
12-May-2013	sub2346	2346	  1	  1	 58	  5	  1	  2	  1	  3	  1	  1	  0	0.38394	  0	0.70000	  0	 12	 40	 41	  1	
12-May-2013	sub2346	2346	  1	  1	 59	  5	  1	  4	  4	  2	  1	  2	  1	0.56134	  1	0.70000	  0	 14	 32	 33	  0	
12-May-2013	sub2346	2346	  1	  1	 60	  5	  1	  5	  6	  6	  1	  2	  0	0.60978	  0	0.70000	  0	 15	 45	 46	  0	
12-May-2013	sub2346	2346	  1	  1	 61	  5	  1	  5	  6	  6	  0	  2	  1	0.36456	  0	0.60000	  0	 15	 47	 38	  1	
12-May-2013	sub2346	2346	  1	  1	 62	  5	  1	  1	  2	  4	  1	  2	  0	0.37951	  0	0.60000	  0	 11	 40	 41	  1	
12-May-2013	sub2346	2346	  1	  1	 63	  5	  1	  6	  3	  2	  0	  2	  0	0.39949	  1	0.60000	  0	 16	 37	 48	  1	
12-May-2013	sub2346	2346	  1	  1	 64	  5	  1	  6	  3	  2	  0	  2	  0	0.59944	  1	0.60000	  0	 16	 37	 48	  0	
12-May-2013	sub2346	2346	  1	  1	 65	  5	  1	  5	  6	  6	  1	  1	  1	0.49861	  1	0.60000	  0	 15	 35	 36	  1	
12-May-2013	sub2346	2346	  1	  1	 66	  5	  1	  4	  4	  2	  1	  2	  1	0.50087	  1	0.60000	  0	 14	 32	 33	  0	
12-May-2013	sub2346	2346	  1	  1	 67	  5	  1	  4	  4	  2	  1	  2	  1	0.46534	  1	0.60000	  0	 14	 32	 33	  1	
12-May-2013	sub2346	2346	  1	  1	 68	  5	  1	  3	  5	  2	  1	  2	  0	0.43977	  0	0.60000	  0	 13	 42	 43	  1	
12-May-2013	sub2346	2346	  1	  1	 69	  5	  1	  2	  1	  3	  1	  2	  1	0.44435	  1	0.60000	  0	 12	 30	 31	  1	
12-May-2013	sub2346	2346	  1	  1	 70	  5	  1	  3	  5	  2	  1	  1	  1	0.66490	  1	0.60000	  1	 13	 32	 51	  0	
12-May-2013	sub2346	2346	  1	  1	 71	  5	  1	  6	  3	  2	  1	  2	  1	0.44745	  1	0.70000	  0	 16	 35	 36	  1	
12-May-2013	sub2346	2346	  1	  1	 72	  5	  1	  5	  6	  6	  1	  1	  1	0.62313	  1	0.70000	  0	 15	 35	 36	  0	
12-May-2013	sub2346	2346	  1	  1	 73	  5	  1	  1	  2	  4	  1	  2	  0	0.39218	  0	0.70000	  0	 11	 40	 41	  1	
12-May-2013	sub2346	2346	  1	  1	 74	  5	  1	  2	  1	  3	  1	  2	  1	0.51191	  1	0.70000	  0	 12	 30	 31	  0	
12-May-2013	sub2346	2346	  1	  1	 75	  5	  1	  3	  5	  2	  1	  2	  0	0.38390	  0	0.70000	  0	 13	 42	 43	  1	
12-May-2013	sub2346	2346	  1	  1	 76	  5	  2	  4	  4	  2	  0	  2	  0	0.58015	  1	0.70000	  0	 24	 64	 89	  0	
12-May-2013	sub2346	2346	  1	  1	 77	  5	  2	  3	  5	  2	  1	  1	  1	0.51733	  1	0.70000	  0	 23	 62	 63	  0	
12-May-2013	sub2346	2346	  1	  1	 78	  5	  2	  6	  3	  2	  0	  2	  0	0.45099	  1	0.70000	  0	 26	 67	 88	  1	
12-May-2013	sub2346	2346	  1	  1	 79	  5	  2	  5	  6	  6	  0	  2	  1	0.44424	  0	0.70000	  0	 25	 87	 68	  1	
12-May-2013	sub2346	2346	  1	  1	 80	  5	  2	  3	  5	  2	  0	  2	  1	0.50354	  0	0.70000	  0	 23	 84	 69	  0	
12-May-2013	sub2346	2346	  1	  1	 81	  5	  2	  2	  1	  3	  1	  1	  0	0.49326	  0	0.60000	  0	 22	 80	 81	  1	
12-May-2013	sub2346	2346	  1	  1	 82	  5	  2	  2	  1	  3	  1	  2	  1	0.33643	  1	0.60000	  0	 22	 60	 61	  1	
12-May-2013	sub2346	2346	  1	  1	 83	  5	  2	  6	  3	  2	  1	  2	  1	0.50620	  1	0.60000	  0	 26	 65	 66	  0	
12-May-2013	sub2346	2346	  1	  1	 84	  5	  2	  4	  4	  2	  0	  2	  0	0.43887	  1	0.60000	  0	 24	 64	 89	  1	
12-May-2013	sub2346	2346	  1	  1	 85	  5	  2	  6	  3	  2	  0	  2	  0	0.34409	  1	0.60000	  0	 26	 67	 88	  1	
12-May-2013	sub2346	2346	  1	  1	 86	  5	  2	  3	  5	  2	  1	  1	  1	0.48070	  1	0.60000	  0	 23	 62	 63	  1	
12-May-2013	sub2346	2346	  1	  1	 87	  5	  2	  4	  4	  2	  1	  2	  1	0.61334	  1	0.60000	  1	 24	 62	 51	  0	
12-May-2013	sub2346	2346	  1	  1	 88	  5	  2	  5	  6	  6	  0	  2	  1	0.33260	  0	0.70000	  0	 25	 87	 68	  1	
12-May-2013	sub2346	2346	  1	  1	 89	  5	  2	  4	  4	  2	  1	  2	  1	0.42973	  1	0.70000	  0	 24	 62	 63	  1	
12-May-2013	sub2346	2346	  1	  1	 90	  5	  2	  1	  2	  4	  1	  1	  1	0.62828	  1	0.70000	  0	 21	 60	 61	  0	
12-May-2013	sub2346	2346	  1	  1	 91	  5	  2	  3	  5	  2	  1	  1	  1	0.42413	  1	0.70000	  0	 23	 62	 63	  1	
12-May-2013	sub2346	2346	  1	  1	 92	  5	  2	  1	  2	  4	  1	  1	  1	0.46708	  1	0.70000	  0	 21	 60	 61	  1	
12-May-2013	sub2346	2346	  1	  1	 93	  5	  2	  2	  1	  3	  1	  2	  1	0.45016	  1	0.70000	  0	 22	 60	 61	  1	
12-May-2013	sub2346	2346	  1	  1	 94	  5	  2	  1	  2	  4	  1	  2	  0	0.44887	  0	0.70000	  0	 21	 80	 81	  1	
12-May-2013	sub2346	2346	  1	  1	 95	  5	  2	  3	  5	  2	  0	  2	  1	0.47485	  0	0.70000	  0	 23	 84	 69	  1	
12-May-2013	sub2346	2346	  1	  1	 96	  5	  2	  6	  3	  2	  0	  1	  1	0.44362	  0	0.70000	  0	 26	 87	 68	  1	
12-May-2013	sub2346	2346	  1	  1	 97	  5	  2	  1	  2	  4	  1	  2	  0	0.34810	  0	0.70000	  0	 21	 80	 81	  1	
12-May-2013	sub2346	2346	  1	  1	 98	  5	  2	  6	  3	  2	  0	  2	  0	0.76669	  1	0.70000	  1	 26	 67	 51	  0	
12-May-2013	sub2346	2346	  1	  1	 99	  5	  2	  3	  5	  2	  1	  1	  1	0.28243	  1	0.80000	  0	 23	 62	 63	  1	
12-May-2013	sub2346	2346	  1	  1	100	  5	  2	  2	  1	  3	  1	  2	  1	0.31042	  1	0.80000	  0	 22	 60	 61	  1	
12-May-2013	sub2346	2346	  1	  1	101	  5	  2	  6	  3	  2	  1	  2	  1	0.41890	  1	0.70000	  0	 26	 65	 66	  1	
12-May-2013	sub2346	2346	  1	  1	102	  5	  2	  2	  1	  3	  1	  2	  1	0.39202	  1	0.70000	  0	 22	 60	 61	  1	
12-May-2013	sub2346	2346	  1	  1	103	  5	  2	  1	  2	  4	  1	  2	  0	0.42766	  0	0.70000	  0	 21	 80	 81	  1	
12-May-2013	sub2346	2346	  1	  1	104	  5	  2	  1	  2	  4	  1	  2	  0	0.41347	  0	0.70000	  0	 21	 80	 81	  1	
12-May-2013	sub2346	2346	  1	  1	105	  5	  2	  5	  6	  6	  0	  2	  1	0.55449	  0	0.70000	  0	 25	 87	 68	  0	
12-May-2013	sub2346	2346	  1	  1	106	  5	  2	  3	  5	  2	  1	  1	  1	0.48991	  1	0.70000	  0	 23	 62	 63	  1	
12-May-2013	sub2346	2346	  1	  1	107	  5	  2	  2	  1	  3	  1	  2	  1	0.37532	  1	0.70000	  0	 22	 60	 61	  1	
12-May-2013	sub2346	2346	  1	  1	108	  5	  2	  1	  2	  4	  1	  1	  1	0.52610	  1	0.70000	  0	 21	 60	 61	  0	
12-May-2013	sub2346	2346	  1	  1	109	  5	  2	  5	  6	  6	  0	  1	  0	0.42896	  1	0.70000	  0	 25	 67	 88	  1	
12-May-2013	sub2346	2346	  1	  1	110	  5	  2	  3	  5	  2	  1	  1	  1	0.54082	  1	0.70000	  0	 23	 62	 63	  0	
12-May-2013	sub2346	2346	  1	  1	111	  5	  2	  6	  3	  2	  1	  2	  1	0.42845	  1	0.70000	  0	 26	 65	 66	  1	
12-May-2013	sub2346	2346	  1	  1	112	  5	  2	  5	  6	  6	  0	  2	  1	0.34869	  0	0.70000	  0	 25	 87	 68	  1	
12-May-2013	sub2346	2346	  1	  1	113	  5	  2	  4	  4	  2	  1	  2	  1	0.40347	  1	0.70000	  0	 24	 62	 63	  1	
12-May-2013	sub2346	2346	  1	  1	114	  5	  2	  6	  3	  2	  0	  2	  0	0.44926	  1	0.70000	  0	 26	 67	 88	  1	
12-May-2013	sub2346	2346	  1	  1	115	  5	  2	  4	  4	  2	  1	  2	  1	0.46723	  1	0.70000	  0	 24	 62	 63	  1	
12-May-2013	sub2346	2346	  1	  1	116	  5	  2	  4	  4	  2	  1	  2	  1	0.39757	  1	0.70000	  0	 24	 62	 63	  1	
12-May-2013	sub2346	2346	  1	  1	117	  5	  2	  5	  6	  6	  0	  2	  1	0.32181	  0	0.70000	  0	 25	 87	 68	  1	
12-May-2013	sub2346	2346	  1	  1	118	  5	  2	  6	  3	  2	  1	  2	  1	0.45535	  1	0.70000	  0	 26	 65	 66	  1	
12-May-2013	sub2346	2346	  1	  1	119	  5	  2	  2	  1	  3	  1	  2	  1	0.44152	  1	0.70000	  0	 22	 60	 61	  1	
12-May-2013	sub2346	2346	  1	  1	120	  5	  2	  4	  4	  2	  1	  2	  1	0.58269	  1	0.70000	  0	 24	 62	 63	  0	
12-May-2013	sub2346	2346	  1	  1	121	  5	  2	  6	  3	  2	  0	  2	  0	0.42477	  1	0.60000	  0	 26	 67	 88	  1	
12-May-2013	sub2346	2346	  1	  1	122	  5	  2	  5	  6	  6	  0	  2	  1	0.48558	  0	0.60000	  0	 25	 87	 68	  1	
12-May-2013	sub2346	2346	  1	  1	123	  5	  2	  4	  4	  2	  1	  2	  1	0.40583	  1	0.60000	  0	 24	 62	 63	  1	
12-May-2013	sub2346	2346	  1	  1	124	  5	  2	  5	  6	  6	  0	  2	  1	0.46308	  0	0.60000	  0	 25	 87	 68	  1	
12-May-2013	sub2346	2346	  1	  1	125	  5	  2	  1	  2	  4	  1	  2	  0	0.45629	  0	0.60000	  0	 21	 80	 81	  1	
12-May-2013	sub2346	2346	  1	  1	126	  5	  2	  6	  3	  2	  1	  1	  0	0.70619	  0	0.60000	  1	 26	 85	 51	  0	
12-May-2013	sub2346	2346	  1	  1	127	  5	  2	  3	  5	  2	  1	  2	  0	0.10111	  0	0.70000	  0	 23	 82	 83	  1	
12-May-2013	sub2346	2346	  1	  1	128	  5	  2	  5	  6	  6	  0	  1	  0	0.54403	  1	0.70000	  0	 25	 67	 88	  0	
12-May-2013	sub2346	2346	  1	  1	129	  5	  2	  1	  2	  4	  1	  2	  0	0.46901	  0	0.70000	  0	 21	 80	 81	  1	
12-May-2013	sub2346	2346	  1	  1	130	  5	  2	  2	  1	  3	  1	  1	  0	0.41903	  0	0.70000	  0	 22	 80	 81	  1	
12-May-2013	sub2346	2346	  1	  1	131	  5	  2	  4	  4	  2	  1	  2	  1	0.39799	  1	0.70000	  0	 24	 62	 63	  1	
12-May-2013	sub2346	2346	  1	  1	132	  5	  2	  4	  4	  2	  1	  2	  1	0.51237	  1	0.70000	  0	 24	 62	 63	  0	
12-May-2013	sub2346	2346	  1	  1	133	  5	  2	  3	  5	  2	  1	  1	  1	0.56815	  1	0.70000	  0	 23	 62	 63	  0	
12-May-2013	sub2346	2346	  1	  1	134	  5	  2	  3	  5	  2	  1	  1	  1	0.52622	  1	0.70000	  0	 23	 62	 63	  0	
12-May-2013	sub2346	2346	  1	  1	135	  5	  2	  2	  1	  3	  1	  2	  1	0.31005	  1	0.70000	  0	 22	 60	 61	  1	
12-May-2013	sub2346	2346	  1	  1	136	  5	  2	  3	  5	  2	  1	  2	  0	0.46655	  0	0.70000	  0	 23	 82	 83	  1	
12-May-2013	sub2346	2346	  1	  1	137	  5	  2	  1	  2	  4	  1	  1	  1	0.55892	  1	0.70000	  0	 21	 60	 61	  0	
12-May-2013	sub2346	2346	  1	  1	138	  5	  2	  2	  1	  3	  1	  2	  1	0.51178	  1	0.70000	  0	 22	 60	 61	  0	
12-May-2013	sub2346	2346	  1	  1	139	  5	  2	  4	  4	  2	  0	  2	  0	0.49188	  1	0.70000	  0	 24	 64	 89	  1	
12-May-2013	sub2346	2346	  1	  1	140	  5	  2	  1	  2	  4	  1	  1	  1	0.52382	  1	0.70000	  0	 21	 60	 61	  0	
12-May-2013	sub2346	2346	  1	  1	141	  5	  2	  5	  6	  6	  0	  2	  1	3.05924	  0	0.60000	  1	 25	 87	 51	  0	
12-May-2013	sub2346	2346	  1	  1	142	  5	  2	  2	  1	  3	  1	  2	  1	0.43795	  1	0.70000	  0	 22	 60	 61	  1	
12-May-2013	sub2346	2346	  1	  1	143	  5	  2	  1	  2	  4	  1	  2	  0	0.50536	  0	0.70000	  0	 21	 80	 81	  0	
12-May-2013	sub2346	2346	  1	  1	144	  5	  2	  6	  3	  2	  1	  2	  1	0.38808	  1	0.70000	  0	 26	 65	 66	  1	
12-May-2013	sub2346	2346	  1	  1	145	  5	  2	  2	  1	  3	  1	  2	  1	0.53918	  1	0.70000	  0	 22	 60	 61	  0	
12-May-2013	sub2346	2346	  1	  1	146	  5	  2	  1	  2	  4	  1	  1	  1	0.51110	  1	0.70000	  0	 21	 60	 61	  0	
12-May-2013	sub2346	2346	  1	  1	147	  5	  2	  5	  6	  6	  0	  1	  0	0.50583	  1	0.70000	  0	 25	 67	 88	  0	
12-May-2013	sub2346	2346	  1	  1	148	  5	  2	  5	  6	  6	  0	  1	  0	0.43988	  1	0.70000	  0	 25	 67	 88	  1	
12-May-2013	sub2346	2346	  1	  1	149	  5	  2	  5	  6	  6	  0	  2	  1	0.67553	  0	0.70000	  0	 25	 87	 68	  0	
12-May-2013	sub2346	2346	  1	  1	150	  5	  2	  4	  4	  2	  1	  2	  1	0.42490	  1	0.70000	  0	 24	 62	 63	  1	
12-May-2013	sub2346	2346	  1	  1	  1	  6	  1	  1	  3	  6	  1	  2	  0	0.49561	  0	0.60000	  0	 11	 40	 41	  1	
12-May-2013	sub2346	2346	  1	  1	  2	  6	  1	  6	  1	  5	  0	  2	  0	0.36812	  1	0.30000	  1	 16	 37	 51	  1	
12-May-2013	sub2346	2346	  1	  1	  3	  6	  1	  2	  6	  1	  1	  2	  1	0.22436	  1	0.90000	  0	 12	 30	 31	  1	
12-May-2013	sub2346	2346	  1	  1	  4	  6	  1	  6	  1	  5	  1	  2	  1	0.43631	  1	0.90000	  0	 16	 35	 36	  1	
12-May-2013	sub2346	2346	  1	  1	  5	  6	  1	  3	  5	  6	  0	  1	  0	0.47838	  1	0.90000	  0	 13	 34	 49	  1	
12-May-2013	sub2346	2346	  1	  1	  6	  6	  1	  1	  3	  6	  1	  2	  0	0.53834	  0	0.90000	  0	 11	 40	 41	  0	
12-May-2013	sub2346	2346	  1	  1	  7	  6	  1	  6	  1	  5	  0	  2	  0	0.46023	  1	0.90000	  0	 16	 37	 48	  1	
12-May-2013	sub2346	2346	  1	  1	  8	  6	  1	  3	  5	  6	  1	  2	  0	0.35719	  0	0.90000	  0	 13	 42	 43	  1	
12-May-2013	sub2346	2346	  1	  1	  9	  6	  1	  2	  6	  1	  1	  2	  1	0.43359	  1	0.90000	  0	 12	 30	 31	  1	
12-May-2013	sub2346	2346	  1	  1	 10	  6	  1	  6	  1	  5	  0	  1	  1	0.44656	  0	0.90000	  0	 16	 47	 38	  1	
12-May-2013	sub2346	2346	  1	  1	 11	  6	  1	  5	  4	  6	  0	  2	  1	0.46724	  0	0.90000	  0	 15	 47	 38	  1	
12-May-2013	sub2346	2346	  1	  1	 12	  6	  1	  3	  5	  6	  1	  1	  1	0.51467	  1	0.90000	  0	 13	 32	 33	  0	
12-May-2013	sub2346	2346	  1	  1	 13	  6	  1	  3	  5	  6	  1	  1	  1	0.60053	  1	0.90000	  0	 13	 32	 33	  0	
12-May-2013	sub2346	2346	  1	  1	 14	  6	  1	  5	  4	  6	  0	  2	  1	0.36254	  0	0.90000	  0	 15	 47	 38	  1	
12-May-2013	sub2346	2346	  1	  1	 15	  6	  1	  6	  1	  5	  1	  2	  1	0.55294	  1	0.90000	  0	 16	 35	 36	  0	
12-May-2013	sub2346	2346	  1	  1	 16	  6	  1	  4	  2	  2	  1	  2	  1	0.53551	  1	0.80000	  0	 14	 32	 33	  0	
12-May-2013	sub2346	2346	  1	  1	 17	  6	  1	  3	  5	  6	  0	  1	  0	1.00057	  1	0.80000	  1	 13	 34	 51	  0	
12-May-2013	sub2346	2346	  1	  1	 18	  6	  1	  6	  1	  5	  1	  1	  0	0.36797	  0	0.90000	  0	 16	 45	 46	  1	
12-May-2013	sub2346	2346	  1	  1	 19	  6	  1	  5	  4	  6	  0	  1	  0	0.64627	  1	0.90000	  0	 15	 37	 48	  0	
12-May-2013	sub2346	2346	  1	  1	 20	  6	  1	  4	  2	  2	  0	  2	  0	0.36201	  1	0.90000	  0	 14	 34	 49	  1	
12-May-2013	sub2346	2346	  1	  1	 21	  6	  1	  6	  1	  5	  0	  1	  1	0.51557	  0	0.90000	  0	 16	 47	 38	  0	
12-May-2013	sub2346	2346	  1	  1	 22	  6	  1	  2	  6	  1	  1	  2	  1	0.65697	  1	0.90000	  0	 12	 30	 31	  0	
12-May-2013	sub2346	2346	  1	  1	 23	  6	  1	  4	  2	  2	  1	  2	  1	0.40901	  1	0.90000	  0	 14	 32	 33	  1	
12-May-2013	sub2346	2346	  1	  1	 24	  6	  1	  1	  3	  6	  1	  1	  1	0.42218	  1	0.90000	  0	 11	 30	 31	  1	
12-May-2013	sub2346	2346	  1	  1	 25	  6	  1	  1	  3	  6	  1	  2	  0	0.50664	  0	0.90000	  0	 11	 40	 41	  0	
12-May-2013	sub2346	2346	  1	  1	 26	  6	  1	  4	  2	  2	  1	  2	  1	0.80114	  1	0.90000	  0	 14	 32	 33	  0	
12-May-2013	sub2346	2346	  1	  1	 27	  6	  1	  3	  5	  6	  1	  1	  1	0.45960	  1	0.90000	  0	 13	 32	 33	  1	
12-May-2013	sub2346	2346	  1	  1	 28	  6	  1	  6	  1	  5	  0	  1	  1	0.53829	  0	0.90000	  0	 16	 47	 38	  0	
12-May-2013	sub2346	2346	  1	  1	 29	  6	  1	  1	  3	  6	  1	  1	  1	0.45754	  1	0.90000	  0	 11	 30	 31	  1	
12-May-2013	sub2346	2346	  1	  1	 30	  6	  1	  6	  1	  5	  1	  1	  0	0.36998	  0	0.80000	  0	 16	 45	 46	  1	
12-May-2013	sub2346	2346	  1	  1	 31	  6	  1	  4	  2	  2	  1	  2	  1	0.50856	  1	0.80000	  0	 14	 32	 33	  0	
12-May-2013	sub2346	2346	  1	  1	 32	  6	  1	  4	  2	  2	  1	  2	  1	0.63500	  1	0.80000	  0	 14	 32	 33	  0	
12-May-2013	sub2346	2346	  1	  1	 33	  6	  1	  1	  3	  6	  1	  1	  1	0.48586	  1	0.80000	  0	 11	 30	 31	  1	
12-May-2013	sub2346	2346	  1	  1	 34	  6	  1	  5	  4	  6	  1	  2	  0	0.51868	  0	0.80000	  0	 15	 45	 46	  0	
12-May-2013	sub2346	2346	  1	  1	 35	  6	  1	  2	  6	  1	  1	  2	  1	0.41427	  1	0.70000	  0	 12	 30	 31	  1	
12-May-2013	sub2346	2346	  1	  1	 36	  6	  1	  4	  2	  2	  1	  2	  1	0.53874	  1	0.70000	  0	 14	 32	 33	  0	
12-May-2013	sub2346	2346	  1	  1	 37	  6	  1	  2	  6	  1	  1	  2	  1	0.36869	  1	0.70000	  0	 12	 30	 31	  1	
12-May-2013	sub2346	2346	  1	  1	 38	  6	  1	  2	  6	  1	  1	  2	  1	0.33419	  1	0.70000	  0	 12	 30	 31	  1	
12-May-2013	sub2346	2346	  1	  1	 39	  6	  1	  2	  6	  1	  1	  2	  1	0.36774	  1	0.70000	  0	 12	 30	 31	  1	
12-May-2013	sub2346	2346	  1	  1	 40	  6	  1	  3	  5	  6	  1	  2	  0	0.39919	  0	0.70000	  0	 13	 42	 43	  1	
12-May-2013	sub2346	2346	  1	  1	 41	  6	  1	  6	  1	  5	  1	  1	  0	0.58444	  0	0.60000	  0	 16	 45	 46	  0	
12-May-2013	sub2346	2346	  1	  1	 42	  6	  1	  3	  5	  6	  1	  1	  1	0.39498	  1	0.60000	  0	 13	 32	 33	  1	
12-May-2013	sub2346	2346	  1	  1	 43	  6	  1	  5	  4	  6	  0	  2	  1	0.31678	  0	0.60000	  0	 15	 47	 38	  1	
12-May-2013	sub2346	2346	  1	  1	 44	  6	  1	  4	  2	  2	  1	  2	  1	0.28856	  1	0.60000	  0	 14	 32	 33	  1	
12-May-2013	sub2346	2346	  1	  1	 45	  6	  1	  5	  4	  6	  0	  2	  1	0.40531	  0	0.60000	  0	 15	 47	 38	  1	
12-May-2013	sub2346	2346	  1	  1	 46	  6	  1	  4	  2	  2	  1	  1	  0	0.42843	  0	0.60000	  0	 14	 42	 43	  1	
12-May-2013	sub2346	2346	  1	  1	 47	  6	  1	  3	  5	  6	  1	  1	  1	0.58896	  1	0.60000	  0	 13	 32	 33	  0	
12-May-2013	sub2346	2346	  1	  1	 48	  6	  1	  6	  1	  5	  0	  1	  1	0.49458	  0	0.60000	  0	 16	 47	 38	  1	
12-May-2013	sub2346	2346	  1	  1	 49	  6	  1	  3	  5	  6	  1	  1	  1	0.55617	  1	0.60000	  0	 13	 32	 33	  0	
12-May-2013	sub2346	2346	  1	  1	 50	  6	  1	  3	  5	  6	  1	  1	  1	0.39972	  1	0.60000	  0	 13	 32	 33	  1	
12-May-2013	sub2346	2346	  1	  1	 51	  6	  1	  6	  1	  5	  1	  1	  0	0.51843	  0	0.50000	  1	 16	 45	 51	  0	
12-May-2013	sub2346	2346	  1	  1	 52	  6	  1	  5	  4	  6	  1	  2	  0	0.52921	  0	0.70000	  0	 15	 45	 46	  0	
12-May-2013	sub2346	2346	  1	  1	 53	  6	  1	  1	  3	  6	  1	  1	  1	0.47896	  1	0.70000	  0	 11	 30	 31	  1	
12-May-2013	sub2346	2346	  1	  1	 54	  6	  1	  1	  3	  6	  1	  1	  1	0.38907	  1	0.70000	  0	 11	 30	 31	  1	
12-May-2013	sub2346	2346	  1	  1	 55	  6	  1	  2	  6	  1	  1	  2	  1	0.37599	  1	0.70000	  0	 12	 30	 31	  1	
12-May-2013	sub2346	2346	  1	  1	 56	  6	  1	  4	  2	  2	  1	  2	  1	0.32943	  1	0.70000	  0	 14	 32	 33	  1	
12-May-2013	sub2346	2346	  1	  1	 57	  6	  1	  5	  4	  6	  0	  2	  1	0.42249	  0	0.70000	  0	 15	 47	 38	  1	
12-May-2013	sub2346	2346	  1	  1	 58	  6	  1	  2	  6	  1	  1	  2	  1	0.52443	  1	0.70000	  0	 12	 30	 31	  0	
12-May-2013	sub2346	2346	  1	  1	 59	  6	  1	  5	  4	  6	  1	  2	  0	0.45084	  0	0.70000	  0	 15	 45	 46	  1	
12-May-2013	sub2346	2346	  1	  1	 60	  6	  1	  2	  6	  1	  1	  2	  1	0.49792	  1	0.70000	  0	 12	 30	 31	  1	
12-May-2013	sub2346	2346	  1	  1	 61	  6	  1	  5	  4	  6	  1	  1	  1	0.33957	  1	0.60000	  0	 15	 35	 36	  1	
12-May-2013	sub2346	2346	  1	  1	 62	  6	  1	  2	  6	  1	  1	  2	  1	0.50851	  1	0.60000	  0	 12	 30	 31	  0	
12-May-2013	sub2346	2346	  1	  1	 63	  6	  1	  3	  5	  6	  0	  1	  0	0.44355	  1	0.60000	  0	 13	 34	 49	  1	
12-May-2013	sub2346	2346	  1	  1	 64	  6	  1	  1	  3	  6	  1	  2	  0	0.52284	  0	0.60000	  0	 11	 40	 41	  0	
12-May-2013	sub2346	2346	  1	  1	 65	  6	  1	  5	  4	  6	  1	  1	  1	0.39425	  1	0.60000	  0	 15	 35	 36	  1	
12-May-2013	sub2346	2346	  1	  1	 66	  6	  1	  4	  2	  2	  0	  2	  0	0.37912	  1	0.60000	  0	 14	 34	 49	  1	
12-May-2013	sub2346	2346	  1	  1	 67	  6	  1	  5	  4	  6	  1	  2	  0	0.44785	  0	0.60000	  0	 15	 45	 46	  1	
12-May-2013	sub2346	2346	  1	  1	 68	  6	  1	  3	  5	  6	  1	  1	  1	0.67707	  1	0.60000	  1	 13	 32	 51	  0	
12-May-2013	sub2346	2346	  1	  1	 69	  6	  1	  6	  1	  5	  1	  1	  0	0.61183	  0	0.70000	  0	 16	 45	 46	  0	
12-May-2013	sub2346	2346	  1	  1	 70	  6	  1	  1	  3	  6	  1	  1	  1	0.52860	  1	0.70000	  0	 11	 30	 31	  0	
12-May-2013	sub2346	2346	  1	  1	 71	  6	  1	  4	  2	  2	  1	  2	  1	0.39782	  1	0.70000	  0	 14	 32	 33	  1	
12-May-2013	sub2346	2346	  1	  1	 72	  6	  1	  2	  6	  1	  1	  2	  1	0.58532	  1	0.70000	  0	 12	 30	 31	  0	
12-May-2013	sub2346	2346	  1	  1	 73	  6	  1	  2	  6	  1	  1	  2	  1	0.40020	  1	0.70000	  0	 12	 30	 31	  1	
12-May-2013	sub2346	2346	  1	  1	 74	  6	  1	  1	  3	  6	  1	  1	  1	0.43253	  1	0.70000	  0	 11	 30	 31	  1	
12-May-2013	sub2346	2346	  1	  1	 75	  6	  1	  1	  3	  6	  1	  1	  1	0.58765	  1	0.70000	  0	 11	 30	 31	  0	
12-May-2013	sub2346	2346	  1	  1	 76	  6	  2	  3	  5	  6	  1	  2	  0	0.45174	  0	0.70000	  0	 23	 82	 83	  1	
12-May-2013	sub2346	2346	  1	  1	 77	  6	  2	  5	  4	  6	  0	  1	  0	0.51309	  1	0.70000	  0	 25	 67	 88	  0	
12-May-2013	sub2346	2346	  1	  1	 78	  6	  2	  4	  2	  2	  1	  2	  1	0.38963	  1	0.70000	  0	 24	 62	 63	  1	
12-May-2013	sub2346	2346	  1	  1	 79	  6	  2	  5	  4	  6	  0	  2	  1	0.62029	  0	0.70000	  0	 25	 87	 68	  0	
12-May-2013	sub2346	2346	  1	  1	 80	  6	  2	  5	  4	  6	  0	  2	  1	0.47079	  0	0.70000	  0	 25	 87	 68	  1	
12-May-2013	sub2346	2346	  1	  1	 81	  6	  2	  2	  6	  1	  1	  1	  0	0.65735	  0	0.60000	  1	 22	 80	 51	  0	
12-May-2013	sub2346	2346	  1	  1	 82	  6	  2	  4	  2	  2	  1	  2	  1	0.47293	  1	0.80000	  0	 24	 62	 63	  1	
12-May-2013	sub2346	2346	  1	  1	 83	  6	  2	  2	  6	  1	  1	  1	  0	0.49926	  0	0.80000	  0	 22	 80	 81	  1	
12-May-2013	sub2346	2346	  1	  1	 84	  6	  2	  6	  1	  5	  0	  1	  1	0.47603	  0	0.80000	  0	 26	 87	 68	  1	
12-May-2013	sub2346	2346	  1	  1	 85	  6	  2	  6	  1	  5	  1	  1	  0	0.42119	  0	0.70000	  0	 26	 85	 86	  1	
12-May-2013	sub2346	2346	  1	  1	 86	  6	  2	  4	  2	  2	  1	  2	  1	0.45530	  1	0.70000	  0	 24	 62	 63	  1	
12-May-2013	sub2346	2346	  1	  1	 87	  6	  2	  4	  2	  2	  1	  2	  1	0.44457	  1	0.70000	  0	 24	 62	 63	  1	
12-May-2013	sub2346	2346	  1	  1	 88	  6	  2	  1	  3	  6	  1	  1	  1	0.76125	  1	0.70000	  1	 21	 60	 51	  0	
12-May-2013	sub2346	2346	  1	  1	 89	  6	  2	  1	  3	  6	  1	  1	  1	0.48460	  1	0.80000	  0	 21	 60	 61	  1	
12-May-2013	sub2346	2346	  1	  1	 90	  6	  2	  4	  2	  2	  1	  1	  0	0.00010	  0	0.80000	  0	 24	 82	 83	  1	
12-May-2013	sub2346	2346	  1	  1	 91	  6	  2	  1	  3	  6	  1	  1	  1	0.49009	  1	0.80000	  0	 21	 60	 61	  1	
12-May-2013	sub2346	2346	  1	  1	 92	  6	  2	  4	  2	  2	  0	  2	  0	0.53008	  1	0.80000	  0	 24	 64	 89	  0	
12-May-2013	sub2346	2346	  1	  1	 93	  6	  2	  5	  4	  6	  0	  1	  0	0.54130	  1	0.80000	  0	 25	 67	 88	  0	
12-May-2013	sub2346	2346	  1	  1	 94	  6	  2	  6	  1	  5	  1	  1	  0	0.52532	  0	0.80000	  0	 26	 85	 86	  0	
12-May-2013	sub2346	2346	  1	  1	 95	  6	  2	  3	  5	  6	  1	  1	  1	0.51819	  1	0.80000	  0	 23	 62	 63	  0	
12-May-2013	sub2346	2346	  1	  1	 96	  6	  2	  4	  2	  2	  1	  2	  1	0.42792	  1	0.80000	  0	 24	 62	 63	  1	
12-May-2013	sub2346	2346	  1	  1	 97	  6	  2	  6	  1	  5	  1	  1	  0	0.46559	  0	0.80000	  0	 26	 85	 86	  1	
12-May-2013	sub2346	2346	  1	  1	 98	  6	  2	  6	  1	  5	  0	  1	  1	0.48934	  0	0.80000	  0	 26	 87	 68	  1	
12-May-2013	sub2346	2346	  1	  1	 99	  6	  2	  1	  3	  6	  1	  1	  1	0.48078	  1	0.80000	  0	 21	 60	 61	  1	
12-May-2013	sub2346	2346	  1	  1	100	  6	  2	  4	  2	  2	  1	  1	  0	0.39932	  0	0.80000	  0	 24	 82	 83	  1	
12-May-2013	sub2346	2346	  1	  1	101	  6	  2	  1	  3	  6	  1	  2	  0	0.30079	  0	0.70000	  0	 21	 80	 81	  1	
12-May-2013	sub2346	2346	  1	  1	102	  6	  2	  5	  4	  6	  0	  2	  1	0.46426	  0	0.70000	  0	 25	 87	 68	  1	
12-May-2013	sub2346	2346	  1	  1	103	  6	  2	  6	  1	  5	  0	  1	  1	0.56175	  0	0.70000	  0	 26	 87	 68	  0	
12-May-2013	sub2346	2346	  1	  1	104	  6	  2	  5	  4	  6	  0	  1	  0	0.42779	  1	0.70000	  0	 25	 67	 88	  1	
12-May-2013	sub2346	2346	  1	  1	105	  6	  2	  3	  5	  6	  1	  1	  1	0.59620	  1	0.70000	  0	 23	 62	 63	  0	
12-May-2013	sub2346	2346	  1	  1	106	  6	  2	  3	  5	  6	  0	  2	  1	0.80696	  0	0.70000	  1	 23	 84	 51	  0	
12-May-2013	sub2346	2346	  1	  1	107	  6	  2	  1	  3	  6	  1	  1	  1	0.47937	  1	0.80000	  0	 21	 60	 61	  1	
12-May-2013	sub2346	2346	  1	  1	108	  6	  2	  2	  6	  1	  1	  2	  1	0.67700	  1	0.80000	  0	 22	 60	 61	  0	
12-May-2013	sub2346	2346	  1	  1	109	  6	  2	  4	  2	  2	  1	  2	  1	0.48974	  1	0.80000	  0	 24	 62	 63	  1	
12-May-2013	sub2346	2346	  1	  1	110	  6	  2	  3	  5	  6	  0	  1	  0	0.46028	  1	0.80000	  0	 23	 64	 89	  1	
12-May-2013	sub2346	2346	  1	  1	111	  6	  2	  1	  3	  6	  1	  1	  1	0.49469	  1	0.80000	  0	 21	 60	 61	  1	
12-May-2013	sub2346	2346	  1	  1	112	  6	  2	  5	  4	  6	  0	  2	  1	0.78295	  0	0.80000	  0	 25	 87	 68	  0	
12-May-2013	sub2346	2346	  1	  1	113	  6	  2	  1	  3	  6	  1	  1	  1	0.46426	  1	0.80000	  0	 21	 60	 61	  1	
12-May-2013	sub2346	2346	  1	  1	114	  6	  2	  6	  1	  5	  1	  1	  0	0.51522	  0	0.80000	  0	 26	 85	 86	  0	
12-May-2013	sub2346	2346	  1	  1	115	  6	  2	  3	  5	  6	  1	  1	  1	0.49948	  1	0.80000	  0	 23	 62	 63	  1	
12-May-2013	sub2346	2346	  1	  1	116	  6	  2	  1	  3	  6	  1	  2	  0	0.56886	  0	0.80000	  0	 21	 80	 81	  0	
12-May-2013	sub2346	2346	  1	  1	117	  6	  2	  4	  2	  2	  0	  2	  0	0.41330	  1	0.80000	  0	 24	 64	 89	  1	
12-May-2013	sub2346	2346	  1	  1	118	  6	  2	  3	  5	  6	  1	  1	  1	0.55671	  1	0.70000	  0	 23	 62	 63	  0	
12-May-2013	sub2346	2346	  1	  1	119	  6	  2	  3	  5	  6	  1	  1	  1	0.56529	  1	0.70000	  0	 23	 62	 63	  0	
12-May-2013	sub2346	2346	  1	  1	120	  6	  2	  6	  1	  5	  0	  2	  0	0.54903	  1	0.70000	  0	 26	 67	 88	  0	
12-May-2013	sub2346	2346	  1	  1	121	  6	  2	  2	  6	  1	  1	  2	  1	0.36264	  1	0.70000	  0	 22	 60	 61	  1	
12-May-2013	sub2346	2346	  1	  1	122	  6	  2	  5	  4	  6	  0	  2	  1	0.42003	  0	0.70000	  0	 25	 87	 68	  1	
12-May-2013	sub2346	2346	  1	  1	123	  6	  2	  5	  4	  6	  0	  2	  1	0.49891	  0	0.70000	  0	 25	 87	 68	  1	
12-May-2013	sub2346	2346	  1	  1	124	  6	  2	  3	  5	  6	  1	  1	  1	0.50918	  1	0.70000	  0	 23	 62	 63	  0	
12-May-2013	sub2346	2346	  1	  1	125	  6	  2	  3	  5	  6	  1	  1	  1	0.63646	  1	0.70000	  0	 23	 62	 63	  0	
12-May-2013	sub2346	2346	  1	  1	126	  6	  2	  5	  4	  6	  0	  2	  1	0.66057	  0	0.70000	  0	 25	 87	 68	  0	
12-May-2013	sub2346	2346	  1	  1	127	  6	  2	  6	  1	  5	  0	  1	  1	0.47212	  0	0.70000	  0	 26	 87	 68	  1	
12-May-2013	sub2346	2346	  1	  1	128	  6	  2	  1	  3	  6	  1	  1	  1	0.53259	  1	0.70000	  0	 21	 60	 61	  0	
12-May-2013	sub2346	2346	  1	  1	129	  6	  2	  6	  1	  5	  1	  2	  1	0.39245	  1	0.70000	  0	 26	 65	 66	  1	
12-May-2013	sub2346	2346	  1	  1	130	  6	  2	  2	  6	  1	  1	  2	  1	0.54200	  1	0.70000	  0	 22	 60	 61	  0	
12-May-2013	sub2346	2346	  1	  1	131	  6	  2	  4	  2	  2	  1	  2	  1	0.59230	  1	0.70000	  0	 24	 62	 63	  0	
12-May-2013	sub2346	2346	  1	  1	132	  6	  2	  2	  6	  1	  1	  1	  0	0.45710	  0	0.70000	  0	 22	 80	 81	  1	
12-May-2013	sub2346	2346	  1	  1	133	  6	  2	  5	  4	  6	  0	  2	  1	0.47729	  0	0.70000	  0	 25	 87	 68	  1	
12-May-2013	sub2346	2346	  1	  1	134	  6	  2	  2	  6	  1	  1	  2	  1	0.53812	  1	0.70000	  0	 22	 60	 61	  0	
12-May-2013	sub2346	2346	  1	  1	135	  6	  2	  1	  3	  6	  1	  1	  1	0.49537	  1	0.70000	  0	 21	 60	 61	  1	
12-May-2013	sub2346	2346	  1	  1	136	  6	  2	  6	  1	  5	  1	  1	  0	0.58357	  0	0.70000	  0	 26	 85	 86	  0	
12-May-2013	sub2346	2346	  1	  1	137	  6	  2	  5	  4	  6	  0	  2	  1	0.49540	  0	0.70000	  0	 25	 87	 68	  1	
12-May-2013	sub2346	2346	  1	  1	138	  6	  2	  2	  6	  1	  1	  2	  1	0.44200	  1	0.70000	  0	 22	 60	 61	  1	
12-May-2013	sub2346	2346	  1	  1	139	  6	  2	  4	  2	  2	  0	  2	  0	0.54590	  1	0.70000	  0	 24	 64	 89	  0	
12-May-2013	sub2346	2346	  1	  1	140	  6	  2	  6	  1	  5	  0	  1	  1	0.61348	  0	0.70000	  0	 26	 87	 68	  0	
12-May-2013	sub2346	2346	  1	  1	141	  6	  2	  2	  6	  1	  1	  2	  1	0.33540	  1	0.60000	  0	 22	 60	 61	  1	
12-May-2013	sub2346	2346	  1	  1	142	  6	  2	  2	  6	  1	  1	  2	  1	0.45434	  1	0.60000	  0	 22	 60	 61	  1	
12-May-2013	sub2346	2346	  1	  1	143	  6	  2	  1	  3	  6	  1	  1	  1	0.54010	  1	0.60000	  0	 21	 60	 61	  0	
12-May-2013	sub2346	2346	  1	  1	144	  6	  2	  4	  2	  2	  1	  2	  1	0.63225	  1	0.60000	  1	 24	 62	 51	  0	
12-May-2013	sub2346	2346	  1	  1	145	  6	  2	  2	  6	  1	  1	  2	  1	0.43226	  1	0.70000	  0	 22	 60	 61	  1	
12-May-2013	sub2346	2346	  1	  1	146	  6	  2	  2	  6	  1	  1	  2	  1	0.48545	  1	0.70000	  0	 22	 60	 61	  1	
12-May-2013	sub2346	2346	  1	  1	147	  6	  2	  3	  5	  6	  1	  1	  1	0.53580	  1	0.70000	  0	 23	 62	 63	  0	
12-May-2013	sub2346	2346	  1	  1	148	  6	  2	  1	  3	  6	  1	  1	  1	0.54603	  1	0.70000	  0	 21	 60	 61	  0	
12-May-2013	sub2346	2346	  1	  1	149	  6	  2	  5	  4	  6	  0	  2	  1	0.50216	  0	0.70000	  0	 25	 87	 68	  0	
12-May-2013	sub2346	2346	  1	  1	150	  6	  2	  3	  5	  6	  1	  1	  1	0.72798	  1	0.70000	  1	 23	 62	 51	  0	
