Date 	 Name 	 ID 	 Gender 	 Appearance 	 Trial 	 Block 	 Bin 	 Condition 	 Category 	 Number 	 Valid 	 Keypress 	 Correct 	 RT 	 Realcorrect 	 Deadline 	 Timeout 	 Stimtrigger 	 Resptrigger 	 Fedtrigger 	 WithinTime 	 
12-May-2013	sub2347	2347	  2	  1	  1	  1	  1	  6	  5	  1	  0	  1	  1	1.30914	  0	0.60000	  1	 16	 47	 51	  0	
12-May-2013	sub2347	2347	  2	  1	  2	  1	  1	  1	  1	  4	  1	  1	  1	0.50490	  1	0.90000	  0	 11	 30	 31	  0	
12-May-2013	sub2347	2347	  2	  1	  3	  1	  1	  6	  5	  1	  0	  1	  1	0.66675	  0	0.90000	  0	 16	 47	 38	  0	
12-May-2013	sub2347	2347	  2	  1	  4	  1	  1	  6	  5	  1	  1	  1	  0	0.68529	  0	0.90000	  0	 16	 45	 46	  0	
12-May-2013	sub2347	2347	  2	  1	  5	  1	  1	  3	  3	  5	  1	  1	  1	0.80234	  1	0.90000	  0	 13	 32	 33	  0	
12-May-2013	sub2347	2347	  2	  1	  6	  1	  1	  3	  3	  5	  1	  1	  1	0.60095	  1	0.90000	  0	 13	 32	 33	  0	
12-May-2013	sub2347	2347	  2	  1	  7	  1	  1	  3	  3	  5	  0	  1	  0	0.87916	  1	0.90000	  0	 13	 34	 49	  0	
12-May-2013	sub2347	2347	  2	  1	  8	  1	  1	  4	  6	  3	  1	  1	  0	1.00269	  0	0.90000	  1	 14	 42	 51	  0	
12-May-2013	sub2347	2347	  2	  1	  9	  1	  1	  3	  3	  5	  1	  1	  1	0.38465	  1	0.90000	  0	 13	 32	 33	  1	
12-May-2013	sub2347	2347	  2	  1	 10	  1	  1	  1	  1	  4	  1	  1	  1	0.73064	  1	0.90000	  0	 11	 30	 31	  0	
12-May-2013	sub2347	2347	  2	  1	 11	  1	  1	  3	  3	  5	  1	  1	  1	0.94373	  1	0.90000	  1	 13	 32	 51	  0	
12-May-2013	sub2347	2347	  2	  1	 12	  1	  1	  2	  4	  1	  1	  2	  1	0.84027	  1	0.90000	  0	 12	 30	 31	  0	
12-May-2013	sub2347	2347	  2	  1	 13	  1	  1	  2	  4	  1	  1	  2	  1	0.76577	  1	0.90000	  0	 12	 30	 31	  0	
12-May-2013	sub2347	2347	  2	  1	 14	  1	  1	  6	  5	  1	  0	  1	  1	0.74274	  0	0.90000	  0	 16	 47	 38	  0	
12-May-2013	sub2347	2347	  2	  1	 15	  1	  1	  3	  3	  5	  1	  1	  1	0.94129	  1	0.90000	  1	 13	 32	 51	  0	
12-May-2013	sub2347	2347	  2	  1	 16	  1	  1	  1	  1	  4	  1	  1	  1	0.78239	  1	0.90000	  0	 11	 30	 31	  0	
12-May-2013	sub2347	2347	  2	  1	 17	  1	  1	  2	  4	  1	  1	  2	  1	0.62072	  1	0.90000	  0	 12	 30	 31	  0	
12-May-2013	sub2347	2347	  2	  1	 18	  1	  1	  6	  5	  1	  1	  1	  0	0.60777	  0	0.90000	  0	 16	 45	 46	  0	
12-May-2013	sub2347	2347	  2	  1	 19	  1	  1	  3	  3	  5	  1	  1	  1	0.60122	  1	0.90000	  0	 13	 32	 33	  0	
12-May-2013	sub2347	2347	  2	  1	 20	  1	  1	  4	  6	  3	  0	  1	  1	1.40216	  0	0.90000	  1	 14	 44	 51	  0	
12-May-2013	sub2347	2347	  2	  1	 21	  1	  1	  3	  3	  5	  0	  1	  0	0.62908	  1	0.90000	  0	 13	 34	 49	  0	
12-May-2013	sub2347	2347	  2	  1	 22	  1	  1	  5	  2	  5	  1	  1	  1	0.85670	  1	0.90000	  0	 15	 35	 36	  0	
12-May-2013	sub2347	2347	  2	  1	 23	  1	  1	  2	  4	  1	  1	  2	  1	0.72641	  1	0.90000	  0	 12	 30	 31	  0	
12-May-2013	sub2347	2347	  2	  1	 24	  1	  1	  3	  3	  5	  1	  2	  0	0.56992	  0	0.90000	  0	 13	 42	 43	  0	
12-May-2013	sub2347	2347	  2	  1	 25	  1	  1	  6	  5	  1	  0	  1	  1	0.77294	  0	0.90000	  0	 16	 47	 38	  0	
12-May-2013	sub2347	2347	  2	  1	 26	  1	  1	  5	  2	  5	  1	  1	  1	0.69493	  1	0.90000	  0	 15	 35	 36	  0	
12-May-2013	sub2347	2347	  2	  1	 27	  1	  1	  5	  2	  5	  0	  1	  0	0.74871	  1	0.90000	  0	 15	 37	 48	  0	
12-May-2013	sub2347	2347	  2	  1	 28	  1	  1	  4	  6	  3	  1	  1	  0	0.91965	  0	0.90000	  1	 14	 42	 51	  0	
12-May-2013	sub2347	2347	  2	  1	 29	  1	  1	  5	  2	  5	  0	  1	  0	0.49117	  1	0.90000	  0	 15	 37	 48	  1	
12-May-2013	sub2347	2347	  2	  1	 30	  1	  1	  4	  6	  3	  1	  2	  1	0.78744	  1	0.90000	  0	 14	 32	 33	  0	
12-May-2013	sub2347	2347	  2	  1	 31	  1	  1	  2	  4	  1	  1	  2	  1	0.82545	  1	0.90000	  0	 12	 30	 31	  0	
12-May-2013	sub2347	2347	  2	  1	 32	  1	  1	  2	  4	  1	  1	  2	  1	0.57705	  1	0.90000	  0	 12	 30	 31	  0	
12-May-2013	sub2347	2347	  2	  1	 33	  1	  1	  4	  6	  3	  1	  2	  1	0.59014	  1	0.90000	  0	 14	 32	 33	  0	
12-May-2013	sub2347	2347	  2	  1	 34	  1	  1	  5	  2	  5	  0	  2	  1	0.67807	  0	0.90000	  0	 15	 47	 38	  0	
12-May-2013	sub2347	2347	  2	  1	 35	  1	  1	  5	  2	  5	  0	  2	  1	0.74347	  0	0.90000	  0	 15	 47	 38	  0	
12-May-2013	sub2347	2347	  2	  1	 36	  1	  1	  5	  2	  5	  1	  2	  0	0.97391	  0	0.90000	  1	 15	 45	 51	  0	
12-May-2013	sub2347	2347	  2	  1	 37	  1	  1	  2	  4	  1	  1	  2	  1	0.43370	  1	0.90000	  0	 12	 30	 31	  1	
12-May-2013	sub2347	2347	  2	  1	 38	  1	  1	  5	  2	  5	  1	  2	  0	0.36762	  0	0.90000	  0	 15	 45	 46	  1	
12-May-2013	sub2347	2347	  2	  1	 39	  1	  1	  4	  6	  3	  1	  2	  1	0.47182	  1	0.90000	  0	 14	 32	 33	  1	
12-May-2013	sub2347	2347	  2	  1	 40	  1	  1	  1	  1	  4	  1	  1	  1	0.63581	  1	0.90000	  0	 11	 30	 31	  0	
12-May-2013	sub2347	2347	  2	  1	 41	  1	  1	  1	  1	  4	  1	  1	  1	0.48946	  1	0.90000	  0	 11	 30	 31	  1	
12-May-2013	sub2347	2347	  2	  1	 42	  1	  1	  1	  1	  4	  1	  1	  1	0.53227	  1	0.90000	  0	 11	 30	 31	  0	
12-May-2013	sub2347	2347	  2	  1	 43	  1	  1	  6	  5	  1	  1	  1	  0	0.56313	  0	0.90000	  0	 16	 45	 46	  0	
12-May-2013	sub2347	2347	  2	  1	 44	  1	  1	  2	  4	  1	  1	  2	  1	0.89000	  1	0.90000	  0	 12	 30	 31	  0	
12-May-2013	sub2347	2347	  2	  1	 45	  1	  1	  2	  4	  1	  1	  2	  1	0.55328	  1	0.90000	  0	 12	 30	 31	  0	
12-May-2013	sub2347	2347	  2	  1	 46	  1	  1	  5	  2	  5	  1	  1	  1	0.62123	  1	0.90000	  0	 15	 35	 36	  0	
12-May-2013	sub2347	2347	  2	  1	 47	  1	  1	  1	  1	  4	  1	  1	  1	0.74727	  1	0.90000	  0	 11	 30	 31	  0	
12-May-2013	sub2347	2347	  2	  1	 48	  1	  1	  5	  2	  5	  0	  1	  0	0.83738	  1	0.90000	  0	 15	 37	 48	  0	
12-May-2013	sub2347	2347	  2	  1	 49	  1	  1	  4	  6	  3	  1	  1	  0	0.91503	  0	0.90000	  1	 14	 42	 51	  0	
12-May-2013	sub2347	2347	  2	  1	 50	  1	  1	  3	  3	  5	  0	  1	  0	0.76048	  1	0.90000	  0	 13	 34	 49	  0	
12-May-2013	sub2347	2347	  2	  1	 51	  1	  1	  5	  2	  5	  0	  1	  0	1.02675	  1	0.90000	  1	 15	 37	 51	  0	
12-May-2013	sub2347	2347	  2	  1	 52	  1	  1	  6	  5	  1	  1	  1	  0	0.77526	  0	0.90000	  0	 16	 45	 46	  0	
12-May-2013	sub2347	2347	  2	  1	 53	  1	  1	  4	  6	  3	  1	  2	  1	1.24973	  1	0.90000	  1	 14	 32	 51	  0	
12-May-2013	sub2347	2347	  2	  1	 54	  1	  1	  3	  3	  5	  1	  1	  1	0.59762	  1	0.90000	  0	 13	 32	 33	  0	
12-May-2013	sub2347	2347	  2	  1	 55	  1	  1	  4	  6	  3	  1	  2	  1	0.66295	  1	0.90000	  0	 14	 32	 33	  0	
12-May-2013	sub2347	2347	  2	  1	 56	  1	  1	  2	  4	  1	  1	  2	  1	0.46011	  1	0.90000	  0	 12	 30	 31	  1	
12-May-2013	sub2347	2347	  2	  1	 57	  1	  1	  1	  1	  4	  1	  1	  1	0.49135	  1	0.90000	  0	 11	 30	 31	  1	
12-May-2013	sub2347	2347	  2	  1	 58	  1	  1	  4	  6	  3	  1	  2	  1	0.59085	  1	0.90000	  0	 14	 32	 33	  0	
12-May-2013	sub2347	2347	  2	  1	 59	  1	  1	  4	  6	  3	  0	  2	  0	0.45774	  1	0.90000	  0	 14	 34	 49	  1	
12-May-2013	sub2347	2347	  2	  1	 60	  1	  1	  6	  5	  1	  1	  1	  0	0.61094	  0	0.90000	  0	 16	 45	 46	  0	
12-May-2013	sub2347	2347	  2	  1	 61	  1	  1	  6	  5	  1	  0	  1	  1	1.13909	  0	0.90000	  1	 16	 47	 51	  0	
12-May-2013	sub2347	2347	  2	  1	 62	  1	  1	  5	  2	  5	  1	  1	  1	1.15359	  1	0.90000	  1	 15	 35	 51	  0	
12-May-2013	sub2347	2347	  2	  1	 63	  1	  1	  4	  6	  3	  1	  2	  1	0.59758	  1	0.90000	  0	 14	 32	 33	  0	
12-May-2013	sub2347	2347	  2	  1	 64	  1	  1	  1	  1	  4	  1	  1	  1	0.65040	  1	0.90000	  0	 11	 30	 31	  0	
12-May-2013	sub2347	2347	  2	  1	 65	  1	  1	  1	  1	  4	  1	  1	  1	0.66037	  1	0.90000	  0	 11	 30	 31	  0	
12-May-2013	sub2347	2347	  2	  1	 66	  1	  1	  2	  4	  1	  1	  2	  1	0.54917	  1	0.90000	  0	 12	 30	 31	  0	
12-May-2013	sub2347	2347	  2	  1	 67	  1	  1	  6	  5	  1	  0	  1	  1	0.55554	  0	0.90000	  0	 16	 47	 38	  0	
12-May-2013	sub2347	2347	  2	  1	 68	  1	  1	  1	  1	  4	  1	  1	  1	0.70946	  1	0.90000	  0	 11	 30	 31	  0	
12-May-2013	sub2347	2347	  2	  1	 69	  1	  1	  6	  5	  1	  1	  1	  0	0.55182	  0	0.90000	  0	 16	 45	 46	  0	
12-May-2013	sub2347	2347	  2	  1	 70	  1	  1	  6	  5	  1	  0	  1	  1	0.66250	  0	0.90000	  0	 16	 47	 38	  0	
12-May-2013	sub2347	2347	  2	  1	 71	  1	  1	  3	  3	  5	  1	  1	  1	0.85331	  1	0.90000	  0	 13	 32	 33	  0	
12-May-2013	sub2347	2347	  2	  1	 72	  1	  1	  3	  3	  5	  1	  1	  1	0.76097	  1	0.90000	  0	 13	 32	 33	  0	
12-May-2013	sub2347	2347	  2	  1	 73	  1	  1	  2	  4	  1	  1	  2	  1	0.58669	  1	0.90000	  0	 12	 30	 31	  0	
12-May-2013	sub2347	2347	  2	  1	 74	  1	  1	  2	  4	  1	  1	  2	  1	0.54220	  1	0.90000	  0	 12	 30	 31	  0	
12-May-2013	sub2347	2347	  2	  1	 75	  1	  1	  1	  1	  4	  1	  1	  1	0.72765	  1	0.90000	  0	 11	 30	 31	  0	
12-May-2013	sub2347	2347	  2	  1	  1	  2	  1	  4	  6	  2	  1	  1	  0	0.66408	  0	0.60000	  1	 14	 42	 51	  0	
12-May-2013	sub2347	2347	  2	  1	  2	  2	  1	  1	  4	  4	  1	  1	  1	0.53423	  1	0.90000	  0	 11	 30	 31	  0	
12-May-2013	sub2347	2347	  2	  1	  3	  2	  1	  1	  4	  4	  1	  1	  1	0.42720	  1	0.90000	  0	 11	 30	 31	  1	
12-May-2013	sub2347	2347	  2	  1	  4	  2	  1	  6	  3	  6	  0	  2	  0	0.52625	  1	0.90000	  0	 16	 37	 48	  0	
12-May-2013	sub2347	2347	  2	  1	  5	  2	  1	  6	  3	  6	  1	  2	  1	0.45454	  1	0.90000	  0	 16	 35	 36	  1	
12-May-2013	sub2347	2347	  2	  1	  6	  2	  1	  2	  2	  6	  1	  1	  0	0.46191	  0	0.90000	  0	 12	 40	 41	  1	
12-May-2013	sub2347	2347	  2	  1	  7	  2	  1	  2	  2	  6	  1	  2	  1	0.58482	  1	0.90000	  0	 12	 30	 31	  0	
12-May-2013	sub2347	2347	  2	  1	  8	  2	  1	  1	  4	  4	  1	  1	  1	0.59784	  1	0.90000	  0	 11	 30	 31	  0	
12-May-2013	sub2347	2347	  2	  1	  9	  2	  1	  2	  2	  6	  1	  2	  1	0.64336	  1	0.90000	  0	 12	 30	 31	  0	
12-May-2013	sub2347	2347	  2	  1	 10	  2	  1	  1	  4	  4	  1	  1	  1	0.70199	  1	0.90000	  0	 11	 30	 31	  0	
12-May-2013	sub2347	2347	  2	  1	 11	  2	  1	  2	  2	  6	  1	  2	  1	0.50682	  1	0.90000	  0	 12	 30	 31	  0	
12-May-2013	sub2347	2347	  2	  1	 12	  2	  1	  5	  5	  4	  0	  1	  0	0.64822	  1	0.90000	  0	 15	 37	 48	  0	
12-May-2013	sub2347	2347	  2	  1	 13	  2	  1	  6	  3	  6	  0	  2	  0	0.56991	  1	0.90000	  0	 16	 37	 48	  0	
12-May-2013	sub2347	2347	  2	  1	 14	  2	  1	  4	  6	  2	  0	  1	  1	0.66404	  0	0.90000	  0	 14	 44	 39	  0	
12-May-2013	sub2347	2347	  2	  1	 15	  2	  1	  4	  6	  2	  1	  1	  0	0.58911	  0	0.90000	  0	 14	 42	 43	  0	
12-May-2013	sub2347	2347	  2	  1	 16	  2	  1	  4	  6	  2	  1	  1	  0	0.50482	  0	0.80000	  0	 14	 42	 43	  0	
12-May-2013	sub2347	2347	  2	  1	 17	  2	  1	  2	  2	  6	  1	  2	  1	0.85154	  1	0.80000	  1	 12	 30	 51	  0	
12-May-2013	sub2347	2347	  2	  1	 18	  2	  1	  5	  5	  4	  0	  1	  0	0.55435	  1	0.90000	  0	 15	 37	 48	  0	
12-May-2013	sub2347	2347	  2	  1	 19	  2	  1	  3	  1	  3	  0	  1	  0	0.73051	  1	0.90000	  0	 13	 34	 49	  0	
12-May-2013	sub2347	2347	  2	  1	 20	  2	  1	  2	  2	  6	  1	  2	  1	0.83413	  1	0.90000	  0	 12	 30	 31	  0	
12-May-2013	sub2347	2347	  2	  1	 21	  2	  1	  1	  4	  4	  1	  1	  1	0.66372	  1	0.90000	  0	 11	 30	 31	  0	
12-May-2013	sub2347	2347	  2	  1	 22	  2	  1	  3	  1	  3	  0	  2	  1	0.90280	  0	0.90000	  1	 13	 44	 51	  0	
12-May-2013	sub2347	2347	  2	  1	 23	  2	  1	  6	  3	  6	  1	  2	  1	0.63769	  1	0.90000	  0	 16	 35	 36	  0	
12-May-2013	sub2347	2347	  2	  1	 24	  2	  1	  2	  2	  6	  1	  2	  1	0.52824	  1	0.90000	  0	 12	 30	 31	  0	
12-May-2013	sub2347	2347	  2	  1	 25	  2	  1	  4	  6	  2	  1	  1	  0	0.60580	  0	0.90000	  0	 14	 42	 43	  0	
12-May-2013	sub2347	2347	  2	  1	 26	  2	  1	  2	  2	  6	  1	  2	  1	1.03083	  1	0.90000	  1	 12	 30	 51	  0	
12-May-2013	sub2347	2347	  2	  1	 27	  2	  1	  2	  2	  6	  1	  2	  1	0.57873	  1	0.90000	  0	 12	 30	 31	  0	
12-May-2013	sub2347	2347	  2	  1	 28	  2	  1	  2	  2	  6	  1	  2	  1	0.52427	  1	0.90000	  0	 12	 30	 31	  0	
12-May-2013	sub2347	2347	  2	  1	 29	  2	  1	  1	  4	  4	  1	  1	  1	0.66355	  1	0.90000	  0	 11	 30	 31	  0	
12-May-2013	sub2347	2347	  2	  1	 30	  2	  1	  6	  3	  6	  1	  1	  0	0.57745	  0	0.90000	  0	 16	 45	 46	  0	
12-May-2013	sub2347	2347	  2	  1	 31	  2	  1	  5	  5	  4	  0	  2	  1	0.70692	  0	0.90000	  0	 15	 47	 38	  0	
12-May-2013	sub2347	2347	  2	  1	 32	  2	  1	  3	  1	  3	  1	  1	  1	0.61333	  1	0.90000	  0	 13	 32	 33	  0	
12-May-2013	sub2347	2347	  2	  1	 33	  2	  1	  1	  4	  4	  1	  1	  1	0.66300	  1	0.90000	  0	 11	 30	 31	  0	
12-May-2013	sub2347	2347	  2	  1	 34	  2	  1	  6	  3	  6	  1	  2	  1	0.56644	  1	0.90000	  0	 16	 35	 36	  0	
12-May-2013	sub2347	2347	  2	  1	 35	  2	  1	  6	  3	  6	  0	  2	  0	0.48531	  1	0.90000	  0	 16	 37	 48	  1	
12-May-2013	sub2347	2347	  2	  1	 36	  2	  1	  5	  5	  4	  1	  1	  1	0.56479	  1	0.90000	  0	 15	 35	 36	  0	
12-May-2013	sub2347	2347	  2	  1	 37	  2	  1	  4	  6	  2	  1	  2	  1	0.70549	  1	0.90000	  0	 14	 32	 33	  0	
12-May-2013	sub2347	2347	  2	  1	 38	  2	  1	  3	  1	  3	  1	  1	  1	0.56146	  1	0.90000	  0	 13	 32	 33	  0	
12-May-2013	sub2347	2347	  2	  1	 39	  2	  1	  3	  1	  3	  1	  1	  1	0.57900	  1	0.90000	  0	 13	 32	 33	  0	
12-May-2013	sub2347	2347	  2	  1	 40	  2	  1	  3	  1	  3	  1	  1	  1	0.53887	  1	0.90000	  0	 13	 32	 33	  0	
12-May-2013	sub2347	2347	  2	  1	 41	  2	  1	  4	  6	  2	  1	  1	  0	0.70848	  0	0.90000	  0	 14	 42	 43	  0	
12-May-2013	sub2347	2347	  2	  1	 42	  2	  1	  3	  1	  3	  0	  1	  0	0.63682	  1	0.90000	  0	 13	 34	 49	  0	
12-May-2013	sub2347	2347	  2	  1	 43	  2	  1	  1	  4	  4	  1	  1	  1	0.57825	  1	0.90000	  0	 11	 30	 31	  0	
12-May-2013	sub2347	2347	  2	  1	 44	  2	  1	  3	  1	  3	  1	  1	  1	0.59487	  1	0.90000	  0	 13	 32	 33	  0	
12-May-2013	sub2347	2347	  2	  1	 45	  2	  1	  2	  2	  6	  1	  2	  1	0.52971	  1	0.90000	  0	 12	 30	 31	  0	
12-May-2013	sub2347	2347	  2	  1	 46	  2	  1	  6	  3	  6	  0	  2	  0	0.58578	  1	0.90000	  0	 16	 37	 48	  0	
12-May-2013	sub2347	2347	  2	  1	 47	  2	  1	  6	  3	  6	  0	  2	  0	0.46869	  1	0.90000	  0	 16	 37	 48	  1	
12-May-2013	sub2347	2347	  2	  1	 48	  2	  1	  5	  5	  4	  0	  1	  0	0.88490	  1	0.90000	  0	 15	 37	 48	  0	
12-May-2013	sub2347	2347	  2	  1	 49	  2	  1	  5	  5	  4	  0	  1	  0	0.40569	  1	0.90000	  0	 15	 37	 48	  1	
12-May-2013	sub2347	2347	  2	  1	 50	  2	  1	  2	  2	  6	  1	  1	  0	0.58596	  0	0.90000	  0	 12	 40	 41	  0	
12-May-2013	sub2347	2347	  2	  1	 51	  2	  1	  5	  5	  4	  1	  2	  0	0.84047	  0	0.90000	  0	 15	 45	 46	  0	
12-May-2013	sub2347	2347	  2	  1	 52	  2	  1	  5	  5	  4	  1	  2	  0	0.44355	  0	0.90000	  0	 15	 45	 46	  1	
12-May-2013	sub2347	2347	  2	  1	 53	  2	  1	  4	  6	  2	  1	  2	  1	0.39733	  1	0.90000	  0	 14	 32	 33	  1	
12-May-2013	sub2347	2347	  2	  1	 54	  2	  1	  4	  6	  2	  1	  1	  0	0.57637	  0	0.90000	  0	 14	 42	 43	  0	
12-May-2013	sub2347	2347	  2	  1	 55	  2	  1	  3	  1	  3	  1	  1	  1	0.60861	  1	0.90000	  0	 13	 32	 33	  0	
12-May-2013	sub2347	2347	  2	  1	 56	  2	  1	  3	  1	  3	  1	  1	  1	0.53997	  1	0.90000	  0	 13	 32	 33	  0	
12-May-2013	sub2347	2347	  2	  1	 57	  2	  1	  1	  4	  4	  1	  2	  0	0.68046	  0	0.90000	  0	 11	 40	 41	  0	
12-May-2013	sub2347	2347	  2	  1	 58	  2	  1	  5	  5	  4	  0	  2	  1	0.70149	  0	0.90000	  0	 15	 47	 38	  0	
12-May-2013	sub2347	2347	  2	  1	 59	  2	  1	  5	  5	  4	  1	  2	  0	0.46525	  0	0.80000	  0	 15	 45	 46	  1	
12-May-2013	sub2347	2347	  2	  1	 60	  2	  1	  6	  3	  6	  1	  2	  1	0.49225	  1	0.80000	  0	 16	 35	 36	  1	
12-May-2013	sub2347	2347	  2	  1	 61	  2	  1	  3	  1	  3	  1	  1	  1	0.53770	  1	0.80000	  0	 13	 32	 33	  0	
12-May-2013	sub2347	2347	  2	  1	 62	  2	  1	  5	  5	  4	  1	  1	  1	0.71446	  1	0.80000	  0	 15	 35	 36	  0	
12-May-2013	sub2347	2347	  2	  1	 63	  2	  1	  6	  3	  6	  0	  2	  0	0.59588	  1	0.80000	  0	 16	 37	 48	  0	
12-May-2013	sub2347	2347	  2	  1	 64	  2	  1	  6	  3	  6	  1	  2	  1	0.59614	  1	0.80000	  0	 16	 35	 36	  0	
12-May-2013	sub2347	2347	  2	  1	 65	  2	  1	  6	  3	  6	  0	  2	  0	0.41519	  1	0.80000	  0	 16	 37	 48	  1	
12-May-2013	sub2347	2347	  2	  1	 66	  2	  1	  4	  6	  2	  1	  2	  1	0.37701	  1	0.80000	  0	 14	 32	 33	  1	
12-May-2013	sub2347	2347	  2	  1	 67	  2	  1	  1	  4	  4	  1	  1	  1	0.56261	  1	0.80000	  0	 11	 30	 31	  0	
12-May-2013	sub2347	2347	  2	  1	 68	  2	  1	  1	  4	  4	  1	  1	  1	0.62054	  1	0.70000	  0	 11	 30	 31	  0	
12-May-2013	sub2347	2347	  2	  1	 69	  2	  1	  3	  1	  3	  1	  1	  1	0.53054	  1	0.70000	  0	 13	 32	 33	  0	
12-May-2013	sub2347	2347	  2	  1	 70	  2	  1	  2	  2	  6	  1	  2	  1	0.54435	  1	0.70000	  0	 12	 30	 31	  0	
12-May-2013	sub2347	2347	  2	  1	 71	  2	  1	  1	  4	  4	  1	  1	  1	0.54687	  1	0.70000	  0	 11	 30	 31	  0	
12-May-2013	sub2347	2347	  2	  1	 72	  2	  1	  4	  6	  2	  1	  2	  1	0.49806	  1	0.70000	  0	 14	 32	 33	  1	
12-May-2013	sub2347	2347	  2	  1	 73	  2	  1	  4	  6	  2	  0	  1	  1	0.63425	  0	0.70000	  0	 14	 44	 39	  0	
12-May-2013	sub2347	2347	  2	  1	 74	  2	  1	  3	  1	  3	  1	  1	  1	0.51837	  1	0.70000	  0	 13	 32	 33	  0	
12-May-2013	sub2347	2347	  2	  1	 75	  2	  1	  5	  5	  4	  1	  2	  0	0.81507	  0	0.70000	  1	 15	 45	 51	  0	
12-May-2013	sub2347	2347	  2	  1	 76	  2	  2	  3	  1	  3	  1	  1	  1	0.49514	  1	0.80000	  0	 23	 62	 63	  1	
12-May-2013	sub2347	2347	  2	  1	 77	  2	  2	  1	  4	  4	  1	  1	  1	0.67081	  1	0.80000	  0	 21	 60	 61	  0	
12-May-2013	sub2347	2347	  2	  1	 78	  2	  2	  4	  6	  2	  1	  2	  1	0.49262	  1	0.80000	  0	 24	 62	 63	  1	
12-May-2013	sub2347	2347	  2	  1	 79	  2	  2	  6	  3	  6	  1	  2	  1	0.53739	  1	0.80000	  0	 26	 65	 66	  0	
12-May-2013	sub2347	2347	  2	  1	 80	  2	  2	  6	  3	  6	  1	  2	  1	0.43453	  1	0.80000	  0	 26	 65	 66	  1	
12-May-2013	sub2347	2347	  2	  1	 81	  2	  2	  4	  6	  2	  1	  2	  1	0.71096	  1	0.80000	  0	 24	 62	 63	  0	
12-May-2013	sub2347	2347	  2	  1	 82	  2	  2	  3	  1	  3	  1	  1	  1	0.56741	  1	0.80000	  0	 23	 62	 63	  0	
12-May-2013	sub2347	2347	  2	  1	 83	  2	  2	  5	  5	  4	  0	  1	  0	0.72329	  1	0.80000	  0	 25	 67	 88	  0	
12-May-2013	sub2347	2347	  2	  1	 84	  2	  2	  3	  1	  3	  1	  1	  1	0.54392	  1	0.80000	  0	 23	 62	 63	  0	
12-May-2013	sub2347	2347	  2	  1	 85	  2	  2	  4	  6	  2	  1	  2	  1	0.54325	  1	0.70000	  0	 24	 62	 63	  0	
12-May-2013	sub2347	2347	  2	  1	 86	  2	  2	  1	  4	  4	  1	  2	  0	0.56184	  0	0.70000	  0	 21	 80	 81	  0	
12-May-2013	sub2347	2347	  2	  1	 87	  2	  2	  3	  1	  3	  0	  1	  0	0.50817	  1	0.70000	  0	 23	 64	 89	  0	
12-May-2013	sub2347	2347	  2	  1	 88	  2	  2	  2	  2	  6	  1	  2	  1	0.62050	  1	0.70000	  0	 22	 60	 61	  0	
12-May-2013	sub2347	2347	  2	  1	 89	  2	  2	  3	  1	  3	  1	  1	  1	0.51834	  1	0.70000	  0	 23	 62	 63	  0	
12-May-2013	sub2347	2347	  2	  1	 90	  2	  2	  3	  1	  3	  0	  1	  0	0.60180	  1	0.70000	  0	 23	 64	 89	  0	
12-May-2013	sub2347	2347	  2	  1	 91	  2	  2	  2	  2	  6	  1	  2	  1	0.50868	  1	0.70000	  0	 22	 60	 61	  0	
12-May-2013	sub2347	2347	  2	  1	 92	  2	  2	  6	  3	  6	  1	  2	  1	0.50817	  1	0.70000	  0	 26	 65	 66	  0	
12-May-2013	sub2347	2347	  2	  1	 93	  2	  2	  1	  4	  4	  1	  1	  1	0.60275	  1	0.70000	  0	 21	 60	 61	  0	
12-May-2013	sub2347	2347	  2	  1	 94	  2	  2	  5	  5	  4	  0	  2	  1	0.69653	  0	0.70000	  0	 25	 87	 68	  0	
12-May-2013	sub2347	2347	  2	  1	 95	  2	  2	  5	  5	  4	  0	  2	  1	0.46604	  0	0.70000	  0	 25	 87	 68	  1	
12-May-2013	sub2347	2347	  2	  1	 96	  2	  2	  3	  1	  3	  1	  1	  1	0.59402	  1	0.70000	  0	 23	 62	 63	  0	
12-May-2013	sub2347	2347	  2	  1	 97	  2	  2	  6	  3	  6	  0	  2	  0	0.56687	  1	0.70000	  0	 26	 67	 88	  0	
12-May-2013	sub2347	2347	  2	  1	 98	  2	  2	  4	  6	  2	  1	  2	  1	0.80218	  1	0.70000	  1	 24	 62	 51	  0	
12-May-2013	sub2347	2347	  2	  1	 99	  2	  2	  5	  5	  4	  0	  1	  0	0.69197	  1	0.80000	  0	 25	 67	 88	  0	
12-May-2013	sub2347	2347	  2	  1	100	  2	  2	  2	  2	  6	  1	  2	  1	0.60473	  1	0.80000	  0	 22	 60	 61	  0	
12-May-2013	sub2347	2347	  2	  1	101	  2	  2	  1	  4	  4	  1	  2	  0	0.44702	  0	0.70000	  0	 21	 80	 81	  1	
12-May-2013	sub2347	2347	  2	  1	102	  2	  2	  1	  4	  4	  1	  1	  1	0.51321	  1	0.70000	  0	 21	 60	 61	  0	
12-May-2013	sub2347	2347	  2	  1	103	  2	  2	  5	  5	  4	  0	  1	  0	0.52385	  1	0.70000	  0	 25	 67	 88	  0	
12-May-2013	sub2347	2347	  2	  1	104	  2	  2	  2	  2	  6	  1	  2	  1	0.55804	  1	0.70000	  0	 22	 60	 61	  0	
12-May-2013	sub2347	2347	  2	  1	105	  2	  2	  1	  4	  4	  1	  1	  1	0.54439	  1	0.70000	  0	 21	 60	 61	  0	
12-May-2013	sub2347	2347	  2	  1	106	  2	  2	  1	  4	  4	  1	  2	  0	1.02433	  0	0.70000	  1	 21	 80	 51	  0	
12-May-2013	sub2347	2347	  2	  1	107	  2	  2	  1	  4	  4	  1	  1	  1	0.48814	  1	0.80000	  0	 21	 60	 61	  1	
12-May-2013	sub2347	2347	  2	  1	108	  2	  2	  2	  2	  6	  1	  2	  1	0.66502	  1	0.80000	  0	 22	 60	 61	  0	
12-May-2013	sub2347	2347	  2	  1	109	  2	  2	  3	  1	  3	  1	  1	  1	0.52957	  1	0.80000	  0	 23	 62	 63	  0	
12-May-2013	sub2347	2347	  2	  1	110	  2	  2	  4	  6	  2	  1	  2	  1	0.61385	  1	0.80000	  0	 24	 62	 63	  0	
12-May-2013	sub2347	2347	  2	  1	111	  2	  2	  3	  1	  3	  1	  1	  1	0.54922	  1	0.80000	  0	 23	 62	 63	  0	
12-May-2013	sub2347	2347	  2	  1	112	  2	  2	  4	  6	  2	  1	  2	  1	0.60414	  1	0.80000	  0	 24	 62	 63	  0	
12-May-2013	sub2347	2347	  2	  1	113	  2	  2	  4	  6	  2	  0	  2	  0	0.38810	  1	0.80000	  0	 24	 64	 89	  1	
12-May-2013	sub2347	2347	  2	  1	114	  2	  2	  5	  5	  4	  0	  1	  0	0.50992	  1	0.80000	  0	 25	 67	 88	  0	
12-May-2013	sub2347	2347	  2	  1	115	  2	  2	  1	  4	  4	  1	  1	  1	0.64074	  1	0.80000	  0	 21	 60	 61	  0	
12-May-2013	sub2347	2347	  2	  1	116	  2	  2	  2	  2	  6	  1	  1	  0	0.46760	  0	0.80000	  0	 22	 80	 81	  1	
12-May-2013	sub2347	2347	  2	  1	117	  2	  2	  6	  3	  6	  0	  2	  0	0.54466	  1	0.80000	  0	 26	 67	 88	  0	
12-May-2013	sub2347	2347	  2	  1	118	  2	  2	  2	  2	  6	  1	  2	  1	0.47347	  1	0.70000	  0	 22	 60	 61	  1	
12-May-2013	sub2347	2347	  2	  1	119	  2	  2	  5	  5	  4	  0	  2	  1	0.62508	  0	0.70000	  0	 25	 87	 68	  0	
12-May-2013	sub2347	2347	  2	  1	120	  2	  2	  2	  2	  6	  1	  2	  1	0.55437	  1	0.70000	  0	 22	 60	 61	  0	
12-May-2013	sub2347	2347	  2	  1	121	  2	  2	  2	  2	  6	  1	  2	  1	0.46029	  1	0.70000	  0	 22	 60	 61	  1	
12-May-2013	sub2347	2347	  2	  1	122	  2	  2	  4	  6	  2	  0	  2	  0	0.58275	  1	0.70000	  0	 24	 64	 89	  0	
12-May-2013	sub2347	2347	  2	  1	123	  2	  2	  6	  3	  6	  0	  2	  0	0.48297	  1	0.70000	  0	 26	 67	 88	  1	
12-May-2013	sub2347	2347	  2	  1	124	  2	  2	  1	  4	  4	  1	  2	  0	0.38472	  0	0.70000	  0	 21	 80	 81	  1	
12-May-2013	sub2347	2347	  2	  1	125	  2	  2	  3	  1	  3	  1	  1	  1	0.60656	  1	0.70000	  0	 23	 62	 63	  0	
12-May-2013	sub2347	2347	  2	  1	126	  2	  2	  5	  5	  4	  0	  1	  0	0.51025	  1	0.70000	  0	 25	 67	 88	  0	
12-May-2013	sub2347	2347	  2	  1	127	  2	  2	  5	  5	  4	  0	  2	  1	0.44483	  0	0.70000	  0	 25	 87	 68	  1	
12-May-2013	sub2347	2347	  2	  1	128	  2	  2	  4	  6	  2	  1	  2	  1	0.55990	  1	0.70000	  0	 24	 62	 63	  0	
12-May-2013	sub2347	2347	  2	  1	129	  2	  2	  4	  6	  2	  0	  2	  0	0.47962	  1	0.70000	  0	 24	 64	 89	  1	
12-May-2013	sub2347	2347	  2	  1	130	  2	  2	  2	  2	  6	  1	  2	  1	0.78434	  1	0.70000	  1	 22	 60	 51	  0	
12-May-2013	sub2347	2347	  2	  1	131	  2	  2	  4	  6	  2	  1	  2	  1	0.55886	  1	0.80000	  0	 24	 62	 63	  0	
12-May-2013	sub2347	2347	  2	  1	132	  2	  2	  6	  3	  6	  1	  2	  1	0.56312	  1	0.80000	  0	 26	 65	 66	  0	
12-May-2013	sub2347	2347	  2	  1	133	  2	  2	  3	  1	  3	  1	  1	  1	0.55648	  1	0.80000	  0	 23	 62	 63	  0	
12-May-2013	sub2347	2347	  2	  1	134	  2	  2	  5	  5	  4	  0	  1	  0	0.63169	  1	0.80000	  0	 25	 67	 88	  0	
12-May-2013	sub2347	2347	  2	  1	135	  2	  2	  5	  5	  4	  0	  2	  1	0.50362	  0	0.70000	  0	 25	 87	 68	  0	
12-May-2013	sub2347	2347	  2	  1	136	  2	  2	  6	  3	  6	  0	  2	  0	0.58155	  1	0.70000	  0	 26	 67	 88	  0	
12-May-2013	sub2347	2347	  2	  1	137	  2	  2	  4	  6	  2	  1	  2	  1	0.50453	  1	0.70000	  0	 24	 62	 63	  0	
12-May-2013	sub2347	2347	  2	  1	138	  2	  2	  1	  4	  4	  1	  1	  1	0.57502	  1	0.70000	  0	 21	 60	 61	  0	
12-May-2013	sub2347	2347	  2	  1	139	  2	  2	  3	  1	  3	  1	  1	  1	0.58357	  1	0.70000	  0	 23	 62	 63	  0	
12-May-2013	sub2347	2347	  2	  1	140	  2	  2	  5	  5	  4	  0	  2	  1	0.78541	  0	0.70000	  1	 25	 87	 51	  0	
12-May-2013	sub2347	2347	  2	  1	141	  2	  2	  1	  4	  4	  1	  1	  1	0.56943	  1	0.80000	  0	 21	 60	 61	  0	
12-May-2013	sub2347	2347	  2	  1	142	  2	  2	  1	  4	  4	  1	  1	  1	0.71437	  1	0.80000	  0	 21	 60	 61	  0	
12-May-2013	sub2347	2347	  2	  1	143	  2	  2	  5	  5	  4	  0	  2	  1	0.55442	  0	0.80000	  0	 25	 87	 68	  0	
12-May-2013	sub2347	2347	  2	  1	144	  2	  2	  6	  3	  6	  0	  2	  0	0.50812	  1	0.80000	  0	 26	 67	 88	  0	
12-May-2013	sub2347	2347	  2	  1	145	  2	  2	  2	  2	  6	  1	  2	  1	0.72840	  1	0.80000	  0	 22	 60	 61	  0	
12-May-2013	sub2347	2347	  2	  1	146	  2	  2	  4	  6	  2	  1	  2	  1	0.50500	  1	0.80000	  0	 24	 62	 63	  0	
12-May-2013	sub2347	2347	  2	  1	147	  2	  2	  6	  3	  6	  1	  1	  0	0.58666	  0	0.80000	  0	 26	 85	 86	  0	
12-May-2013	sub2347	2347	  2	  1	148	  2	  2	  2	  2	  6	  1	  2	  1	0.54141	  1	0.80000	  0	 22	 60	 61	  0	
12-May-2013	sub2347	2347	  2	  1	149	  2	  2	  6	  3	  6	  0	  2	  0	0.43615	  1	0.80000	  0	 26	 67	 88	  1	
12-May-2013	sub2347	2347	  2	  1	150	  2	  2	  6	  3	  6	  1	  2	  1	0.43187	  1	0.80000	  0	 26	 65	 66	  1	
12-May-2013	sub2347	2347	  2	  1	  1	  3	  1	  3	  6	  1	  1	  1	  1	0.47534	  1	0.60000	  0	 13	 32	 33	  1	
12-May-2013	sub2347	2347	  2	  1	  2	  3	  1	  6	  1	  2	  0	  2	  0	0.58944	  1	0.30000	  1	 16	 37	 51	  0	
12-May-2013	sub2347	2347	  2	  1	  3	  3	  1	  4	  4	  3	  0	  2	  0	0.46018	  1	0.90000	  0	 14	 34	 49	  1	
12-May-2013	sub2347	2347	  2	  1	  4	  3	  1	  4	  4	  3	  1	  1	  0	0.62284	  0	0.90000	  0	 14	 42	 43	  0	
12-May-2013	sub2347	2347	  2	  1	  5	  3	  1	  4	  4	  3	  1	  1	  0	0.42977	  0	0.90000	  0	 14	 42	 43	  1	
12-May-2013	sub2347	2347	  2	  1	  6	  3	  1	  4	  4	  3	  1	  2	  1	0.40718	  1	0.90000	  0	 14	 32	 33	  1	
12-May-2013	sub2347	2347	  2	  1	  7	  3	  1	  6	  1	  2	  0	  2	  0	0.69165	  1	0.90000	  0	 16	 37	 48	  0	
12-May-2013	sub2347	2347	  2	  1	  8	  3	  1	  4	  4	  3	  1	  2	  1	0.73376	  1	0.90000	  0	 14	 32	 33	  0	
12-May-2013	sub2347	2347	  2	  1	  9	  3	  1	  3	  6	  1	  1	  1	  1	0.58833	  1	0.90000	  0	 13	 32	 33	  0	
12-May-2013	sub2347	2347	  2	  1	 10	  3	  1	  6	  1	  2	  0	  1	  1	0.49365	  0	0.90000	  0	 16	 47	 38	  1	
12-May-2013	sub2347	2347	  2	  1	 11	  3	  1	  4	  4	  3	  1	  2	  1	0.40745	  1	0.90000	  0	 14	 32	 33	  1	
12-May-2013	sub2347	2347	  2	  1	 12	  3	  1	  2	  2	  3	  1	  2	  1	0.60075	  1	0.90000	  0	 12	 30	 31	  0	
12-May-2013	sub2347	2347	  2	  1	 13	  3	  1	  3	  6	  1	  1	  1	  1	0.55000	  1	0.90000	  0	 13	 32	 33	  0	
12-May-2013	sub2347	2347	  2	  1	 14	  3	  1	  5	  5	  3	  0	  1	  0	0.43471	  1	0.90000	  0	 15	 37	 48	  1	
12-May-2013	sub2347	2347	  2	  1	 15	  3	  1	  1	  3	  3	  1	  1	  1	0.64538	  1	0.90000	  0	 11	 30	 31	  0	
12-May-2013	sub2347	2347	  2	  1	 16	  3	  1	  4	  4	  3	  1	  2	  1	0.63503	  1	0.80000	  0	 14	 32	 33	  0	
12-May-2013	sub2347	2347	  2	  1	 17	  3	  1	  3	  6	  1	  1	  1	  1	0.52611	  1	0.80000	  0	 13	 32	 33	  0	
12-May-2013	sub2347	2347	  2	  1	 18	  3	  1	  5	  5	  3	  1	  2	  0	0.61546	  0	0.70000	  0	 15	 45	 46	  0	
12-May-2013	sub2347	2347	  2	  1	 19	  3	  1	  2	  2	  3	  1	  2	  1	0.68230	  1	0.70000	  0	 12	 30	 31	  0	
12-May-2013	sub2347	2347	  2	  1	 20	  3	  1	  1	  3	  3	  1	  2	  0	0.69951	  0	0.70000	  0	 11	 40	 41	  0	
12-May-2013	sub2347	2347	  2	  1	 21	  3	  1	  1	  3	  3	  1	  1	  1	0.43210	  1	0.60000	  0	 11	 30	 31	  1	
12-May-2013	sub2347	2347	  2	  1	 22	  3	  1	  6	  1	  2	  1	  1	  0	0.67945	  0	0.60000	  1	 16	 45	 51	  0	
12-May-2013	sub2347	2347	  2	  1	 23	  3	  1	  1	  3	  3	  1	  1	  1	0.53408	  1	0.90000	  0	 11	 30	 31	  0	
12-May-2013	sub2347	2347	  2	  1	 24	  3	  1	  6	  1	  2	  1	  1	  0	0.38694	  0	0.90000	  0	 16	 45	 46	  1	
12-May-2013	sub2347	2347	  2	  1	 25	  3	  1	  2	  2	  3	  1	  1	  0	0.74045	  0	0.90000	  0	 12	 40	 41	  0	
12-May-2013	sub2347	2347	  2	  1	 26	  3	  1	  6	  1	  2	  1	  1	  0	0.49108	  0	0.90000	  0	 16	 45	 46	  1	
12-May-2013	sub2347	2347	  2	  1	 27	  3	  1	  4	  4	  3	  1	  2	  1	0.52625	  1	0.90000	  0	 14	 32	 33	  0	
12-May-2013	sub2347	2347	  2	  1	 28	  3	  1	  5	  5	  3	  1	  1	  1	0.87576	  1	0.90000	  0	 15	 35	 36	  0	
12-May-2013	sub2347	2347	  2	  1	 29	  3	  1	  1	  3	  3	  1	  2	  0	0.71158	  0	0.90000	  0	 11	 40	 41	  0	
12-May-2013	sub2347	2347	  2	  1	 30	  3	  1	  6	  1	  2	  0	  1	  1	0.57094	  0	0.80000	  0	 16	 47	 38	  0	
12-May-2013	sub2347	2347	  2	  1	 31	  3	  1	  3	  6	  1	  1	  1	  1	0.47808	  1	0.80000	  0	 13	 32	 33	  1	
12-May-2013	sub2347	2347	  2	  1	 32	  3	  1	  5	  5	  3	  1	  2	  0	0.56051	  0	0.80000	  0	 15	 45	 46	  0	
12-May-2013	sub2347	2347	  2	  1	 33	  3	  1	  5	  5	  3	  1	  2	  0	0.52496	  0	0.80000	  0	 15	 45	 46	  0	
12-May-2013	sub2347	2347	  2	  1	 34	  3	  1	  5	  5	  3	  0	  1	  0	0.48675	  1	0.80000	  0	 15	 37	 48	  1	
12-May-2013	sub2347	2347	  2	  1	 35	  3	  1	  2	  2	  3	  1	  2	  1	0.74675	  1	0.70000	  1	 12	 30	 51	  0	
12-May-2013	sub2347	2347	  2	  1	 36	  3	  1	  6	  1	  2	  1	  1	  0	0.50875	  0	0.90000	  0	 16	 45	 46	  0	
12-May-2013	sub2347	2347	  2	  1	 37	  3	  1	  5	  5	  3	  1	  2	  0	0.62254	  0	0.90000	  0	 15	 45	 46	  0	
12-May-2013	sub2347	2347	  2	  1	 38	  3	  1	  3	  6	  1	  1	  1	  1	0.47473	  1	0.90000	  0	 13	 32	 33	  1	
12-May-2013	sub2347	2347	  2	  1	 39	  3	  1	  6	  1	  2	  0	  1	  1	0.52602	  0	0.90000	  0	 16	 47	 38	  0	
12-May-2013	sub2347	2347	  2	  1	 40	  3	  1	  1	  3	  3	  1	  1	  1	0.50692	  1	0.90000	  0	 11	 30	 31	  0	
12-May-2013	sub2347	2347	  2	  1	 41	  3	  1	  3	  6	  1	  1	  1	  1	0.43848	  1	0.90000	  0	 13	 32	 33	  1	
12-May-2013	sub2347	2347	  2	  1	 42	  3	  1	  3	  6	  1	  0	  1	  0	0.36471	  1	0.90000	  0	 13	 34	 49	  1	
12-May-2013	sub2347	2347	  2	  1	 43	  3	  1	  4	  4	  3	  1	  1	  0	0.38285	  0	0.90000	  0	 14	 42	 43	  1	
12-May-2013	sub2347	2347	  2	  1	 44	  3	  1	  4	  4	  3	  1	  2	  1	0.44332	  1	0.80000	  0	 14	 32	 33	  1	
12-May-2013	sub2347	2347	  2	  1	 45	  3	  1	  1	  3	  3	  1	  1	  1	0.54275	  1	0.80000	  0	 11	 30	 31	  0	
12-May-2013	sub2347	2347	  2	  1	 46	  3	  1	  1	  3	  3	  1	  1	  1	0.50814	  1	0.80000	  0	 11	 30	 31	  0	
12-May-2013	sub2347	2347	  2	  1	 47	  3	  1	  2	  2	  3	  1	  2	  1	0.55062	  1	0.80000	  0	 12	 30	 31	  0	
12-May-2013	sub2347	2347	  2	  1	 48	  3	  1	  5	  5	  3	  0	  1	  0	0.62626	  1	0.80000	  0	 15	 37	 48	  0	
12-May-2013	sub2347	2347	  2	  1	 49	  3	  1	  2	  2	  3	  1	  2	  1	0.57106	  1	0.80000	  0	 12	 30	 31	  0	
12-May-2013	sub2347	2347	  2	  1	 50	  3	  1	  5	  5	  3	  1	  1	  1	0.40967	  1	0.80000	  0	 15	 35	 36	  1	
12-May-2013	sub2347	2347	  2	  1	 51	  3	  1	  5	  5	  3	  0	  1	  0	0.50217	  1	0.70000	  0	 15	 37	 48	  0	
12-May-2013	sub2347	2347	  2	  1	 52	  3	  1	  3	  6	  1	  1	  1	  1	0.61044	  1	0.70000	  0	 13	 32	 33	  0	
12-May-2013	sub2347	2347	  2	  1	 53	  3	  1	  2	  2	  3	  1	  2	  1	0.52839	  1	0.70000	  0	 12	 30	 31	  0	
12-May-2013	sub2347	2347	  2	  1	 54	  3	  1	  4	  4	  3	  0	  2	  0	0.58617	  1	0.70000	  0	 14	 34	 49	  0	
12-May-2013	sub2347	2347	  2	  1	 55	  3	  1	  1	  3	  3	  1	  1	  1	0.50622	  1	0.70000	  0	 11	 30	 31	  0	
12-May-2013	sub2347	2347	  2	  1	 56	  3	  1	  2	  2	  3	  1	  2	  1	0.53977	  1	0.70000	  0	 12	 30	 31	  0	
12-May-2013	sub2347	2347	  2	  1	 57	  3	  1	  2	  2	  3	  1	  2	  1	0.47924	  1	0.70000	  0	 12	 30	 31	  1	
12-May-2013	sub2347	2347	  2	  1	 58	  3	  1	  1	  3	  3	  1	  1	  1	0.52799	  1	0.70000	  0	 11	 30	 31	  0	
12-May-2013	sub2347	2347	  2	  1	 59	  3	  1	  6	  1	  2	  1	  1	  0	0.52198	  0	0.70000	  0	 16	 45	 46	  0	
12-May-2013	sub2347	2347	  2	  1	 60	  3	  1	  3	  6	  1	  1	  1	  1	0.51481	  1	0.70000	  0	 13	 32	 33	  0	
12-May-2013	sub2347	2347	  2	  1	 61	  3	  1	  3	  6	  1	  1	  1	  1	0.49243	  1	0.60000	  0	 13	 32	 33	  1	
12-May-2013	sub2347	2347	  2	  1	 62	  3	  1	  2	  2	  3	  1	  2	  1	0.57885	  1	0.60000	  0	 12	 30	 31	  0	
12-May-2013	sub2347	2347	  2	  1	 63	  3	  1	  2	  2	  3	  1	  2	  1	0.43355	  1	0.60000	  0	 12	 30	 31	  1	
12-May-2013	sub2347	2347	  2	  1	 64	  3	  1	  2	  2	  3	  1	  2	  1	0.47201	  1	0.60000	  0	 12	 30	 31	  1	
12-May-2013	sub2347	2347	  2	  1	 65	  3	  1	  5	  5	  3	  1	  1	  1	0.66313	  1	0.60000	  1	 15	 35	 51	  0	
12-May-2013	sub2347	2347	  2	  1	 66	  3	  1	  4	  4	  3	  1	  2	  1	0.49274	  1	0.80000	  0	 14	 32	 33	  1	
12-May-2013	sub2347	2347	  2	  1	 67	  3	  1	  6	  1	  2	  1	  1	  0	0.54233	  0	0.80000	  0	 16	 45	 46	  0	
12-May-2013	sub2347	2347	  2	  1	 68	  3	  1	  3	  6	  1	  0	  1	  0	0.48181	  1	0.70000	  0	 13	 34	 49	  1	
12-May-2013	sub2347	2347	  2	  1	 69	  3	  1	  6	  1	  2	  0	  1	  1	0.43353	  0	0.70000	  0	 16	 47	 38	  1	
12-May-2013	sub2347	2347	  2	  1	 70	  3	  1	  1	  3	  3	  1	  1	  1	0.45954	  1	0.70000	  0	 11	 30	 31	  1	
12-May-2013	sub2347	2347	  2	  1	 71	  3	  1	  5	  5	  3	  0	  1	  0	0.62671	  1	0.70000	  0	 15	 37	 48	  0	
12-May-2013	sub2347	2347	  2	  1	 72	  3	  1	  2	  2	  3	  1	  1	  0	0.39101	  0	0.70000	  0	 12	 40	 41	  1	
12-May-2013	sub2347	2347	  2	  1	 73	  3	  1	  3	  6	  1	  0	  1	  0	0.48540	  1	0.70000	  0	 13	 34	 49	  1	
12-May-2013	sub2347	2347	  2	  1	 74	  3	  1	  6	  1	  2	  0	  1	  1	0.53414	  0	0.70000	  0	 16	 47	 38	  0	
12-May-2013	sub2347	2347	  2	  1	 75	  3	  1	  1	  3	  3	  1	  1	  1	0.47883	  1	0.70000	  0	 11	 30	 31	  1	
12-May-2013	sub2347	2347	  2	  1	 76	  3	  2	  3	  6	  1	  1	  1	  1	0.47730	  1	0.70000	  0	 23	 62	 63	  1	
12-May-2013	sub2347	2347	  2	  1	 77	  3	  2	  6	  1	  2	  1	  1	  0	0.45690	  0	0.70000	  0	 26	 85	 86	  1	
12-May-2013	sub2347	2347	  2	  1	 78	  3	  2	  5	  5	  3	  0	  1	  0	0.47287	  1	0.70000	  0	 25	 67	 88	  1	
12-May-2013	sub2347	2347	  2	  1	 79	  3	  2	  1	  3	  3	  1	  1	  1	0.49607	  1	0.70000	  0	 21	 60	 61	  1	
12-May-2013	sub2347	2347	  2	  1	 80	  3	  2	  5	  5	  3	  0	  2	  1	0.39984	  0	0.70000	  0	 25	 87	 68	  1	
12-May-2013	sub2347	2347	  2	  1	 81	  3	  2	  6	  1	  2	  0	  1	  1	0.49304	  0	0.60000	  0	 26	 87	 68	  1	
12-May-2013	sub2347	2347	  2	  1	 82	  3	  2	  2	  2	  3	  1	  2	  1	0.57590	  1	0.60000	  0	 22	 60	 61	  0	
12-May-2013	sub2347	2347	  2	  1	 83	  3	  2	  1	  3	  3	  1	  1	  1	0.51121	  1	0.60000	  0	 21	 60	 61	  0	
12-May-2013	sub2347	2347	  2	  1	 84	  3	  2	  4	  4	  3	  1	  2	  1	0.56835	  1	0.60000	  0	 24	 62	 63	  0	
12-May-2013	sub2347	2347	  2	  1	 85	  3	  2	  1	  3	  3	  1	  1	  1	0.52061	  1	0.60000	  0	 21	 60	 61	  0	
12-May-2013	sub2347	2347	  2	  1	 86	  3	  2	  4	  4	  3	  0	  2	  0	0.57255	  1	0.60000	  0	 24	 64	 89	  0	
12-May-2013	sub2347	2347	  2	  1	 87	  3	  2	  2	  2	  3	  1	  2	  1	0.55087	  1	0.60000	  0	 22	 60	 61	  0	
12-May-2013	sub2347	2347	  2	  1	 88	  3	  2	  5	  5	  3	  0	  2	  1	0.53481	  0	0.60000	  0	 25	 87	 68	  0	
12-May-2013	sub2347	2347	  2	  1	 89	  3	  2	  1	  3	  3	  1	  1	  1	0.44060	  1	0.60000	  0	 21	 60	 61	  1	
12-May-2013	sub2347	2347	  2	  1	 90	  3	  2	  3	  6	  1	  0	  1	  0	0.51914	  1	0.60000	  0	 23	 64	 89	  0	
12-May-2013	sub2347	2347	  2	  1	 91	  3	  2	  4	  4	  3	  1	  2	  1	0.58118	  1	0.60000	  0	 24	 62	 63	  0	
12-May-2013	sub2347	2347	  2	  1	 92	  3	  2	  3	  6	  1	  1	  1	  1	0.50446	  1	0.60000	  0	 23	 62	 63	  0	
12-May-2013	sub2347	2347	  2	  1	 93	  3	  2	  6	  1	  2	  0	  1	  1	0.41029	  0	0.60000	  0	 26	 87	 68	  1	
12-May-2013	sub2347	2347	  2	  1	 94	  3	  2	  4	  4	  3	  1	  1	  0	0.45423	  0	0.60000	  0	 24	 82	 83	  1	
12-May-2013	sub2347	2347	  2	  1	 95	  3	  2	  5	  5	  3	  0	  2	  1	0.58351	  0	0.60000	  0	 25	 87	 68	  0	
12-May-2013	sub2347	2347	  2	  1	 96	  3	  2	  6	  1	  2	  0	  1	  1	0.62911	  0	0.60000	  1	 26	 87	 51	  0	
12-May-2013	sub2347	2347	  2	  1	 97	  3	  2	  2	  2	  3	  1	  2	  1	0.66757	  1	0.70000	  0	 22	 60	 61	  0	
12-May-2013	sub2347	2347	  2	  1	 98	  3	  2	  3	  6	  1	  1	  1	  1	0.52143	  1	0.70000	  0	 23	 62	 63	  0	
12-May-2013	sub2347	2347	  2	  1	 99	  3	  2	  3	  6	  1	  1	  1	  1	0.55249	  1	0.70000	  0	 23	 62	 63	  0	
12-May-2013	sub2347	2347	  2	  1	100	  3	  2	  6	  1	  2	  0	  1	  1	0.56888	  0	0.70000	  0	 26	 87	 68	  0	
12-May-2013	sub2347	2347	  2	  1	101	  3	  2	  5	  5	  3	  0	  2	  1	0.52335	  0	0.60000	  0	 25	 87	 68	  0	
12-May-2013	sub2347	2347	  2	  1	102	  3	  2	  1	  3	  3	  1	  1	  1	0.55413	  1	0.60000	  0	 21	 60	 61	  0	
12-May-2013	sub2347	2347	  2	  1	103	  3	  2	  6	  1	  2	  1	  1	  0	0.54056	  0	0.60000	  0	 26	 85	 86	  0	
12-May-2013	sub2347	2347	  2	  1	104	  3	  2	  4	  4	  3	  0	  2	  0	0.56361	  1	0.60000	  0	 24	 64	 89	  0	
12-May-2013	sub2347	2347	  2	  1	105	  3	  2	  1	  3	  3	  1	  1	  1	0.51525	  1	0.60000	  0	 21	 60	 61	  0	
12-May-2013	sub2347	2347	  2	  1	106	  3	  2	  5	  5	  3	  0	  2	  1	0.59534	  0	0.60000	  0	 25	 87	 68	  0	
12-May-2013	sub2347	2347	  2	  1	107	  3	  2	  1	  3	  3	  1	  1	  1	0.48651	  1	0.60000	  0	 21	 60	 61	  1	
12-May-2013	sub2347	2347	  2	  1	108	  3	  2	  3	  6	  1	  0	  1	  0	0.52449	  1	0.60000	  0	 23	 64	 89	  0	
12-May-2013	sub2347	2347	  2	  1	109	  3	  2	  6	  1	  2	  1	  1	  0	0.49622	  0	0.60000	  0	 26	 85	 86	  1	
12-May-2013	sub2347	2347	  2	  1	110	  3	  2	  3	  6	  1	  1	  1	  1	0.53871	  1	0.60000	  0	 23	 62	 63	  0	
12-May-2013	sub2347	2347	  2	  1	111	  3	  2	  2	  2	  3	  1	  2	  1	0.53453	  1	0.60000	  0	 22	 60	 61	  0	
12-May-2013	sub2347	2347	  2	  1	112	  3	  2	  5	  5	  3	  0	  2	  1	0.89620	  0	0.60000	  1	 25	 87	 51	  0	
12-May-2013	sub2347	2347	  2	  1	113	  3	  2	  4	  4	  3	  1	  2	  1	0.54951	  1	0.70000	  0	 24	 62	 63	  0	
12-May-2013	sub2347	2347	  2	  1	114	  3	  2	  2	  2	  3	  1	  2	  1	0.52184	  1	0.70000	  0	 22	 60	 61	  0	
12-May-2013	sub2347	2347	  2	  1	115	  3	  2	  2	  2	  3	  1	  2	  1	0.50397	  1	0.70000	  0	 22	 60	 61	  0	
12-May-2013	sub2347	2347	  2	  1	116	  3	  2	  3	  6	  1	  1	  1	  1	0.52880	  1	0.70000	  0	 23	 62	 63	  0	
12-May-2013	sub2347	2347	  2	  1	117	  3	  2	  1	  3	  3	  1	  1	  1	0.49903	  1	0.70000	  0	 21	 60	 61	  1	
12-May-2013	sub2347	2347	  2	  1	118	  3	  2	  2	  2	  3	  1	  2	  1	0.54397	  1	0.70000	  0	 22	 60	 61	  0	
12-May-2013	sub2347	2347	  2	  1	119	  3	  2	  3	  6	  1	  1	  1	  1	0.58171	  1	0.70000	  0	 23	 62	 63	  0	
12-May-2013	sub2347	2347	  2	  1	120	  3	  2	  1	  3	  3	  1	  1	  1	0.51132	  1	0.70000	  0	 21	 60	 61	  0	
12-May-2013	sub2347	2347	  2	  1	121	  3	  2	  4	  4	  3	  0	  2	  0	0.55974	  1	0.60000	  0	 24	 64	 89	  0	
12-May-2013	sub2347	2347	  2	  1	122	  3	  2	  1	  3	  3	  1	  1	  1	0.50941	  1	0.60000	  0	 21	 60	 61	  0	
12-May-2013	sub2347	2347	  2	  1	123	  3	  2	  1	  3	  3	  1	  1	  1	0.49639	  1	0.60000	  0	 21	 60	 61	  1	
12-May-2013	sub2347	2347	  2	  1	124	  3	  2	  4	  4	  3	  1	  2	  1	0.55015	  1	0.60000	  0	 24	 62	 63	  0	
12-May-2013	sub2347	2347	  2	  1	125	  3	  2	  6	  1	  2	  0	  2	  0	0.42056	  1	0.60000	  0	 26	 67	 88	  1	
12-May-2013	sub2347	2347	  2	  1	126	  3	  2	  4	  4	  3	  1	  2	  1	0.51127	  1	0.60000	  0	 24	 62	 63	  0	
12-May-2013	sub2347	2347	  2	  1	127	  3	  2	  6	  1	  2	  1	  1	  0	0.46378	  0	0.60000	  0	 26	 85	 86	  1	
12-May-2013	sub2347	2347	  2	  1	128	  3	  2	  3	  6	  1	  1	  1	  1	0.52299	  1	0.60000	  0	 23	 62	 63	  0	
12-May-2013	sub2347	2347	  2	  1	129	  3	  2	  5	  5	  3	  0	  2	  1	0.57872	  0	0.60000	  0	 25	 87	 68	  0	
12-May-2013	sub2347	2347	  2	  1	130	  3	  2	  4	  4	  3	  1	  2	  1	0.62019	  1	0.60000	  1	 24	 62	 51	  0	
12-May-2013	sub2347	2347	  2	  1	131	  3	  2	  5	  5	  3	  0	  2	  1	0.54501	  0	0.70000	  0	 25	 87	 68	  0	
12-May-2013	sub2347	2347	  2	  1	132	  3	  2	  4	  4	  3	  1	  2	  1	0.43220	  1	0.70000	  0	 24	 62	 63	  1	
12-May-2013	sub2347	2347	  2	  1	133	  3	  2	  2	  2	  3	  1	  2	  1	0.58433	  1	0.70000	  0	 22	 60	 61	  0	
12-May-2013	sub2347	2347	  2	  1	134	  3	  2	  2	  2	  3	  1	  2	  1	0.44162	  1	0.70000	  0	 22	 60	 61	  1	
12-May-2013	sub2347	2347	  2	  1	135	  3	  2	  1	  3	  3	  1	  1	  1	0.62147	  1	0.70000	  0	 21	 60	 61	  0	
12-May-2013	sub2347	2347	  2	  1	136	  3	  2	  5	  5	  3	  0	  2	  1	0.48029	  0	0.70000	  0	 25	 87	 68	  1	
12-May-2013	sub2347	2347	  2	  1	137	  3	  2	  3	  6	  1	  1	  1	  1	0.52668	  1	0.70000	  0	 23	 62	 63	  0	
12-May-2013	sub2347	2347	  2	  1	138	  3	  2	  2	  2	  3	  1	  2	  1	0.54086	  1	0.70000	  0	 22	 60	 61	  0	
12-May-2013	sub2347	2347	  2	  1	139	  3	  2	  5	  5	  3	  0	  1	  0	0.67480	  1	0.70000	  0	 25	 67	 88	  0	
12-May-2013	sub2347	2347	  2	  1	140	  3	  2	  3	  6	  1	  1	  1	  1	0.53884	  1	0.70000	  0	 23	 62	 63	  0	
12-May-2013	sub2347	2347	  2	  1	141	  3	  2	  6	  1	  2	  0	  1	  1	0.53504	  0	0.60000	  0	 26	 87	 68	  0	
12-May-2013	sub2347	2347	  2	  1	142	  3	  2	  1	  3	  3	  1	  1	  1	0.48468	  1	0.60000	  0	 21	 60	 61	  1	
12-May-2013	sub2347	2347	  2	  1	143	  3	  2	  4	  4	  3	  1	  2	  1	0.55893	  1	0.60000	  0	 24	 62	 63	  0	
12-May-2013	sub2347	2347	  2	  1	144	  3	  2	  6	  1	  2	  1	  1	  0	0.60821	  0	0.60000	  1	 26	 85	 51	  0	
12-May-2013	sub2347	2347	  2	  1	145	  3	  2	  6	  1	  2	  1	  1	  0	0.49193	  0	0.70000	  0	 26	 85	 86	  1	
12-May-2013	sub2347	2347	  2	  1	146	  3	  2	  4	  4	  3	  1	  2	  1	0.48561	  1	0.70000	  0	 24	 62	 63	  1	
12-May-2013	sub2347	2347	  2	  1	147	  3	  2	  2	  2	  3	  1	  2	  1	0.54711	  1	0.70000	  0	 22	 60	 61	  0	
12-May-2013	sub2347	2347	  2	  1	148	  3	  2	  5	  5	  3	  0	  2	  1	0.57614	  0	0.70000	  0	 25	 87	 68	  0	
12-May-2013	sub2347	2347	  2	  1	149	  3	  2	  2	  2	  3	  1	  2	  1	0.50231	  1	0.70000	  0	 22	 60	 61	  0	
12-May-2013	sub2347	2347	  2	  1	150	  3	  2	  5	  5	  3	  0	  2	  1	0.52252	  0	0.70000	  0	 25	 87	 68	  0	
12-May-2013	sub2347	2347	  2	  1	  1	  4	  1	  3	  5	  6	  0	  1	  0	0.49085	  1	0.60000	  0	 13	 34	 49	  1	
12-May-2013	sub2347	2347	  2	  1	  2	  4	  1	  6	  3	  1	  0	  2	  0	0.59725	  1	0.30000	  1	 16	 37	 51	  0	
12-May-2013	sub2347	2347	  2	  1	  3	  4	  1	  5	  1	  5	  0	  1	  0	0.46061	  1	0.90000	  0	 15	 37	 48	  1	
12-May-2013	sub2347	2347	  2	  1	  4	  4	  1	  3	  5	  6	  1	  1	  1	0.49032	  1	0.90000	  0	 13	 32	 33	  1	
12-May-2013	sub2347	2347	  2	  1	  5	  4	  1	  5	  1	  5	  1	  1	  1	0.56332	  1	0.90000	  0	 15	 35	 36	  0	
12-May-2013	sub2347	2347	  2	  1	  6	  4	  1	  1	  2	  1	  1	  2	  0	0.59032	  0	0.90000	  0	 11	 40	 41	  0	
12-May-2013	sub2347	2347	  2	  1	  7	  4	  1	  6	  3	  1	  1	  2	  1	0.57026	  1	0.90000	  0	 16	 35	 36	  0	
12-May-2013	sub2347	2347	  2	  1	  8	  4	  1	  2	  6	  5	  1	  2	  1	0.56181	  1	0.90000	  0	 12	 30	 31	  0	
12-May-2013	sub2347	2347	  2	  1	  9	  4	  1	  2	  6	  5	  1	  2	  1	0.47539	  1	0.90000	  0	 12	 30	 31	  1	
12-May-2013	sub2347	2347	  2	  1	 10	  4	  1	  4	  4	  6	  1	  1	  0	0.56764	  0	0.90000	  0	 14	 42	 43	  0	
12-May-2013	sub2347	2347	  2	  1	 11	  4	  1	  2	  6	  5	  1	  2	  1	0.54528	  1	0.90000	  0	 12	 30	 31	  0	
12-May-2013	sub2347	2347	  2	  1	 12	  4	  1	  6	  3	  1	  0	  2	  0	0.59792	  1	0.90000	  0	 16	 37	 48	  0	
12-May-2013	sub2347	2347	  2	  1	 13	  4	  1	  1	  2	  1	  1	  2	  0	0.67222	  0	0.90000	  0	 11	 40	 41	  0	
12-May-2013	sub2347	2347	  2	  1	 14	  4	  1	  4	  4	  6	  1	  2	  1	0.58083	  1	0.90000	  0	 14	 32	 33	  0	
12-May-2013	sub2347	2347	  2	  1	 15	  4	  1	  6	  3	  1	  1	  1	  0	0.54851	  0	0.90000	  0	 16	 45	 46	  0	
12-May-2013	sub2347	2347	  2	  1	 16	  4	  1	  5	  1	  5	  0	  1	  0	0.51421	  1	0.80000	  0	 15	 37	 48	  0	
12-May-2013	sub2347	2347	  2	  1	 17	  4	  1	  6	  3	  1	  1	  2	  1	0.67721	  1	0.80000	  0	 16	 35	 36	  0	
12-May-2013	sub2347	2347	  2	  1	 18	  4	  1	  1	  2	  1	  1	  2	  0	0.57912	  0	0.70000	  0	 11	 40	 41	  0	
12-May-2013	sub2347	2347	  2	  1	 19	  4	  1	  6	  3	  1	  0	  2	  0	0.56428	  1	0.70000	  0	 16	 37	 48	  0	
12-May-2013	sub2347	2347	  2	  1	 20	  4	  1	  3	  5	  6	  1	  1	  1	0.69543	  1	0.70000	  0	 13	 32	 33	  0	
12-May-2013	sub2347	2347	  2	  1	 21	  4	  1	  3	  5	  6	  1	  1	  1	0.60065	  1	0.60000	  1	 13	 32	 51	  0	
12-May-2013	sub2347	2347	  2	  1	 22	  4	  1	  5	  1	  5	  0	  1	  0	0.49226	  1	0.90000	  0	 15	 37	 48	  1	
12-May-2013	sub2347	2347	  2	  1	 23	  4	  1	  3	  5	  6	  0	  1	  0	0.61918	  1	0.90000	  0	 13	 34	 49	  0	
12-May-2013	sub2347	2347	  2	  1	 24	  4	  1	  2	  6	  5	  1	  2	  1	0.59971	  1	0.90000	  0	 12	 30	 31	  0	
12-May-2013	sub2347	2347	  2	  1	 25	  4	  1	  6	  3	  1	  0	  2	  0	0.72429	  1	0.90000	  0	 16	 37	 48	  0	
12-May-2013	sub2347	2347	  2	  1	 26	  4	  1	  5	  1	  5	  1	  2	  0	0.66707	  0	0.90000	  0	 15	 45	 46	  0	
12-May-2013	sub2347	2347	  2	  1	 27	  4	  1	  6	  3	  1	  0	  2	  0	0.59894	  1	0.90000	  0	 16	 37	 48	  0	
12-May-2013	sub2347	2347	  2	  1	 28	  4	  1	  1	  2	  1	  1	  1	  1	0.63999	  1	0.90000	  0	 11	 30	 31	  0	
12-May-2013	sub2347	2347	  2	  1	 29	  4	  1	  1	  2	  1	  1	  1	  1	0.79239	  1	0.90000	  0	 11	 30	 31	  0	
12-May-2013	sub2347	2347	  2	  1	 30	  4	  1	  4	  4	  6	  1	  2	  1	0.62972	  1	0.80000	  0	 14	 32	 33	  0	
12-May-2013	sub2347	2347	  2	  1	 31	  4	  1	  3	  5	  6	  0	  1	  0	0.57019	  1	0.80000	  0	 13	 34	 49	  0	
12-May-2013	sub2347	2347	  2	  1	 32	  4	  1	  1	  2	  1	  1	  1	  1	0.51955	  1	0.80000	  0	 11	 30	 31	  0	
12-May-2013	sub2347	2347	  2	  1	 33	  4	  1	  4	  4	  6	  1	  2	  1	0.60277	  1	0.80000	  0	 14	 32	 33	  0	
12-May-2013	sub2347	2347	  2	  1	 34	  4	  1	  4	  4	  6	  1	  2	  1	0.51569	  1	0.80000	  0	 14	 32	 33	  0	
12-May-2013	sub2347	2347	  2	  1	 35	  4	  1	  6	  3	  1	  1	  2	  1	0.60238	  1	0.70000	  0	 16	 35	 36	  0	
12-May-2013	sub2347	2347	  2	  1	 36	  4	  1	  5	  1	  5	  1	  1	  1	0.56467	  1	0.70000	  0	 15	 35	 36	  0	
12-May-2013	sub2347	2347	  2	  1	 37	  4	  1	  3	  5	  6	  1	  1	  1	0.55265	  1	0.70000	  0	 13	 32	 33	  0	
12-May-2013	sub2347	2347	  2	  1	 38	  4	  1	  6	  3	  1	  1	  2	  1	0.60078	  1	0.70000	  0	 16	 35	 36	  0	
12-May-2013	sub2347	2347	  2	  1	 39	  4	  1	  1	  2	  1	  1	  1	  1	0.63032	  1	0.70000	  0	 11	 30	 31	  0	
12-May-2013	sub2347	2347	  2	  1	 40	  4	  1	  2	  6	  5	  1	  2	  1	0.54008	  1	0.70000	  0	 12	 30	 31	  0	
12-May-2013	sub2347	2347	  2	  1	 41	  4	  1	  2	  6	  5	  1	  2	  1	0.45327	  1	0.60000	  0	 12	 30	 31	  1	
12-May-2013	sub2347	2347	  2	  1	 42	  4	  1	  5	  1	  5	  0	  1	  0	0.49713	  1	0.60000	  0	 15	 37	 48	  1	
12-May-2013	sub2347	2347	  2	  1	 43	  4	  1	  4	  4	  6	  0	  2	  0	0.48306	  1	0.60000	  0	 14	 34	 49	  1	
12-May-2013	sub2347	2347	  2	  1	 44	  4	  1	  3	  5	  6	  1	  1	  1	0.57155	  1	0.60000	  0	 13	 32	 33	  0	
12-May-2013	sub2347	2347	  2	  1	 45	  4	  1	  1	  2	  1	  1	  1	  1	0.51422	  1	0.60000	  0	 11	 30	 31	  0	
12-May-2013	sub2347	2347	  2	  1	 46	  4	  1	  2	  6	  5	  1	  2	  1	0.54158	  1	0.60000	  0	 12	 30	 31	  0	
12-May-2013	sub2347	2347	  2	  1	 47	  4	  1	  3	  5	  6	  1	  1	  1	0.47605	  1	0.60000	  0	 13	 32	 33	  1	
12-May-2013	sub2347	2347	  2	  1	 48	  4	  1	  3	  5	  6	  1	  1	  1	0.61885	  1	0.60000	  1	 13	 32	 51	  0	
12-May-2013	sub2347	2347	  2	  1	 49	  4	  1	  5	  1	  5	  1	  1	  1	0.51493	  1	0.80000	  0	 15	 35	 36	  0	
12-May-2013	sub2347	2347	  2	  1	 50	  4	  1	  4	  4	  6	  1	  2	  1	0.55526	  1	0.80000	  0	 14	 32	 33	  0	
12-May-2013	sub2347	2347	  2	  1	 51	  4	  1	  4	  4	  6	  1	  2	  1	0.50542	  1	0.70000	  0	 14	 32	 33	  0	
12-May-2013	sub2347	2347	  2	  1	 52	  4	  1	  2	  6	  5	  1	  2	  1	0.51098	  1	0.70000	  0	 12	 30	 31	  0	
12-May-2013	sub2347	2347	  2	  1	 53	  4	  1	  5	  1	  5	  0	  1	  0	0.46929	  1	0.70000	  0	 15	 37	 48	  1	
12-May-2013	sub2347	2347	  2	  1	 54	  4	  1	  4	  4	  6	  1	  2	  1	0.47836	  1	0.70000	  0	 14	 32	 33	  1	
12-May-2013	sub2347	2347	  2	  1	 55	  4	  1	  1	  2	  1	  1	  1	  1	0.50188	  1	0.70000	  0	 11	 30	 31	  0	
12-May-2013	sub2347	2347	  2	  1	 56	  4	  1	  4	  4	  6	  1	  2	  1	0.48090	  1	0.70000	  0	 14	 32	 33	  1	
12-May-2013	sub2347	2347	  2	  1	 57	  4	  1	  4	  4	  6	  0	  2	  0	0.45821	  1	0.70000	  0	 14	 34	 49	  1	
12-May-2013	sub2347	2347	  2	  1	 58	  4	  1	  1	  2	  1	  1	  1	  1	0.49677	  1	0.70000	  0	 11	 30	 31	  1	
12-May-2013	sub2347	2347	  2	  1	 59	  4	  1	  5	  1	  5	  1	  1	  1	0.40889	  1	0.70000	  0	 15	 35	 36	  1	
12-May-2013	sub2347	2347	  2	  1	 60	  4	  1	  2	  6	  5	  1	  1	  0	0.40907	  0	0.70000	  0	 12	 40	 41	  1	
12-May-2013	sub2347	2347	  2	  1	 61	  4	  1	  4	  4	  6	  1	  2	  1	0.50435	  1	0.60000	  0	 14	 32	 33	  0	
12-May-2013	sub2347	2347	  2	  1	 62	  4	  1	  3	  5	  6	  1	  1	  1	0.53900	  1	0.60000	  0	 13	 32	 33	  0	
12-May-2013	sub2347	2347	  2	  1	 63	  4	  1	  5	  1	  5	  1	  1	  1	0.56529	  1	0.60000	  0	 15	 35	 36	  0	
12-May-2013	sub2347	2347	  2	  1	 64	  4	  1	  1	  2	  1	  1	  1	  1	0.54217	  1	0.60000	  0	 11	 30	 31	  0	
12-May-2013	sub2347	2347	  2	  1	 65	  4	  1	  1	  2	  1	  1	  1	  1	0.45464	  1	0.60000	  0	 11	 30	 31	  1	
12-May-2013	sub2347	2347	  2	  1	 66	  4	  1	  3	  5	  6	  1	  1	  1	0.57524	  1	0.60000	  0	 13	 32	 33	  0	
12-May-2013	sub2347	2347	  2	  1	 67	  4	  1	  2	  6	  5	  1	  2	  1	0.55310	  1	0.60000	  0	 12	 30	 31	  0	
12-May-2013	sub2347	2347	  2	  1	 68	  4	  1	  2	  6	  5	  1	  2	  1	0.47322	  1	0.60000	  0	 12	 30	 31	  1	
12-May-2013	sub2347	2347	  2	  1	 69	  4	  1	  5	  1	  5	  1	  1	  1	0.48336	  1	0.60000	  0	 15	 35	 36	  1	
12-May-2013	sub2347	2347	  2	  1	 70	  4	  1	  2	  6	  5	  1	  2	  1	0.48071	  1	0.60000	  0	 12	 30	 31	  1	
12-May-2013	sub2347	2347	  2	  1	 71	  4	  1	  2	  6	  5	  1	  2	  1	0.57351	  1	0.60000	  0	 12	 30	 31	  0	
12-May-2013	sub2347	2347	  2	  1	 72	  4	  1	  3	  5	  6	  1	  1	  1	0.51331	  1	0.60000	  0	 13	 32	 33	  0	
12-May-2013	sub2347	2347	  2	  1	 73	  4	  1	  6	  3	  1	  0	  2	  0	0.55891	  1	0.60000	  0	 16	 37	 48	  0	
12-May-2013	sub2347	2347	  2	  1	 74	  4	  1	  6	  3	  1	  0	  2	  0	0.46791	  1	0.60000	  0	 16	 37	 48	  1	
12-May-2013	sub2347	2347	  2	  1	 75	  4	  1	  6	  3	  1	  1	  2	  1	0.39674	  1	0.60000	  0	 16	 35	 36	  1	
12-May-2013	sub2347	2347	  2	  1	 76	  4	  2	  4	  4	  6	  1	  2	  1	0.51045	  1	0.50000	  1	 24	 62	 51	  0	
12-May-2013	sub2347	2347	  2	  1	 77	  4	  2	  2	  6	  5	  1	  2	  1	0.48454	  1	0.70000	  0	 22	 60	 61	  1	
12-May-2013	sub2347	2347	  2	  1	 78	  4	  2	  1	  2	  1	  1	  1	  1	0.54766	  1	0.70000	  0	 21	 60	 61	  0	
12-May-2013	sub2347	2347	  2	  1	 79	  4	  2	  4	  4	  6	  0	  2	  0	0.53497	  1	0.70000	  0	 24	 64	 89	  0	
12-May-2013	sub2347	2347	  2	  1	 80	  4	  2	  3	  5	  6	  1	  1	  1	0.50789	  1	0.70000	  0	 23	 62	 63	  0	
12-May-2013	sub2347	2347	  2	  1	 81	  4	  2	  5	  1	  5	  0	  1	  0	0.56719	  1	0.60000	  0	 25	 67	 88	  0	
12-May-2013	sub2347	2347	  2	  1	 82	  4	  2	  2	  6	  5	  1	  2	  1	0.58368	  1	0.60000	  0	 22	 60	 61	  0	
12-May-2013	sub2347	2347	  2	  1	 83	  4	  2	  5	  1	  5	  0	  1	  0	0.61745	  1	0.60000	  1	 25	 67	 51	  0	
12-May-2013	sub2347	2347	  2	  1	 84	  4	  2	  2	  6	  5	  1	  2	  1	0.52777	  1	0.80000	  0	 22	 60	 61	  0	
12-May-2013	sub2347	2347	  2	  1	 85	  4	  2	  6	  3	  1	  0	  2	  0	0.56893	  1	0.70000	  0	 26	 67	 88	  0	
12-May-2013	sub2347	2347	  2	  1	 86	  4	  2	  1	  2	  1	  1	  1	  1	0.59061	  1	0.70000	  0	 21	 60	 61	  0	
12-May-2013	sub2347	2347	  2	  1	 87	  4	  2	  1	  2	  1	  1	  2	  0	0.47315	  0	0.70000	  0	 21	 80	 81	  1	
12-May-2013	sub2347	2347	  2	  1	 88	  4	  2	  2	  6	  5	  1	  2	  1	0.55118	  1	0.70000	  0	 22	 60	 61	  0	
12-May-2013	sub2347	2347	  2	  1	 89	  4	  2	  3	  5	  6	  1	  1	  1	0.50998	  1	0.70000	  0	 23	 62	 63	  0	
12-May-2013	sub2347	2347	  2	  1	 90	  4	  2	  2	  6	  5	  1	  1	  0	0.58386	  0	0.70000	  0	 22	 80	 81	  0	
12-May-2013	sub2347	2347	  2	  1	 91	  4	  2	  6	  3	  1	  0	  2	  0	0.60972	  1	0.70000	  0	 26	 67	 88	  0	
12-May-2013	sub2347	2347	  2	  1	 92	  4	  2	  4	  4	  6	  1	  2	  1	0.57291	  1	0.70000	  0	 24	 62	 63	  0	
12-May-2013	sub2347	2347	  2	  1	 93	  4	  2	  5	  1	  5	  0	  1	  0	0.57118	  1	0.70000	  0	 25	 67	 88	  0	
12-May-2013	sub2347	2347	  2	  1	 94	  4	  2	  6	  3	  1	  1	  1	  0	0.45977	  0	0.70000	  0	 26	 85	 86	  1	
12-May-2013	sub2347	2347	  2	  1	 95	  4	  2	  6	  3	  1	  1	  2	  1	0.49113	  1	0.70000	  0	 26	 65	 66	  1	
12-May-2013	sub2347	2347	  2	  1	 96	  4	  2	  5	  1	  5	  0	  1	  0	0.53985	  1	0.70000	  0	 25	 67	 88	  0	
12-May-2013	sub2347	2347	  2	  1	 97	  4	  2	  2	  6	  5	  1	  2	  1	0.55363	  1	0.70000	  0	 22	 60	 61	  0	
12-May-2013	sub2347	2347	  2	  1	 98	  4	  2	  5	  1	  5	  0	  1	  0	0.48123	  1	0.70000	  0	 25	 67	 88	  1	
12-May-2013	sub2347	2347	  2	  1	 99	  4	  2	  3	  5	  6	  1	  1	  1	0.61938	  1	0.70000	  0	 23	 62	 63	  0	
12-May-2013	sub2347	2347	  2	  1	100	  4	  2	  3	  5	  6	  1	  1	  1	0.49489	  1	0.70000	  0	 23	 62	 63	  1	
12-May-2013	sub2347	2347	  2	  1	101	  4	  2	  3	  5	  6	  0	  1	  0	0.49530	  1	0.60000	  0	 23	 64	 89	  1	
12-May-2013	sub2347	2347	  2	  1	102	  4	  2	  4	  4	  6	  0	  2	  0	0.56482	  1	0.60000	  0	 24	 64	 89	  0	
12-May-2013	sub2347	2347	  2	  1	103	  4	  2	  4	  4	  6	  1	  2	  1	0.59841	  1	0.60000	  0	 24	 62	 63	  0	
12-May-2013	sub2347	2347	  2	  1	104	  4	  2	  4	  4	  6	  1	  2	  1	0.46450	  1	0.60000	  0	 24	 62	 63	  1	
12-May-2013	sub2347	2347	  2	  1	105	  4	  2	  2	  6	  5	  1	  2	  1	0.52423	  1	0.60000	  0	 22	 60	 61	  0	
12-May-2013	sub2347	2347	  2	  1	106	  4	  2	  6	  3	  1	  0	  2	  0	0.53263	  1	0.60000	  0	 26	 67	 88	  0	
12-May-2013	sub2347	2347	  2	  1	107	  4	  2	  3	  5	  6	  1	  1	  1	0.55771	  1	0.60000	  0	 23	 62	 63	  0	
12-May-2013	sub2347	2347	  2	  1	108	  4	  2	  5	  1	  5	  0	  1	  0	0.51718	  1	0.60000	  0	 25	 67	 88	  0	
12-May-2013	sub2347	2347	  2	  1	109	  4	  2	  2	  6	  5	  1	  2	  1	0.61154	  1	0.60000	  1	 22	 60	 51	  0	
12-May-2013	sub2347	2347	  2	  1	110	  4	  2	  4	  4	  6	  1	  2	  1	0.48615	  1	0.70000	  0	 24	 62	 63	  1	
12-May-2013	sub2347	2347	  2	  1	111	  4	  2	  3	  5	  6	  1	  1	  1	0.96867	  1	0.70000	  1	 23	 62	 51	  0	
12-May-2013	sub2347	2347	  2	  1	112	  4	  2	  5	  1	  5	  0	  1	  0	0.43732	  1	0.80000	  0	 25	 67	 88	  1	
12-May-2013	sub2347	2347	  2	  1	113	  4	  2	  4	  4	  6	  1	  2	  1	0.56211	  1	0.80000	  0	 24	 62	 63	  0	
12-May-2013	sub2347	2347	  2	  1	114	  4	  2	  4	  4	  6	  1	  2	  1	0.43262	  1	0.80000	  0	 24	 62	 63	  1	
12-May-2013	sub2347	2347	  2	  1	115	  4	  2	  2	  6	  5	  1	  2	  1	0.46148	  1	0.80000	  0	 22	 60	 61	  1	
12-May-2013	sub2347	2347	  2	  1	116	  4	  2	  1	  2	  1	  1	  1	  1	0.53096	  1	0.80000	  0	 21	 60	 61	  0	
12-May-2013	sub2347	2347	  2	  1	117	  4	  2	  6	  3	  1	  1	  2	  1	0.52440	  1	0.80000	  0	 26	 65	 66	  0	
12-May-2013	sub2347	2347	  2	  1	118	  4	  2	  5	  1	  5	  0	  1	  0	0.42194	  1	0.70000	  0	 25	 67	 88	  1	
12-May-2013	sub2347	2347	  2	  1	119	  4	  2	  3	  5	  6	  1	  1	  1	0.46520	  1	0.70000	  0	 23	 62	 63	  1	
12-May-2013	sub2347	2347	  2	  1	120	  4	  2	  5	  1	  5	  0	  1	  0	0.37491	  1	0.70000	  0	 25	 67	 88	  1	
12-May-2013	sub2347	2347	  2	  1	121	  4	  2	  2	  6	  5	  1	  2	  1	0.55156	  1	0.70000	  0	 22	 60	 61	  0	
12-May-2013	sub2347	2347	  2	  1	122	  4	  2	  1	  2	  1	  1	  1	  1	0.53091	  1	0.70000	  0	 21	 60	 61	  0	
12-May-2013	sub2347	2347	  2	  1	123	  4	  2	  6	  3	  1	  0	  2	  0	0.52040	  1	0.70000	  0	 26	 67	 88	  0	
12-May-2013	sub2347	2347	  2	  1	124	  4	  2	  5	  1	  5	  0	  1	  0	0.49894	  1	0.70000	  0	 25	 67	 88	  1	
12-May-2013	sub2347	2347	  2	  1	125	  4	  2	  6	  3	  1	  1	  2	  1	0.76331	  1	0.70000	  1	 26	 65	 51	  0	
12-May-2013	sub2347	2347	  2	  1	126	  4	  2	  1	  2	  1	  1	  1	  1	0.54443	  1	0.80000	  0	 21	 60	 61	  0	
12-May-2013	sub2347	2347	  2	  1	127	  4	  2	  5	  1	  5	  0	  1	  0	0.45741	  1	0.80000	  0	 25	 67	 88	  1	
12-May-2013	sub2347	2347	  2	  1	128	  4	  2	  1	  2	  1	  1	  1	  1	0.42313	  1	0.80000	  0	 21	 60	 61	  1	
12-May-2013	sub2347	2347	  2	  1	129	  4	  2	  1	  2	  1	  1	  1	  1	0.53857	  1	0.80000	  0	 21	 60	 61	  0	
12-May-2013	sub2347	2347	  2	  1	130	  4	  2	  4	  4	  6	  1	  2	  1	0.55939	  1	0.80000	  0	 24	 62	 63	  0	
12-May-2013	sub2347	2347	  2	  1	131	  4	  2	  4	  4	  6	  1	  2	  1	0.41231	  1	0.80000	  0	 24	 62	 63	  1	
12-May-2013	sub2347	2347	  2	  1	132	  4	  2	  4	  4	  6	  1	  2	  1	0.42397	  1	0.80000	  0	 24	 62	 63	  1	
12-May-2013	sub2347	2347	  2	  1	133	  4	  2	  1	  2	  1	  1	  2	  0	0.43706	  0	0.80000	  0	 21	 80	 81	  1	
12-May-2013	sub2347	2347	  2	  1	134	  4	  2	  6	  3	  1	  0	  2	  0	0.46497	  1	0.80000	  0	 26	 67	 88	  1	
12-May-2013	sub2347	2347	  2	  1	135	  4	  2	  1	  2	  1	  1	  2	  0	0.44715	  0	0.70000	  0	 21	 80	 81	  1	
12-May-2013	sub2347	2347	  2	  1	136	  4	  2	  4	  4	  6	  0	  2	  0	0.51118	  1	0.70000	  0	 24	 64	 89	  0	
12-May-2013	sub2347	2347	  2	  1	137	  4	  2	  5	  1	  5	  0	  1	  0	0.53621	  1	0.70000	  0	 25	 67	 88	  0	
12-May-2013	sub2347	2347	  2	  1	138	  4	  2	  1	  2	  1	  1	  1	  1	0.45476	  1	0.70000	  0	 21	 60	 61	  1	
12-May-2013	sub2347	2347	  2	  1	139	  4	  2	  1	  2	  1	  1	  1	  1	0.66212	  1	0.70000	  0	 21	 60	 61	  0	
12-May-2013	sub2347	2347	  2	  1	140	  4	  2	  6	  3	  1	  0	  2	  0	0.49971	  1	0.70000	  0	 26	 67	 88	  1	
12-May-2013	sub2347	2347	  2	  1	141	  4	  2	  2	  6	  5	  1	  2	  1	0.39053	  1	0.70000	  0	 22	 60	 61	  1	
12-May-2013	sub2347	2347	  2	  1	142	  4	  2	  2	  6	  5	  1	  2	  1	0.41464	  1	0.70000	  0	 22	 60	 61	  1	
12-May-2013	sub2347	2347	  2	  1	143	  4	  2	  3	  5	  6	  1	  1	  1	0.57593	  1	0.70000	  0	 23	 62	 63	  0	
12-May-2013	sub2347	2347	  2	  1	144	  4	  2	  3	  5	  6	  1	  1	  1	0.41424	  1	0.70000	  0	 23	 62	 63	  1	
12-May-2013	sub2347	2347	  2	  1	145	  4	  2	  3	  5	  6	  0	  1	  0	0.38793	  1	0.70000	  0	 23	 64	 89	  1	
12-May-2013	sub2347	2347	  2	  1	146	  4	  2	  1	  2	  1	  1	  1	  1	0.43348	  1	0.70000	  0	 21	 60	 61	  1	
12-May-2013	sub2347	2347	  2	  1	147	  4	  2	  5	  1	  5	  0	  1	  0	0.46156	  1	0.70000	  0	 25	 67	 88	  1	
12-May-2013	sub2347	2347	  2	  1	148	  4	  2	  3	  5	  6	  1	  1	  1	0.57389	  1	0.70000	  0	 23	 62	 63	  0	
12-May-2013	sub2347	2347	  2	  1	149	  4	  2	  6	  3	  1	  1	  2	  1	0.58178	  1	0.70000	  0	 26	 65	 66	  0	
12-May-2013	sub2347	2347	  2	  1	150	  4	  2	  6	  3	  1	  1	  2	  1	0.46520	  1	0.70000	  0	 26	 65	 66	  1	
12-May-2013	sub2347	2347	  2	  1	  1	  5	  1	  1	  2	  2	  1	  1	  1	0.46336	  1	0.60000	  0	 11	 30	 31	  1	
12-May-2013	sub2347	2347	  2	  1	  2	  5	  1	  1	  2	  2	  1	  1	  1	0.43040	  1	0.30000	  1	 11	 30	 51	  1	
12-May-2013	sub2347	2347	  2	  1	  3	  5	  1	  2	  5	  5	  1	  1	  0	0.56730	  0	0.90000	  0	 12	 40	 41	  0	
12-May-2013	sub2347	2347	  2	  1	  4	  5	  1	  6	  4	  5	  1	  1	  0	0.50464	  0	0.90000	  0	 16	 45	 46	  0	
12-May-2013	sub2347	2347	  2	  1	  5	  5	  1	  1	  2	  2	  1	  1	  1	0.40997	  1	0.90000	  0	 11	 30	 31	  1	
12-May-2013	sub2347	2347	  2	  1	  6	  5	  1	  1	  2	  2	  1	  1	  1	0.58691	  1	0.90000	  0	 11	 30	 31	  0	
12-May-2013	sub2347	2347	  2	  1	  7	  5	  1	  5	  6	  6	  1	  2	  0	0.57315	  0	0.90000	  0	 15	 45	 46	  0	
12-May-2013	sub2347	2347	  2	  1	  8	  5	  1	  3	  3	  2	  1	  1	  1	0.63880	  1	0.90000	  0	 13	 32	 33	  0	
12-May-2013	sub2347	2347	  2	  1	  9	  5	  1	  4	  1	  6	  1	  1	  0	0.51076	  0	0.90000	  0	 14	 42	 43	  0	
12-May-2013	sub2347	2347	  2	  1	 10	  5	  1	  5	  6	  6	  0	  2	  1	0.57938	  0	0.90000	  0	 15	 47	 38	  0	
12-May-2013	sub2347	2347	  2	  1	 11	  5	  1	  2	  5	  5	  1	  1	  0	0.53957	  0	0.90000	  0	 12	 40	 41	  0	
12-May-2013	sub2347	2347	  2	  1	 12	  5	  1	  3	  3	  2	  0	  2	  1	0.54562	  0	0.90000	  0	 13	 44	 39	  0	
12-May-2013	sub2347	2347	  2	  1	 13	  5	  1	  6	  4	  5	  1	  2	  1	0.62938	  1	0.90000	  0	 16	 35	 36	  0	
12-May-2013	sub2347	2347	  2	  1	 14	  5	  1	  4	  1	  6	  1	  2	  1	0.56249	  1	0.90000	  0	 14	 32	 33	  0	
12-May-2013	sub2347	2347	  2	  1	 15	  5	  1	  3	  3	  2	  1	  2	  0	0.50133	  0	0.90000	  0	 13	 42	 43	  0	
12-May-2013	sub2347	2347	  2	  1	 16	  5	  1	  2	  5	  5	  1	  1	  0	0.50426	  0	0.80000	  0	 12	 40	 41	  0	
12-May-2013	sub2347	2347	  2	  1	 17	  5	  1	  6	  4	  5	  0	  1	  1	0.45271	  0	0.80000	  0	 16	 47	 38	  1	
12-May-2013	sub2347	2347	  2	  1	 18	  5	  1	  1	  2	  2	  1	  1	  1	0.49032	  1	0.70000	  0	 11	 30	 31	  1	
12-May-2013	sub2347	2347	  2	  1	 19	  5	  1	  6	  4	  5	  0	  2	  0	0.53030	  1	0.70000	  0	 16	 37	 48	  0	
12-May-2013	sub2347	2347	  2	  1	 20	  5	  1	  4	  1	  6	  1	  2	  1	0.58375	  1	0.70000	  0	 14	 32	 33	  0	
12-May-2013	sub2347	2347	  2	  1	 21	  5	  1	  5	  6	  6	  0	  2	  1	0.61897	  0	0.60000	  1	 15	 47	 51	  0	
12-May-2013	sub2347	2347	  2	  1	 22	  5	  1	  4	  1	  6	  1	  1	  0	0.50327	  0	0.90000	  0	 14	 42	 43	  0	
12-May-2013	sub2347	2347	  2	  1	 23	  5	  1	  4	  1	  6	  1	  2	  1	0.50455	  1	0.90000	  0	 14	 32	 33	  0	
12-May-2013	sub2347	2347	  2	  1	 24	  5	  1	  5	  6	  6	  1	  2	  0	0.99254	  0	0.90000	  1	 15	 45	 51	  0	
12-May-2013	sub2347	2347	  2	  1	 25	  5	  1	  1	  2	  2	  1	  1	  1	0.68410	  1	0.90000	  0	 11	 30	 31	  0	
12-May-2013	sub2347	2347	  2	  1	 26	  5	  1	  2	  5	  5	  1	  1	  0	0.49760	  0	0.90000	  0	 12	 40	 41	  1	
12-May-2013	sub2347	2347	  2	  1	 27	  5	  1	  1	  2	  2	  1	  1	  1	0.59149	  1	0.90000	  0	 11	 30	 31	  0	
12-May-2013	sub2347	2347	  2	  1	 28	  5	  1	  4	  1	  6	  1	  1	  0	0.70124	  0	0.90000	  0	 14	 42	 43	  0	
12-May-2013	sub2347	2347	  2	  1	 29	  5	  1	  1	  2	  2	  1	  1	  1	0.51883	  1	0.90000	  0	 11	 30	 31	  0	
12-May-2013	sub2347	2347	  2	  1	 30	  5	  1	  5	  6	  6	  0	  2	  1	0.67302	  0	0.90000	  0	 15	 47	 38	  0	
12-May-2013	sub2347	2347	  2	  1	 31	  5	  1	  1	  2	  2	  1	  1	  1	0.69745	  1	0.90000	  0	 11	 30	 31	  0	
12-May-2013	sub2347	2347	  2	  1	 32	  5	  1	  4	  1	  6	  0	  1	  1	0.39769	  0	0.90000	  0	 14	 44	 39	  1	
12-May-2013	sub2347	2347	  2	  1	 33	  5	  1	  5	  6	  6	  1	  2	  0	0.58817	  0	0.90000	  0	 15	 45	 46	  0	
12-May-2013	sub2347	2347	  2	  1	 34	  5	  1	  3	  3	  2	  1	  2	  0	0.71208	  0	0.90000	  0	 13	 42	 43	  0	
12-May-2013	sub2347	2347	  2	  1	 35	  5	  1	  5	  6	  6	  1	  2	  0	0.60963	  0	0.90000	  0	 15	 45	 46	  0	
12-May-2013	sub2347	2347	  2	  1	 36	  5	  1	  3	  3	  2	  0	  2	  1	0.59287	  0	0.90000	  0	 13	 44	 39	  0	
12-May-2013	sub2347	2347	  2	  1	 37	  5	  1	  4	  1	  6	  1	  2	  1	0.69051	  1	0.90000	  0	 14	 32	 33	  0	
12-May-2013	sub2347	2347	  2	  1	 38	  5	  1	  6	  4	  5	  0	  1	  1	0.67322	  0	0.90000	  0	 16	 47	 38	  0	
12-May-2013	sub2347	2347	  2	  1	 39	  5	  1	  6	  4	  5	  1	  1	  0	0.59525	  0	0.90000	  0	 16	 45	 46	  0	
12-May-2013	sub2347	2347	  2	  1	 40	  5	  1	  3	  3	  2	  1	  2	  0	0.53976	  0	0.90000	  0	 13	 42	 43	  0	
12-May-2013	sub2347	2347	  2	  1	 41	  5	  1	  1	  2	  2	  1	  1	  1	0.63820	  1	0.90000	  0	 11	 30	 31	  0	
12-May-2013	sub2347	2347	  2	  1	 42	  5	  1	  5	  6	  6	  0	  2	  1	0.70631	  0	0.90000	  0	 15	 47	 38	  0	
12-May-2013	sub2347	2347	  2	  1	 43	  5	  1	  1	  2	  2	  1	  1	  1	0.52647	  1	0.90000	  0	 11	 30	 31	  0	
12-May-2013	sub2347	2347	  2	  1	 44	  5	  1	  4	  1	  6	  1	  1	  0	0.64000	  0	0.80000	  0	 14	 42	 43	  0	
12-May-2013	sub2347	2347	  2	  1	 45	  5	  1	  3	  3	  2	  0	  2	  1	0.52575	  0	0.80000	  0	 13	 44	 39	  0	
12-May-2013	sub2347	2347	  2	  1	 46	  5	  1	  2	  5	  5	  1	  1	  0	0.56364	  0	0.80000	  0	 12	 40	 41	  0	
12-May-2013	sub2347	2347	  2	  1	 47	  5	  1	  2	  5	  5	  1	  2	  1	0.48654	  1	0.80000	  0	 12	 30	 31	  1	
12-May-2013	sub2347	2347	  2	  1	 48	  5	  1	  4	  1	  6	  1	  1	  0	0.57192	  0	0.80000	  0	 14	 42	 43	  0	
12-May-2013	sub2347	2347	  2	  1	 49	  5	  1	  2	  5	  5	  1	  1	  0	0.62720	  0	0.80000	  0	 12	 40	 41	  0	
12-May-2013	sub2347	2347	  2	  1	 50	  5	  1	  4	  1	  6	  0	  2	  0	0.67843	  1	0.80000	  0	 14	 34	 49	  0	
12-May-2013	sub2347	2347	  2	  1	 51	  5	  1	  6	  4	  5	  0	  1	  1	0.68810	  0	0.70000	  0	 16	 47	 38	  0	
12-May-2013	sub2347	2347	  2	  1	 52	  5	  1	  6	  4	  5	  1	  1	  0	0.70192	  0	0.70000	  1	 16	 45	 51	  0	
12-May-2013	sub2347	2347	  2	  1	 53	  5	  1	  2	  5	  5	  1	  1	  0	0.43370	  0	0.90000	  0	 12	 40	 41	  1	
12-May-2013	sub2347	2347	  2	  1	 54	  5	  1	  5	  6	  6	  0	  2	  1	0.67280	  0	0.90000	  0	 15	 47	 38	  0	
12-May-2013	sub2347	2347	  2	  1	 55	  5	  1	  5	  6	  6	  1	  2	  0	0.74027	  0	0.90000	  0	 15	 45	 46	  0	
12-May-2013	sub2347	2347	  2	  1	 56	  5	  1	  3	  3	  2	  1	  2	  0	0.61318	  0	0.90000	  0	 13	 42	 43	  0	
12-May-2013	sub2347	2347	  2	  1	 57	  5	  1	  4	  1	  6	  1	  1	  0	0.65542	  0	0.90000	  0	 14	 42	 43	  0	
12-May-2013	sub2347	2347	  2	  1	 58	  5	  1	  3	  3	  2	  1	  2	  0	0.57595	  0	0.90000	  0	 13	 42	 43	  0	
12-May-2013	sub2347	2347	  2	  1	 59	  5	  1	  3	  3	  2	  1	  2	  0	0.51363	  0	0.80000	  0	 13	 42	 43	  0	
12-May-2013	sub2347	2347	  2	  1	 60	  5	  1	  3	  3	  2	  1	  1	  1	0.50003	  1	0.80000	  0	 13	 32	 33	  1	
12-May-2013	sub2347	2347	  2	  1	 61	  5	  1	  2	  5	  5	  1	  2	  1	0.54155	  1	0.80000	  0	 12	 30	 31	  0	
12-May-2013	sub2347	2347	  2	  1	 62	  5	  1	  6	  4	  5	  0	  1	  1	0.64236	  0	0.80000	  0	 16	 47	 38	  0	
12-May-2013	sub2347	2347	  2	  1	 63	  5	  1	  2	  5	  5	  1	  2	  1	0.67838	  1	0.80000	  0	 12	 30	 31	  0	
12-May-2013	sub2347	2347	  2	  1	 64	  5	  1	  6	  4	  5	  1	  1	  0	0.67273	  0	0.80000	  0	 16	 45	 46	  0	
12-May-2013	sub2347	2347	  2	  1	 65	  5	  1	  6	  4	  5	  0	  1	  1	0.46990	  0	0.80000	  0	 16	 47	 38	  1	
12-May-2013	sub2347	2347	  2	  1	 66	  5	  1	  6	  4	  5	  1	  1	  0	0.48928	  0	0.80000	  0	 16	 45	 46	  1	
12-May-2013	sub2347	2347	  2	  1	 67	  5	  1	  6	  4	  5	  1	  1	  0	0.52466	  0	0.80000	  0	 16	 45	 46	  0	
12-May-2013	sub2347	2347	  2	  1	 68	  5	  1	  2	  5	  5	  1	  2	  1	0.54068	  1	0.70000	  0	 12	 30	 31	  0	
12-May-2013	sub2347	2347	  2	  1	 69	  5	  1	  1	  2	  2	  1	  1	  1	0.64160	  1	0.70000	  0	 11	 30	 31	  0	
12-May-2013	sub2347	2347	  2	  1	 70	  5	  1	  5	  6	  6	  1	  2	  0	0.56643	  0	0.70000	  0	 15	 45	 46	  0	
12-May-2013	sub2347	2347	  2	  1	 71	  5	  1	  3	  3	  2	  1	  1	  1	0.63622	  1	0.70000	  0	 13	 32	 33	  0	
12-May-2013	sub2347	2347	  2	  1	 72	  5	  1	  2	  5	  5	  1	  2	  1	0.58835	  1	0.70000	  0	 12	 30	 31	  0	
12-May-2013	sub2347	2347	  2	  1	 73	  5	  1	  2	  5	  5	  1	  2	  1	0.53276	  1	0.70000	  0	 12	 30	 31	  0	
12-May-2013	sub2347	2347	  2	  1	 74	  5	  1	  3	  3	  2	  1	  2	  0	0.53986	  0	0.70000	  0	 13	 42	 43	  0	
12-May-2013	sub2347	2347	  2	  1	 75	  5	  1	  5	  6	  6	  0	  2	  1	0.66638	  0	0.70000	  0	 15	 47	 38	  0	
12-May-2013	sub2347	2347	  2	  1	 76	  5	  2	  3	  3	  2	  1	  1	  1	0.56182	  1	0.70000	  0	 23	 62	 63	  0	
12-May-2013	sub2347	2347	  2	  1	 77	  5	  2	  3	  3	  2	  1	  1	  1	0.60038	  1	0.70000	  0	 23	 62	 63	  0	
12-May-2013	sub2347	2347	  2	  1	 78	  5	  2	  1	  2	  2	  1	  1	  1	0.61873	  1	0.70000	  0	 21	 60	 61	  0	
12-May-2013	sub2347	2347	  2	  1	 79	  5	  2	  1	  2	  2	  1	  1	  1	0.54074	  1	0.70000	  0	 21	 60	 61	  0	
12-May-2013	sub2347	2347	  2	  1	 80	  5	  2	  3	  3	  2	  1	  1	  1	0.45965	  1	0.70000	  0	 23	 62	 63	  1	
12-May-2013	sub2347	2347	  2	  1	 81	  5	  2	  2	  5	  5	  1	  2	  1	0.52613	  1	0.60000	  0	 22	 60	 61	  0	
12-May-2013	sub2347	2347	  2	  1	 82	  5	  2	  1	  2	  2	  1	  1	  1	0.53504	  1	0.60000	  0	 21	 60	 61	  0	
12-May-2013	sub2347	2347	  2	  1	 83	  5	  2	  3	  3	  2	  0	  1	  0	0.51126	  1	0.60000	  0	 23	 64	 89	  0	
12-May-2013	sub2347	2347	  2	  1	 84	  5	  2	  6	  4	  5	  1	  1	  0	0.67351	  0	0.60000	  1	 26	 85	 51	  0	
12-May-2013	sub2347	2347	  2	  1	 85	  5	  2	  6	  4	  5	  1	  1	  0	0.42104	  0	0.70000	  0	 26	 85	 86	  1	
12-May-2013	sub2347	2347	  2	  1	 86	  5	  2	  3	  3	  2	  1	  1	  1	0.57791	  1	0.70000	  0	 23	 62	 63	  0	
12-May-2013	sub2347	2347	  2	  1	 87	  5	  2	  4	  1	  6	  1	  1	  0	0.58905	  0	0.70000	  0	 24	 82	 83	  0	
12-May-2013	sub2347	2347	  2	  1	 88	  5	  2	  4	  1	  6	  1	  2	  1	0.45170	  1	0.70000	  0	 24	 62	 63	  1	
12-May-2013	sub2347	2347	  2	  1	 89	  5	  2	  2	  5	  5	  1	  2	  1	0.57999	  1	0.70000	  0	 22	 60	 61	  0	
12-May-2013	sub2347	2347	  2	  1	 90	  5	  2	  4	  1	  6	  1	  2	  1	0.54338	  1	0.70000	  0	 24	 62	 63	  0	
12-May-2013	sub2347	2347	  2	  1	 91	  5	  2	  1	  2	  2	  1	  1	  1	0.51986	  1	0.70000	  0	 21	 60	 61	  0	
12-May-2013	sub2347	2347	  2	  1	 92	  5	  2	  5	  6	  6	  0	  1	  0	0.70983	  1	0.70000	  1	 25	 67	 51	  0	
12-May-2013	sub2347	2347	  2	  1	 93	  5	  2	  5	  6	  6	  0	  1	  0	0.34073	  1	0.80000	  0	 25	 67	 88	  1	
12-May-2013	sub2347	2347	  2	  1	 94	  5	  2	  3	  3	  2	  1	  1	  1	0.62360	  1	0.80000	  0	 23	 62	 63	  0	
12-May-2013	sub2347	2347	  2	  1	 95	  5	  2	  1	  2	  2	  1	  1	  1	0.51074	  1	0.80000	  0	 21	 60	 61	  0	
12-May-2013	sub2347	2347	  2	  1	 96	  5	  2	  4	  1	  6	  0	  2	  0	0.64478	  1	0.80000	  0	 24	 64	 89	  0	
12-May-2013	sub2347	2347	  2	  1	 97	  5	  2	  3	  3	  2	  1	  2	  0	0.48415	  0	0.80000	  0	 23	 82	 83	  1	
12-May-2013	sub2347	2347	  2	  1	 98	  5	  2	  2	  5	  5	  1	  2	  1	0.54485	  1	0.80000	  0	 22	 60	 61	  0	
12-May-2013	sub2347	2347	  2	  1	 99	  5	  2	  6	  4	  5	  0	  1	  1	0.50997	  0	0.80000	  0	 26	 87	 68	  0	
12-May-2013	sub2347	2347	  2	  1	100	  5	  2	  2	  5	  5	  1	  2	  1	0.59697	  1	0.80000	  0	 22	 60	 61	  0	
12-May-2013	sub2347	2347	  2	  1	101	  5	  2	  5	  6	  6	  0	  1	  0	0.56080	  1	0.70000	  0	 25	 67	 88	  0	
12-May-2013	sub2347	2347	  2	  1	102	  5	  2	  3	  3	  2	  1	  1	  1	0.61124	  1	0.70000	  0	 23	 62	 63	  0	
12-May-2013	sub2347	2347	  2	  1	103	  5	  2	  6	  4	  5	  1	  1	  0	0.57946	  0	0.70000	  0	 26	 85	 86	  0	
12-May-2013	sub2347	2347	  2	  1	104	  5	  2	  2	  5	  5	  1	  2	  1	0.64045	  1	0.70000	  0	 22	 60	 61	  0	
12-May-2013	sub2347	2347	  2	  1	105	  5	  2	  2	  5	  5	  1	  2	  1	0.65017	  1	0.70000	  0	 22	 60	 61	  0	
12-May-2013	sub2347	2347	  2	  1	106	  5	  2	  5	  6	  6	  0	  2	  1	0.48885	  0	0.70000	  0	 25	 87	 68	  1	
12-May-2013	sub2347	2347	  2	  1	107	  5	  2	  2	  5	  5	  1	  2	  1	0.56414	  1	0.70000	  0	 22	 60	 61	  0	
12-May-2013	sub2347	2347	  2	  1	108	  5	  2	  4	  1	  6	  1	  2	  1	0.59669	  1	0.70000	  0	 24	 62	 63	  0	
12-May-2013	sub2347	2347	  2	  1	109	  5	  2	  6	  4	  5	  0	  1	  1	0.58161	  0	0.70000	  0	 26	 87	 68	  0	
12-May-2013	sub2347	2347	  2	  1	110	  5	  2	  5	  6	  6	  0	  2	  1	0.47437	  0	0.70000	  0	 25	 87	 68	  1	
12-May-2013	sub2347	2347	  2	  1	111	  5	  2	  5	  6	  6	  0	  1	  0	0.64371	  1	0.70000	  0	 25	 67	 88	  0	
12-May-2013	sub2347	2347	  2	  1	112	  5	  2	  4	  1	  6	  1	  2	  1	0.57714	  1	0.70000	  0	 24	 62	 63	  0	
12-May-2013	sub2347	2347	  2	  1	113	  5	  2	  4	  1	  6	  0	  2	  0	0.61903	  1	0.70000	  0	 24	 64	 89	  0	
12-May-2013	sub2347	2347	  2	  1	114	  5	  2	  3	  3	  2	  1	  1	  1	0.58758	  1	0.70000	  0	 23	 62	 63	  0	
12-May-2013	sub2347	2347	  2	  1	115	  5	  2	  1	  2	  2	  1	  1	  1	0.63034	  1	0.70000	  0	 21	 60	 61	  0	
12-May-2013	sub2347	2347	  2	  1	116	  5	  2	  5	  6	  6	  0	  2	  1	0.60861	  0	0.70000	  0	 25	 87	 68	  0	
12-May-2013	sub2347	2347	  2	  1	117	  5	  2	  1	  2	  2	  1	  1	  1	0.67490	  1	0.70000	  0	 21	 60	 61	  0	
12-May-2013	sub2347	2347	  2	  1	118	  5	  2	  5	  6	  6	  0	  1	  0	0.49359	  1	0.70000	  0	 25	 67	 88	  1	
12-May-2013	sub2347	2347	  2	  1	119	  5	  2	  5	  6	  6	  0	  2	  1	0.49225	  0	0.70000	  0	 25	 87	 68	  1	
12-May-2013	sub2347	2347	  2	  1	120	  5	  2	  6	  4	  5	  0	  1	  1	0.49799	  0	0.70000	  0	 26	 87	 68	  1	
12-May-2013	sub2347	2347	  2	  1	121	  5	  2	  2	  5	  5	  1	  2	  1	0.44519	  1	0.60000	  0	 22	 60	 61	  1	
12-May-2013	sub2347	2347	  2	  1	122	  5	  2	  2	  5	  5	  1	  2	  1	0.48199	  1	0.60000	  0	 22	 60	 61	  1	
12-May-2013	sub2347	2347	  2	  1	123	  5	  2	  6	  4	  5	  0	  1	  1	0.56704	  0	0.60000	  0	 26	 87	 68	  0	
12-May-2013	sub2347	2347	  2	  1	124	  5	  2	  4	  1	  6	  1	  2	  1	0.48687	  1	0.60000	  0	 24	 62	 63	  1	
12-May-2013	sub2347	2347	  2	  1	125	  5	  2	  1	  2	  2	  1	  1	  1	0.53986	  1	0.60000	  0	 21	 60	 61	  0	
12-May-2013	sub2347	2347	  2	  1	126	  5	  2	  2	  5	  5	  1	  2	  1	0.49963	  1	0.60000	  0	 22	 60	 61	  1	
12-May-2013	sub2347	2347	  2	  1	127	  5	  2	  6	  4	  5	  1	  1	  0	0.43299	  0	0.60000	  0	 26	 85	 86	  1	
12-May-2013	sub2347	2347	  2	  1	128	  5	  2	  1	  2	  2	  1	  1	  1	0.54094	  1	0.60000	  0	 21	 60	 61	  0	
12-May-2013	sub2347	2347	  2	  1	129	  5	  2	  1	  2	  2	  1	  1	  1	0.43681	  1	0.60000	  0	 21	 60	 61	  1	
12-May-2013	sub2347	2347	  2	  1	130	  5	  2	  4	  1	  6	  1	  2	  1	0.59698	  1	0.60000	  0	 24	 62	 63	  0	
12-May-2013	sub2347	2347	  2	  1	131	  5	  2	  6	  4	  5	  1	  1	  0	0.35133	  0	0.60000	  0	 26	 85	 86	  1	
12-May-2013	sub2347	2347	  2	  1	132	  5	  2	  6	  4	  5	  0	  1	  1	0.34841	  0	0.60000	  0	 26	 87	 68	  1	
12-May-2013	sub2347	2347	  2	  1	133	  5	  2	  4	  1	  6	  1	  2	  1	0.54672	  1	0.60000	  0	 24	 62	 63	  0	
12-May-2013	sub2347	2347	  2	  1	134	  5	  2	  5	  6	  6	  0	  2	  1	0.43471	  0	0.60000	  0	 25	 87	 68	  1	
12-May-2013	sub2347	2347	  2	  1	135	  5	  2	  4	  1	  6	  0	  2	  0	0.52922	  1	0.60000	  0	 24	 64	 89	  0	
12-May-2013	sub2347	2347	  2	  1	136	  5	  2	  3	  3	  2	  0	  2	  1	0.48464	  0	0.60000	  0	 23	 84	 69	  1	
12-May-2013	sub2347	2347	  2	  1	137	  5	  2	  6	  4	  5	  0	  1	  1	0.47673	  0	0.60000	  0	 26	 87	 68	  1	
12-May-2013	sub2347	2347	  2	  1	138	  5	  2	  5	  6	  6	  0	  2	  1	0.56762	  0	0.60000	  0	 25	 87	 68	  0	
12-May-2013	sub2347	2347	  2	  1	139	  5	  2	  1	  2	  2	  1	  1	  1	0.51749	  1	0.60000	  0	 21	 60	 61	  0	
12-May-2013	sub2347	2347	  2	  1	140	  5	  2	  3	  3	  2	  1	  1	  1	0.55678	  1	0.60000	  0	 23	 62	 63	  0	
12-May-2013	sub2347	2347	  2	  1	141	  5	  2	  4	  1	  6	  1	  2	  1	0.54226	  1	0.60000	  0	 24	 62	 63	  0	
12-May-2013	sub2347	2347	  2	  1	142	  5	  2	  1	  2	  2	  1	  1	  1	0.58063	  1	0.60000	  0	 21	 60	 61	  0	
12-May-2013	sub2347	2347	  2	  1	143	  5	  2	  4	  1	  6	  1	  1	  0	0.49655	  0	0.60000	  0	 24	 82	 83	  1	
12-May-2013	sub2347	2347	  2	  1	144	  5	  2	  3	  3	  2	  1	  1	  1	0.59844	  1	0.60000	  0	 23	 62	 63	  0	
12-May-2013	sub2347	2347	  2	  1	145	  5	  2	  2	  5	  5	  1	  2	  1	0.47136	  1	0.60000	  0	 22	 60	 61	  1	
12-May-2013	sub2347	2347	  2	  1	146	  5	  2	  1	  2	  2	  1	  1	  1	0.57918	  1	0.60000	  0	 21	 60	 61	  0	
12-May-2013	sub2347	2347	  2	  1	147	  5	  2	  5	  6	  6	  0	  2	  1	0.56860	  0	0.60000	  0	 25	 87	 68	  0	
12-May-2013	sub2347	2347	  2	  1	148	  5	  2	  5	  6	  6	  0	  2	  1	0.48828	  0	0.60000	  0	 25	 87	 68	  1	
12-May-2013	sub2347	2347	  2	  1	149	  5	  2	  6	  4	  5	  1	  1	  0	0.52959	  0	0.60000	  0	 26	 85	 86	  0	
12-May-2013	sub2347	2347	  2	  1	150	  5	  2	  2	  5	  5	  1	  2	  1	0.56304	  1	0.60000	  0	 22	 60	 61	  0	
12-May-2013	sub2347	2347	  2	  1	  1	  6	  1	  5	  4	  2	  1	  1	  1	0.09938	  1	0.60000	  0	 15	 35	 36	  1	
12-May-2013	sub2347	2347	  2	  1	  2	  6	  1	  6	  6	  4	  0	  1	  1	0.48804	  0	0.30000	  1	 16	 47	 51	  1	
12-May-2013	sub2347	2347	  2	  1	  3	  6	  1	  2	  2	  4	  1	  1	  0	0.55619	  0	0.90000	  0	 12	 40	 41	  0	
12-May-2013	sub2347	2347	  2	  1	  4	  6	  1	  4	  3	  4	  0	  1	  1	0.49272	  0	0.90000	  0	 14	 44	 39	  1	
12-May-2013	sub2347	2347	  2	  1	  5	  6	  1	  3	  5	  2	  0	  1	  0	0.46273	  1	0.90000	  0	 13	 34	 49	  1	
12-May-2013	sub2347	2347	  2	  1	  6	  6	  1	  1	  1	  1	  1	  1	  1	0.48302	  1	0.90000	  0	 11	 30	 31	  1	
12-May-2013	sub2347	2347	  2	  1	  7	  6	  1	  3	  5	  2	  1	  2	  0	0.67586	  0	0.90000	  0	 13	 42	 43	  0	
12-May-2013	sub2347	2347	  2	  1	  8	  6	  1	  5	  4	  2	  1	  1	  1	0.56143	  1	0.90000	  0	 15	 35	 36	  0	
12-May-2013	sub2347	2347	  2	  1	  9	  6	  1	  6	  6	  4	  1	  1	  0	0.54232	  0	0.90000	  0	 16	 45	 46	  0	
12-May-2013	sub2347	2347	  2	  1	 10	  6	  1	  4	  3	  4	  0	  2	  0	0.51206	  1	0.90000	  0	 14	 34	 49	  0	
12-May-2013	sub2347	2347	  2	  1	 11	  6	  1	  5	  4	  2	  0	  1	  0	0.66500	  1	0.90000	  0	 15	 37	 48	  0	
12-May-2013	sub2347	2347	  2	  1	 12	  6	  1	  2	  2	  4	  1	  1	  0	0.54964	  0	0.90000	  0	 12	 40	 41	  0	
12-May-2013	sub2347	2347	  2	  1	 13	  6	  1	  4	  3	  4	  1	  2	  1	0.66874	  1	0.90000	  0	 14	 32	 33	  0	
12-May-2013	sub2347	2347	  2	  1	 14	  6	  1	  3	  5	  2	  0	  1	  0	0.45952	  1	0.90000	  0	 13	 34	 49	  1	
12-May-2013	sub2347	2347	  2	  1	 15	  6	  1	  2	  2	  4	  1	  2	  1	0.51370	  1	0.90000	  0	 12	 30	 31	  0	
12-May-2013	sub2347	2347	  2	  1	 16	  6	  1	  3	  5	  2	  1	  2	  0	0.50658	  0	0.80000	  0	 13	 42	 43	  0	
12-May-2013	sub2347	2347	  2	  1	 17	  6	  1	  5	  4	  2	  0	  1	  0	0.53835	  1	0.80000	  0	 15	 37	 48	  0	
12-May-2013	sub2347	2347	  2	  1	 18	  6	  1	  3	  5	  2	  1	  1	  1	0.56888	  1	0.70000	  0	 13	 32	 33	  0	
12-May-2013	sub2347	2347	  2	  1	 19	  6	  1	  3	  5	  2	  1	  1	  1	0.46491	  1	0.70000	  0	 13	 32	 33	  1	
12-May-2013	sub2347	2347	  2	  1	 20	  6	  1	  3	  5	  2	  1	  1	  1	0.43047	  1	0.70000	  0	 13	 32	 33	  1	
12-May-2013	sub2347	2347	  2	  1	 21	  6	  1	  5	  4	  2	  1	  1	  1	0.49828	  1	0.60000	  0	 15	 35	 36	  1	
12-May-2013	sub2347	2347	  2	  1	 22	  6	  1	  1	  1	  1	  1	  1	  1	0.56761	  1	0.60000	  0	 11	 30	 31	  0	
12-May-2013	sub2347	2347	  2	  1	 23	  6	  1	  2	  2	  4	  1	  1	  0	0.59098	  0	0.60000	  0	 12	 40	 41	  0	
12-May-2013	sub2347	2347	  2	  1	 24	  6	  1	  3	  5	  2	  0	  1	  0	0.56304	  1	0.60000	  0	 13	 34	 49	  0	
12-May-2013	sub2347	2347	  2	  1	 25	  6	  1	  4	  3	  4	  1	  2	  1	0.63487	  1	0.60000	  1	 14	 32	 51	  0	
12-May-2013	sub2347	2347	  2	  1	 26	  6	  1	  1	  1	  1	  1	  2	  0	0.60598	  0	0.90000	  0	 11	 40	 41	  0	
12-May-2013	sub2347	2347	  2	  1	 27	  6	  1	  1	  1	  1	  1	  1	  1	0.63051	  1	0.90000	  0	 11	 30	 31	  0	
12-May-2013	sub2347	2347	  2	  1	 28	  6	  1	  5	  4	  2	  0	  1	  0	0.51823	  1	0.90000	  0	 15	 37	 48	  0	
12-May-2013	sub2347	2347	  2	  1	 29	  6	  1	  2	  2	  4	  1	  1	  0	0.64710	  0	0.90000	  0	 12	 40	 41	  0	
12-May-2013	sub2347	2347	  2	  1	 30	  6	  1	  5	  4	  2	  0	  1	  0	0.55622	  1	0.80000	  0	 15	 37	 48	  0	
12-May-2013	sub2347	2347	  2	  1	 31	  6	  1	  4	  3	  4	  1	  2	  1	0.70292	  1	0.80000	  0	 14	 32	 33	  0	
12-May-2013	sub2347	2347	  2	  1	 32	  6	  1	  2	  2	  4	  1	  2	  1	0.71023	  1	0.80000	  0	 12	 30	 31	  0	
12-May-2013	sub2347	2347	  2	  1	 33	  6	  1	  2	  2	  4	  1	  2	  1	0.57852	  1	0.80000	  0	 12	 30	 31	  0	
12-May-2013	sub2347	2347	  2	  1	 34	  6	  1	  4	  3	  4	  1	  2	  1	0.56615	  1	0.80000	  0	 14	 32	 33	  0	
12-May-2013	sub2347	2347	  2	  1	 35	  6	  1	  1	  1	  1	  1	  1	  1	0.74564	  1	0.70000	  1	 11	 30	 51	  0	
12-May-2013	sub2347	2347	  2	  1	 36	  6	  1	  2	  2	  4	  1	  1	  0	0.57668	  0	0.90000	  0	 12	 40	 41	  0	
12-May-2013	sub2347	2347	  2	  1	 37	  6	  1	  6	  6	  4	  0	  1	  1	0.62203	  0	0.90000	  0	 16	 47	 38	  0	
12-May-2013	sub2347	2347	  2	  1	 38	  6	  1	  1	  1	  1	  1	  2	  0	0.66481	  0	0.90000	  0	 11	 40	 41	  0	
12-May-2013	sub2347	2347	  2	  1	 39	  6	  1	  1	  1	  1	  1	  1	  1	0.47705	  1	0.90000	  0	 11	 30	 31	  1	
12-May-2013	sub2347	2347	  2	  1	 40	  6	  1	  3	  5	  2	  1	  2	  0	0.74369	  0	0.90000	  0	 13	 42	 43	  0	
12-May-2013	sub2347	2347	  2	  1	 41	  6	  1	  2	  2	  4	  1	  2	  1	0.50944	  1	0.90000	  0	 12	 30	 31	  0	
12-May-2013	sub2347	2347	  2	  1	 42	  6	  1	  3	  5	  2	  1	  2	  0	0.45413	  0	0.90000	  0	 13	 42	 43	  1	
12-May-2013	sub2347	2347	  2	  1	 43	  6	  1	  1	  1	  1	  1	  1	  1	0.70792	  1	0.90000	  0	 11	 30	 31	  0	
12-May-2013	sub2347	2347	  2	  1	 44	  6	  1	  6	  6	  4	  1	  1	  0	0.56478	  0	0.80000	  0	 16	 45	 46	  0	
12-May-2013	sub2347	2347	  2	  1	 45	  6	  1	  6	  6	  4	  0	  1	  1	0.56691	  0	0.80000	  0	 16	 47	 38	  0	
12-May-2013	sub2347	2347	  2	  1	 46	  6	  1	  3	  5	  2	  1	  1	  1	0.55185	  1	0.80000	  0	 13	 32	 33	  0	
12-May-2013	sub2347	2347	  2	  1	 47	  6	  1	  5	  4	  2	  1	  1	  1	0.54003	  1	0.80000	  0	 15	 35	 36	  0	
12-May-2013	sub2347	2347	  2	  1	 48	  6	  1	  1	  1	  1	  1	  1	  1	0.55270	  1	0.80000	  0	 11	 30	 31	  0	
12-May-2013	sub2347	2347	  2	  1	 49	  6	  1	  6	  6	  4	  0	  1	  1	0.72486	  0	0.80000	  0	 16	 47	 38	  0	
12-May-2013	sub2347	2347	  2	  1	 50	  6	  1	  5	  4	  2	  1	  1	  1	0.55772	  1	0.80000	  0	 15	 35	 36	  0	
12-May-2013	sub2347	2347	  2	  1	 51	  6	  1	  4	  3	  4	  1	  2	  1	0.55452	  1	0.70000	  0	 14	 32	 33	  0	
12-May-2013	sub2347	2347	  2	  1	 52	  6	  1	  2	  2	  4	  1	  2	  1	0.44795	  1	0.70000	  0	 12	 30	 31	  1	
12-May-2013	sub2347	2347	  2	  1	 53	  6	  1	  6	  6	  4	  0	  1	  1	0.54509	  0	0.70000	  0	 16	 47	 38	  0	
12-May-2013	sub2347	2347	  2	  1	 54	  6	  1	  6	  6	  4	  1	  1	  0	0.44278	  0	0.70000	  0	 16	 45	 46	  1	
12-May-2013	sub2347	2347	  2	  1	 55	  6	  1	  3	  5	  2	  1	  1	  1	0.44360	  1	0.70000	  0	 13	 32	 33	  1	
12-May-2013	sub2347	2347	  2	  1	 56	  6	  1	  6	  6	  4	  1	  1	  0	0.53536	  0	0.70000	  0	 16	 45	 46	  0	
12-May-2013	sub2347	2347	  2	  1	 57	  6	  1	  1	  1	  1	  1	  1	  1	0.42030	  1	0.70000	  0	 11	 30	 31	  1	
12-May-2013	sub2347	2347	  2	  1	 58	  6	  1	  4	  3	  4	  1	  2	  1	0.58819	  1	0.70000	  0	 14	 32	 33	  0	
12-May-2013	sub2347	2347	  2	  1	 59	  6	  1	  5	  4	  2	  1	  1	  1	0.53087	  1	0.70000	  0	 15	 35	 36	  0	
12-May-2013	sub2347	2347	  2	  1	 60	  6	  1	  2	  2	  4	  1	  2	  1	0.55082	  1	0.70000	  0	 12	 30	 31	  0	
12-May-2013	sub2347	2347	  2	  1	 61	  6	  1	  6	  6	  4	  1	  1	  0	0.51198	  0	0.60000	  0	 16	 45	 46	  0	
12-May-2013	sub2347	2347	  2	  1	 62	  6	  1	  3	  5	  2	  1	  1	  1	0.46201	  1	0.60000	  0	 13	 32	 33	  1	
12-May-2013	sub2347	2347	  2	  1	 63	  6	  1	  4	  3	  4	  1	  2	  1	0.46766	  1	0.60000	  0	 14	 32	 33	  1	
12-May-2013	sub2347	2347	  2	  1	 64	  6	  1	  1	  1	  1	  1	  1	  1	0.47829	  1	0.60000	  0	 11	 30	 31	  1	
12-May-2013	sub2347	2347	  2	  1	 65	  6	  1	  2	  2	  4	  1	  2	  1	0.42646	  1	0.60000	  0	 12	 30	 31	  1	
12-May-2013	sub2347	2347	  2	  1	 66	  6	  1	  2	  2	  4	  1	  2	  1	0.49823	  1	0.60000	  0	 12	 30	 31	  1	
12-May-2013	sub2347	2347	  2	  1	 67	  6	  1	  5	  4	  2	  0	  1	  0	0.52941	  1	0.60000	  0	 15	 37	 48	  0	
12-May-2013	sub2347	2347	  2	  1	 68	  6	  1	  1	  1	  1	  1	  1	  1	0.42668	  1	0.60000	  0	 11	 30	 31	  1	
12-May-2013	sub2347	2347	  2	  1	 69	  6	  1	  4	  3	  4	  1	  1	  0	0.47419	  0	0.60000	  0	 14	 42	 43	  1	
12-May-2013	sub2347	2347	  2	  1	 70	  6	  1	  6	  6	  4	  0	  1	  1	0.55156	  0	0.60000	  0	 16	 47	 38	  0	
12-May-2013	sub2347	2347	  2	  1	 71	  6	  1	  6	  6	  4	  1	  1	  0	0.45058	  0	0.60000	  0	 16	 45	 46	  1	
12-May-2013	sub2347	2347	  2	  1	 72	  6	  1	  4	  3	  4	  1	  2	  1	0.43410	  1	0.60000	  0	 14	 32	 33	  1	
12-May-2013	sub2347	2347	  2	  1	 73	  6	  1	  4	  3	  4	  1	  2	  1	0.49747	  1	0.60000	  0	 14	 32	 33	  1	
12-May-2013	sub2347	2347	  2	  1	 74	  6	  1	  6	  6	  4	  0	  1	  1	0.42984	  0	0.60000	  0	 16	 47	 38	  1	
12-May-2013	sub2347	2347	  2	  1	 75	  6	  1	  5	  4	  2	  0	  1	  0	0.43177	  1	0.60000	  0	 15	 37	 48	  1	
12-May-2013	sub2347	2347	  2	  1	 76	  6	  2	  1	  1	  1	  1	  1	  1	0.34022	  1	0.50000	  0	 21	 60	 61	  1	
12-May-2013	sub2347	2347	  2	  1	 77	  6	  2	  3	  5	  2	  0	  2	  1	0.45110	  0	0.50000	  0	 23	 84	 69	  1	
12-May-2013	sub2347	2347	  2	  1	 78	  6	  2	  2	  2	  4	  1	  2	  1	0.50697	  1	0.50000	  1	 22	 60	 51	  0	
12-May-2013	sub2347	2347	  2	  1	 79	  6	  2	  1	  1	  1	  1	  1	  1	0.51404	  1	0.70000	  0	 21	 60	 61	  0	
12-May-2013	sub2347	2347	  2	  1	 80	  6	  2	  2	  2	  4	  1	  2	  1	0.55405	  1	0.70000	  0	 22	 60	 61	  0	
12-May-2013	sub2347	2347	  2	  1	 81	  6	  2	  3	  5	  2	  1	  1	  1	0.43461	  1	0.60000	  0	 23	 62	 63	  1	
12-May-2013	sub2347	2347	  2	  1	 82	  6	  2	  5	  4	  2	  0	  1	  0	0.39605	  1	0.60000	  0	 25	 67	 88	  1	
12-May-2013	sub2347	2347	  2	  1	 83	  6	  2	  4	  3	  4	  1	  1	  0	0.40539	  0	0.60000	  0	 24	 82	 83	  1	
12-May-2013	sub2347	2347	  2	  1	 84	  6	  2	  4	  3	  4	  1	  2	  1	0.44121	  1	0.60000	  0	 24	 62	 63	  1	
12-May-2013	sub2347	2347	  2	  1	 85	  6	  2	  5	  4	  2	  0	  1	  0	0.41501	  1	0.60000	  0	 25	 67	 88	  1	
12-May-2013	sub2347	2347	  2	  1	 86	  6	  2	  1	  1	  1	  1	  1	  1	0.48916	  1	0.60000	  0	 21	 60	 61	  1	
12-May-2013	sub2347	2347	  2	  1	 87	  6	  2	  6	  6	  4	  0	  1	  1	0.43469	  0	0.60000	  0	 26	 87	 68	  1	
12-May-2013	sub2347	2347	  2	  1	 88	  6	  2	  3	  5	  2	  1	  1	  1	0.42236	  1	0.60000	  0	 23	 62	 63	  1	
12-May-2013	sub2347	2347	  2	  1	 89	  6	  2	  4	  3	  4	  1	  2	  1	0.40452	  1	0.60000	  0	 24	 62	 63	  1	
12-May-2013	sub2347	2347	  2	  1	 90	  6	  2	  6	  6	  4	  1	  1	  0	0.49752	  0	0.60000	  0	 26	 85	 86	  1	
12-May-2013	sub2347	2347	  2	  1	 91	  6	  2	  3	  5	  2	  1	  1	  1	0.51037	  1	0.60000	  0	 23	 62	 63	  0	
12-May-2013	sub2347	2347	  2	  1	 92	  6	  2	  5	  4	  2	  0	  1	  0	0.34436	  1	0.60000	  0	 25	 67	 88	  1	
12-May-2013	sub2347	2347	  2	  1	 93	  6	  2	  5	  4	  2	  0	  1	  0	0.36291	  1	0.60000	  0	 25	 67	 88	  1	
12-May-2013	sub2347	2347	  2	  1	 94	  6	  2	  1	  1	  1	  1	  1	  1	0.36739	  1	0.60000	  0	 21	 60	 61	  1	
12-May-2013	sub2347	2347	  2	  1	 95	  6	  2	  2	  2	  4	  1	  2	  1	0.46356	  1	0.60000	  0	 22	 60	 61	  1	
12-May-2013	sub2347	2347	  2	  1	 96	  6	  2	  5	  4	  2	  0	  1	  0	0.39902	  1	0.60000	  0	 25	 67	 88	  1	
12-May-2013	sub2347	2347	  2	  1	 97	  6	  2	  6	  6	  4	  1	  1	  0	0.37213	  0	0.60000	  0	 26	 85	 86	  1	
12-May-2013	sub2347	2347	  2	  1	 98	  6	  2	  2	  2	  4	  1	  2	  1	0.55513	  1	0.60000	  0	 22	 60	 61	  0	
12-May-2013	sub2347	2347	  2	  1	 99	  6	  2	  4	  3	  4	  1	  2	  1	0.50981	  1	0.60000	  0	 24	 62	 63	  0	
12-May-2013	sub2347	2347	  2	  1	100	  6	  2	  4	  3	  4	  0	  2	  0	0.48649	  1	0.60000	  0	 24	 64	 89	  1	
12-May-2013	sub2347	2347	  2	  1	101	  6	  2	  2	  2	  4	  1	  2	  1	0.46111	  1	0.50000	  0	 22	 60	 61	  1	
12-May-2013	sub2347	2347	  2	  1	102	  6	  2	  5	  4	  2	  0	  1	  0	0.52664	  1	0.50000	  1	 25	 67	 51	  0	
12-May-2013	sub2347	2347	  2	  1	103	  6	  2	  6	  6	  4	  0	  1	  1	0.43394	  0	0.60000	  0	 26	 87	 68	  1	
12-May-2013	sub2347	2347	  2	  1	104	  6	  2	  5	  4	  2	  0	  1	  0	0.44949	  1	0.60000	  0	 25	 67	 88	  1	
12-May-2013	sub2347	2347	  2	  1	105	  6	  2	  3	  5	  2	  1	  2	  0	0.50793	  0	0.60000	  0	 23	 82	 83	  0	
12-May-2013	sub2347	2347	  2	  1	106	  6	  2	  2	  2	  4	  1	  2	  1	0.48856	  1	0.60000	  0	 22	 60	 61	  1	
12-May-2013	sub2347	2347	  2	  1	107	  6	  2	  6	  6	  4	  1	  1	  0	0.56462	  0	0.60000	  0	 26	 85	 86	  0	
12-May-2013	sub2347	2347	  2	  1	108	  6	  2	  2	  2	  4	  1	  2	  1	0.49608	  1	0.60000	  0	 22	 60	 61	  1	
12-May-2013	sub2347	2347	  2	  1	109	  6	  2	  4	  3	  4	  1	  2	  1	0.56920	  1	0.60000	  0	 24	 62	 63	  0	
12-May-2013	sub2347	2347	  2	  1	110	  6	  2	  2	  2	  4	  1	  2	  1	0.57013	  1	0.60000	  0	 22	 60	 61	  0	
12-May-2013	sub2347	2347	  2	  1	111	  6	  2	  6	  6	  4	  1	  1	  0	0.51014	  0	0.60000	  0	 26	 85	 86	  0	
12-May-2013	sub2347	2347	  2	  1	112	  6	  2	  3	  5	  2	  1	  2	  0	0.58366	  0	0.60000	  0	 23	 82	 83	  0	
12-May-2013	sub2347	2347	  2	  1	113	  6	  2	  5	  4	  2	  0	  1	  0	0.58792	  1	0.60000	  0	 25	 67	 88	  0	
12-May-2013	sub2347	2347	  2	  1	114	  6	  2	  4	  3	  4	  1	  2	  1	0.61039	  1	0.60000	  1	 24	 62	 51	  0	
12-May-2013	sub2347	2347	  2	  1	115	  6	  2	  6	  6	  4	  0	  1	  1	0.88282	  0	0.70000	  1	 26	 87	 51	  0	
12-May-2013	sub2347	2347	  2	  1	116	  6	  2	  5	  4	  2	  0	  2	  1	0.42890	  0	0.80000	  0	 25	 87	 68	  1	
12-May-2013	sub2347	2347	  2	  1	117	  6	  2	  5	  4	  2	  0	  2	  1	0.52471	  0	0.80000	  0	 25	 87	 68	  0	
12-May-2013	sub2347	2347	  2	  1	118	  6	  2	  3	  5	  2	  1	  2	  0	0.57525	  0	0.70000	  0	 23	 82	 83	  0	
12-May-2013	sub2347	2347	  2	  1	119	  6	  2	  1	  1	  1	  1	  1	  1	0.52130	  1	0.70000	  0	 21	 60	 61	  0	
12-May-2013	sub2347	2347	  2	  1	120	  6	  2	  1	  1	  1	  1	  1	  1	0.57217	  1	0.70000	  0	 21	 60	 61	  0	
12-May-2013	sub2347	2347	  2	  1	121	  6	  2	  2	  2	  4	  1	  2	  1	0.58559	  1	0.70000	  0	 22	 60	 61	  0	
12-May-2013	sub2347	2347	  2	  1	122	  6	  2	  1	  1	  1	  1	  1	  1	0.55165	  1	0.70000	  0	 21	 60	 61	  0	
12-May-2013	sub2347	2347	  2	  1	123	  6	  2	  2	  2	  4	  1	  2	  1	0.53271	  1	0.70000	  0	 22	 60	 61	  0	
12-May-2013	sub2347	2347	  2	  1	124	  6	  2	  3	  5	  2	  1	  1	  1	0.65596	  1	0.70000	  0	 23	 62	 63	  0	
12-May-2013	sub2347	2347	  2	  1	125	  6	  2	  6	  6	  4	  0	  1	  1	0.52899	  0	0.70000	  0	 26	 87	 68	  0	
12-May-2013	sub2347	2347	  2	  1	126	  6	  2	  5	  4	  2	  0	  2	  1	0.67960	  0	0.70000	  0	 25	 87	 68	  0	
12-May-2013	sub2347	2347	  2	  1	127	  6	  2	  1	  1	  1	  1	  1	  1	0.53778	  1	0.70000	  0	 21	 60	 61	  0	
12-May-2013	sub2347	2347	  2	  1	128	  6	  2	  5	  4	  2	  0	  2	  1	0.47212	  0	0.70000	  0	 25	 87	 68	  1	
12-May-2013	sub2347	2347	  2	  1	129	  6	  2	  4	  3	  4	  1	  2	  1	0.55129	  1	0.70000	  0	 24	 62	 63	  0	
12-May-2013	sub2347	2347	  2	  1	130	  6	  2	  1	  1	  1	  1	  1	  1	0.71254	  1	0.70000	  1	 21	 60	 51	  0	
12-May-2013	sub2347	2347	  2	  1	131	  6	  2	  6	  6	  4	  1	  1	  0	0.58790	  0	0.80000	  0	 26	 85	 86	  0	
12-May-2013	sub2347	2347	  2	  1	132	  6	  2	  3	  5	  2	  1	  2	  0	0.60544	  0	0.80000	  0	 23	 82	 83	  0	
12-May-2013	sub2347	2347	  2	  1	133	  6	  2	  3	  5	  2	  1	  1	  1	0.59145	  1	0.80000	  0	 23	 62	 63	  0	
12-May-2013	sub2347	2347	  2	  1	134	  6	  2	  4	  3	  4	  0	  2	  0	0.60488	  1	0.80000	  0	 24	 64	 89	  0	
12-May-2013	sub2347	2347	  2	  1	135	  6	  2	  4	  3	  4	  1	  2	  1	0.49733	  1	0.70000	  0	 24	 62	 63	  1	
12-May-2013	sub2347	2347	  2	  1	136	  6	  2	  2	  2	  4	  1	  2	  1	0.54845	  1	0.70000	  0	 22	 60	 61	  0	
12-May-2013	sub2347	2347	  2	  1	137	  6	  2	  5	  4	  2	  0	  2	  1	0.57273	  0	0.70000	  0	 25	 87	 68	  0	
12-May-2013	sub2347	2347	  2	  1	138	  6	  2	  3	  5	  2	  0	  1	  0	0.63526	  1	0.70000	  0	 23	 64	 89	  0	
12-May-2013	sub2347	2347	  2	  1	139	  6	  2	  4	  3	  4	  1	  2	  1	0.56869	  1	0.70000	  0	 24	 62	 63	  0	
12-May-2013	sub2347	2347	  2	  1	140	  6	  2	  1	  1	  1	  1	  1	  1	0.54932	  1	0.70000	  0	 21	 60	 61	  0	
12-May-2013	sub2347	2347	  2	  1	141	  6	  2	  1	  1	  1	  1	  1	  1	0.50486	  1	0.70000	  0	 21	 60	 61	  0	
12-May-2013	sub2347	2347	  2	  1	142	  6	  2	  6	  6	  4	  0	  1	  1	0.60169	  0	0.70000	  0	 26	 87	 68	  0	
12-May-2013	sub2347	2347	  2	  1	143	  6	  2	  4	  3	  4	  0	  2	  0	0.56256	  1	0.70000	  0	 24	 64	 89	  0	
12-May-2013	sub2347	2347	  2	  1	144	  6	  2	  3	  5	  2	  1	  2	  0	0.50185	  0	0.70000	  0	 23	 82	 83	  0	
12-May-2013	sub2347	2347	  2	  1	145	  6	  2	  2	  2	  4	  1	  2	  1	0.55610	  1	0.70000	  0	 22	 60	 61	  0	
12-May-2013	sub2347	2347	  2	  1	146	  6	  2	  6	  6	  4	  1	  1	  0	0.58505	  0	0.70000	  0	 26	 85	 86	  0	
12-May-2013	sub2347	2347	  2	  1	147	  6	  2	  1	  1	  1	  1	  1	  1	0.54041	  1	0.70000	  0	 21	 60	 61	  0	
12-May-2013	sub2347	2347	  2	  1	148	  6	  2	  4	  3	  4	  1	  2	  1	0.57530	  1	0.70000	  0	 24	 62	 63	  0	
12-May-2013	sub2347	2347	  2	  1	149	  6	  2	  1	  1	  1	  1	  1	  1	0.49214	  1	0.70000	  0	 21	 60	 61	  1	
12-May-2013	sub2347	2347	  2	  1	150	  6	  2	  6	  6	  4	  0	  1	  1	0.54976	  0	0.70000	  0	 26	 87	 68	  0	
